"Username","Trial","Condition.Number","Condition.Description","Stimuli.Cue","Stimuli.Answer","Stimuli.Shuffle","Stimuli.Stimuli.Notes","Stimuli.Value","Procedure.Item","Procedure.Trial.Type","Procedure.Procedure.Notes","Procedure.Shuffle","Response.RT","Response.Response","Response.JOL"
"5671927473f58b000d664293",4,4,"Global D","Kiwi","Kiwi","R1","Related",8,4,"Study","Related","R1",4063,"",NA
"5671927473f58b000d664293",5,4,"Global D","Peach","Peach","R1","Related",6,8,"Study","Related","R1",2275,"",NA
"5671927473f58b000d664293",6,4,"Global D","Cherry","Cherry","R1","Related",11,12,"Study","Related","R1",2102,"",NA
"5671927473f58b000d664293",7,4,"Global D","Grape","Grape","R1","Related",4,7,"Study","Related","R1",1692,"",NA
"5671927473f58b000d664293",8,4,"Global D","Pear","Pear","R1","Related",5,5,"Study","Related","R1",2268,"",NA
"5671927473f58b000d664293",9,4,"Global D","Lemon","Lemon","R1","Related",12,13,"Study","Related","R1",1576,"",NA
"5671927473f58b000d664293",10,4,"Global D","Plum","Plum","R1","Related",9,6,"Study","Related","R1",2084,"",NA
"5671927473f58b000d664293",11,4,"Global D","Strawberry","Strawberry","R1","Related",7,10,"Study","Related","R1",1893,"",NA
"5671927473f58b000d664293",12,4,"Global D","Mango","Mango","R1","Related",10,11,"Study","Related","R1",1671,"",NA
"5671927473f58b000d664293",13,4,"Global D","Banana","Banana","R1","Related",3,9,"Study","Related","R1",1775,"",NA
"5671927473f58b000d664293",14,4,"Global D","Apple","Apple","R1","Related",1,2,"Study","Related","R1",2110,"",NA
"5671927473f58b000d664293",15,4,"Global D","Orange","Orange","R1","Related",2,3,"Study","Related","R1",1944,"",NA
"5671927473f58b000d664293",17,4,"Global D","","","","",NA,0,"JOL_GLOBAL","Related","JOL1",6000,"",80
"5671927473f58b000d664293",21,4,"Global D","","","","",NA,0,"FreeRecall","Related","RECALL_Test1",65001,"Banana Peach Lemon Apple Strawberry Kiwi Pear Plum Grape Cherry",NA
"5671927473f58b000d664293",23,4,"Global D","Document","Document","U1","Unrelated",15,14,"Study","Unrelated","U1",3365,"",NA
"5671927473f58b000d664293",24,4,"Global D","Kayak","Kayak","U1","Unrelated",20,19,"Study","Unrelated","U1",2237,"",NA
"5671927473f58b000d664293",25,4,"Global D","Bean","Bean","U1","Unrelated",22,23,"Study","Unrelated","U1",2622,"",NA
"5671927473f58b000d664293",26,4,"Global D","Yellow","Yellow","U1","Unrelated",19,21,"Study","Unrelated","U1",2695,"",NA
"5671927473f58b000d664293",27,4,"Global D","Bed","Bed","U1","Unrelated",14,17,"Study","Unrelated","U1",2001,"",NA
"5671927473f58b000d664293",28,4,"Global D","Flea","Flea","U1","Unrelated",21,22,"Study","Unrelated","U1",3361,"",NA
"5671927473f58b000d664293",29,4,"Global D","Mint","Mint","U1","Unrelated",17,16,"Study","Unrelated","U1",1914,"",NA
"5671927473f58b000d664293",30,4,"Global D","Frog","Frog","U1","Unrelated",13,20,"Study","Unrelated","U1",2602,"",NA
"5671927473f58b000d664293",31,4,"Global D","Shirt","Shirt","U1","Unrelated",18,18,"Study","Unrelated","U1",2980,"",NA
"5671927473f58b000d664293",32,4,"Global D","Slow","Slow","U1","Unrelated",23,24,"Study","Unrelated","U1",2155,"",NA
"5671927473f58b000d664293",33,4,"Global D","Dirt","Dirt","U1","Unrelated",16,15,"Study","Unrelated","U1",2416,"",NA
"5671927473f58b000d664293",34,4,"Global D","Hawk","Hawk","U1","Unrelated",24,25,"Study","Unrelated","U1",2386,"",NA
"5671927473f58b000d664293",36,4,"Global D","","","","",NA,0,"JOL_GLOBAL","Unrelated","JOL2",6001,"",45
"5671927473f58b000d664293",40,4,"Global D","","","","",NA,0,"FreeRecall","Unrelated","RECALL_Test2",65000,"Frog Dirt Document Flea Yellow Mint Slow Bean ",NA
"5671927473f58b000d664293",42,4,"Global D","Attic","Attic","R2","Related",34,26,"Study","Related","R2",3348,"",NA
"5671927473f58b000d664293",43,4,"Global D","Roof","Roof","R2","Related",36,36,"Study","Related","R2",3331,"",NA
"5671927473f58b000d664293",44,4,"Global D","Wall","Wall","R2","Related",29,34,"Study","Related","R2",2663,"",NA
"5671927473f58b000d664293",45,4,"Global D","Stairs","Stairs","R2","Related",32,30,"Study","Related","R2",2151,"",NA
"5671927473f58b000d664293",46,4,"Global D","Bathroom","Bathroom","R2","Related",27,31,"Study","Related","R2",2127,"",NA
"5671927473f58b000d664293",47,4,"Global D","Hallway","Hallway","R2","Related",35,29,"Study","Related","R2",1671,"",NA
"5671927473f58b000d664293",48,4,"Global D","Window","Window","R2","Related",28,32,"Study","Related","R2",2073,"",NA
"5671927473f58b000d664293",49,4,"Global D","Basement","Basement","R2","Related",26,33,"Study","Related","R2",1628,"",NA
"5671927473f58b000d664293",50,4,"Global D","Floor","Floor","R2","Related",31,37,"Study","Related","R2",1646,"",NA
"5671927473f58b000d664293",51,4,"Global D","Ceiling","Ceiling","R2","Related",25,28,"Study","Related","R2",1766,"",NA
"5671927473f58b000d664293",52,4,"Global D","Door","Door","R2","Related",30,35,"Study","Related","R2",1609,"",NA
"5671927473f58b000d664293",53,4,"Global D","Elevator","Elevator","R2","Related",33,27,"Study","Related","R2",1656,"",NA
"5671927473f58b000d664293",55,4,"Global D","","","","",NA,0,"JOL_GLOBAL","Related","JOL3",6001,"",80
"5671927473f58b000d664293",59,4,"Global D","","","","",NA,0,"FreeRecall","Related","RECALL_Test3",65000,"Roof Attic Floor Wall Stairs Basement Ceiling Door Window",NA
"5671927473f58b000d664293",61,4,"Global D","Drill","Drill","U2","Unrelated",45,45,"Study","Unrelated","U2",2552,"",NA
"5671927473f58b000d664293",62,4,"Global D","Basket","Basket","U2","Unrelated",41,49,"Study","Unrelated","U2",2607,"",NA
"5671927473f58b000d664293",63,4,"Global D","Flute","Flute","U2","Unrelated",38,38,"Study","Unrelated","U2",2014,"",NA
"5671927473f58b000d664293",64,4,"Global D","Cook","Cook","U2","Unrelated",42,48,"Study","Unrelated","U2",3221,"",NA
"5671927473f58b000d664293",65,4,"Global D","Rest","Rest","U2","Unrelated",48,39,"Study","Unrelated","U2",2566,"",NA
"5671927473f58b000d664293",66,4,"Global D","Card","Card","U2","Unrelated",37,40,"Study","Unrelated","U2",3192,"",NA
"5671927473f58b000d664293",67,4,"Global D","Mother","Mother","U2","Unrelated",44,42,"Study","Unrelated","U2",1526,"",NA
"5671927473f58b000d664293",68,4,"Global D","Tent","Tent","U2","Unrelated",46,41,"Study","Unrelated","U2",2756,"",NA
"5671927473f58b000d664293",69,4,"Global D","Phone","Phone","U2","Unrelated",47,46,"Study","Unrelated","U2",2669,"",NA
"5671927473f58b000d664293",70,4,"Global D","Salt","Salt","U2","Unrelated",39,43,"Study","Unrelated","U2",3356,"",NA
"5671927473f58b000d664293",71,4,"Global D","Cloud","Cloud","U2","Unrelated",40,44,"Study","Unrelated","U2",2218,"",NA
"5671927473f58b000d664293",72,4,"Global D","Fossil","Fossil","U2","Unrelated",43,47,"Study","Unrelated","U2",2099,"",NA
"5671927473f58b000d664293",74,4,"Global D","","","","",NA,0,"JOL_GLOBAL","Unrelated","JOL4",6000,"",40
"5671927473f58b000d664293",78,4,"Global D","","","","",NA,0,"FreeRecall","Unrelated","RECALL_Test4",65001,"Basket Drill Mother Flute ",NA
"56a38b45dbe850000cfd50c3",4,4,"Global D","Pear","Pear","R1","Related",5,8,"Study","Related","R1",2057,"",NA
"56a38b45dbe850000cfd50c3",5,4,"Global D","Strawberry","Strawberry","R1","Related",7,3,"Study","Related","R1",1759,"",NA
"56a38b45dbe850000cfd50c3",6,4,"Global D","Grape","Grape","R1","Related",4,5,"Study","Related","R1",1730,"",NA
"56a38b45dbe850000cfd50c3",7,4,"Global D","Peach","Peach","R1","Related",6,2,"Study","Related","R1",1848,"",NA
"56a38b45dbe850000cfd50c3",8,4,"Global D","Kiwi","Kiwi","R1","Related",8,13,"Study","Related","R1",3527,"",NA
"56a38b45dbe850000cfd50c3",9,4,"Global D","Apple","Apple","R1","Related",1,10,"Study","Related","R1",4895,"",NA
"56a38b45dbe850000cfd50c3",10,4,"Global D","Orange","Orange","R1","Related",2,7,"Study","Related","R1",1940,"",NA
"56a38b45dbe850000cfd50c3",11,4,"Global D","Plum","Plum","R1","Related",9,6,"Study","Related","R1",1522,"",NA
"56a38b45dbe850000cfd50c3",12,4,"Global D","Lemon","Lemon","R1","Related",12,11,"Study","Related","R1",1449,"",NA
"56a38b45dbe850000cfd50c3",13,4,"Global D","Banana","Banana","R1","Related",3,12,"Study","Related","R1",1383,"",NA
"56a38b45dbe850000cfd50c3",14,4,"Global D","Cherry","Cherry","R1","Related",11,4,"Study","Related","R1",1379,"",NA
"56a38b45dbe850000cfd50c3",15,4,"Global D","Mango","Mango","R1","Related",10,9,"Study","Related","R1",1629,"",NA
"56a38b45dbe850000cfd50c3",17,4,"Global D","","","","",NA,0,"JOL_GLOBAL","Related","JOL1",6001,"",40
"56a38b45dbe850000cfd50c3",21,4,"Global D","","","","",NA,0,"FreeRecall","Related","RECALL_Test1",65001,"Pear Peach Cherry Kiwi Banana Apple Lemon Strawberry ",NA
"56a38b45dbe850000cfd50c3",23,4,"Global D","Hawk","Hawk","U1","Unrelated",24,16,"Study","Unrelated","U1",3893,"",NA
"56a38b45dbe850000cfd50c3",24,4,"Global D","Mint","Mint","U1","Unrelated",17,14,"Study","Unrelated","U1",3776,"",NA
"56a38b45dbe850000cfd50c3",25,4,"Global D","Bean","Bean","U1","Unrelated",22,17,"Study","Unrelated","U1",3971,"",NA
"56a38b45dbe850000cfd50c3",26,4,"Global D","Document","Document","U1","Unrelated",15,24,"Study","Unrelated","U1",4721,"",NA
"56a38b45dbe850000cfd50c3",27,4,"Global D","Yellow","Yellow","U1","Unrelated",19,19,"Study","Unrelated","U1",3186,"",NA
"56a38b45dbe850000cfd50c3",28,4,"Global D","Bed","Bed","U1","Unrelated",14,25,"Study","Unrelated","U1",3547,"",NA
"56a38b45dbe850000cfd50c3",29,4,"Global D","Frog","Frog","U1","Unrelated",13,20,"Study","Unrelated","U1",3763,"",NA
"56a38b45dbe850000cfd50c3",30,4,"Global D","Flea","Flea","U1","Unrelated",21,21,"Study","Unrelated","U1",3446,"",NA
"56a38b45dbe850000cfd50c3",31,4,"Global D","Kayak","Kayak","U1","Unrelated",20,23,"Study","Unrelated","U1",5059,"",NA
"56a38b45dbe850000cfd50c3",32,4,"Global D","Dirt","Dirt","U1","Unrelated",16,18,"Study","Unrelated","U1",3882,"",NA
"56a38b45dbe850000cfd50c3",33,4,"Global D","Shirt","Shirt","U1","Unrelated",18,22,"Study","Unrelated","U1",3771,"",NA
"56a38b45dbe850000cfd50c3",34,4,"Global D","Slow","Slow","U1","Unrelated",23,15,"Study","Unrelated","U1",3548,"",NA
"56a38b45dbe850000cfd50c3",36,4,"Global D","","","","",NA,0,"JOL_GLOBAL","Unrelated","JOL2",6001,"",0
"56a38b45dbe850000cfd50c3",40,4,"Global D","","","","",NA,0,"FreeRecall","Unrelated","RECALL_Test2",65001,"Dirt Hawk Frog Flea",NA
"56a38b45dbe850000cfd50c3",42,4,"Global D","Door","Door","R2","Related",30,27,"Study","Related","R2",2468,"",NA
"56a38b45dbe850000cfd50c3",43,4,"Global D","Attic","Attic","R2","Related",34,33,"Study","Related","R2",2599,"",NA
"56a38b45dbe850000cfd50c3",44,4,"Global D","Wall","Wall","R2","Related",29,30,"Study","Related","R2",2222,"",NA
"56a38b45dbe850000cfd50c3",45,4,"Global D","Window","Window","R2","Related",28,26,"Study","Related","R2",2193,"",NA
"56a38b45dbe850000cfd50c3",46,4,"Global D","Hallway","Hallway","R2","Related",35,34,"Study","Related","R2",2882,"",NA
"56a38b45dbe850000cfd50c3",47,4,"Global D","Elevator","Elevator","R2","Related",33,35,"Study","Related","R2",2207,"",NA
"56a38b45dbe850000cfd50c3",48,4,"Global D","Bathroom","Bathroom","R2","Related",27,31,"Study","Related","R2",2086,"",NA
"56a38b45dbe850000cfd50c3",49,4,"Global D","Stairs","Stairs","R2","Related",32,28,"Study","Related","R2",2016,"",NA
"56a38b45dbe850000cfd50c3",50,4,"Global D","Basement","Basement","R2","Related",26,37,"Study","Related","R2",1791,"",NA
"56a38b45dbe850000cfd50c3",51,4,"Global D","Floor","Floor","R2","Related",31,29,"Study","Related","R2",1804,"",NA
"56a38b45dbe850000cfd50c3",52,4,"Global D","Ceiling","Ceiling","R2","Related",25,32,"Study","Related","R2",1614,"",NA
"56a38b45dbe850000cfd50c3",53,4,"Global D","Roof","Roof","R2","Related",36,36,"Study","Related","R2",1955,"",NA
"56a38b45dbe850000cfd50c3",55,4,"Global D","","","","",NA,0,"JOL_GLOBAL","Related","JOL3",6000,"",50
"56a38b45dbe850000cfd50c3",59,4,"Global D","","","","",NA,0,"FreeRecall","Related","RECALL_Test3",65002,"Door Elevator Window Attic Basement Wall Ceiling Floor",NA
"56a38b45dbe850000cfd50c3",61,4,"Global D","Basket","Basket","U2","Unrelated",41,49,"Study","Unrelated","U2",2489,"",NA
"56a38b45dbe850000cfd50c3",62,4,"Global D","Mother","Mother","U2","Unrelated",44,40,"Study","Unrelated","U2",2685,"",NA
"56a38b45dbe850000cfd50c3",63,4,"Global D","Cloud","Cloud","U2","Unrelated",40,42,"Study","Unrelated","U2",6293,"",NA
"56a38b45dbe850000cfd50c3",64,4,"Global D","Card","Card","U2","Unrelated",37,39,"Study","Unrelated","U2",9336,"",NA
"56a38b45dbe850000cfd50c3",65,4,"Global D","Cook","Cook","U2","Unrelated",42,47,"Study","Unrelated","U2",11053,"",NA
"56a38b45dbe850000cfd50c3",66,4,"Global D","Fossil","Fossil","U2","Unrelated",43,38,"Study","Unrelated","U2",15181,"",NA
"56a38b45dbe850000cfd50c3",67,4,"Global D","Drill","Drill","U2","Unrelated",45,46,"Study","Unrelated","U2",15118,"",NA
"56a38b45dbe850000cfd50c3",68,4,"Global D","Salt","Salt","U2","Unrelated",39,45,"Study","Unrelated","U2",19663,"",NA
"56a38b45dbe850000cfd50c3",69,4,"Global D","Rest","Rest","U2","Unrelated",48,48,"Study","Unrelated","U2",3441,"",NA
"56a38b45dbe850000cfd50c3",70,4,"Global D","Flute","Flute","U2","Unrelated",38,44,"Study","Unrelated","U2",1653,"",NA
"56a38b45dbe850000cfd50c3",71,4,"Global D","Phone","Phone","U2","Unrelated",47,41,"Study","Unrelated","U2",2158,"",NA
"56a38b45dbe850000cfd50c3",72,4,"Global D","Tent","Tent","U2","Unrelated",46,43,"Study","Unrelated","U2",1594,"",NA
"56a38b45dbe850000cfd50c3",74,4,"Global D","","","","",NA,0,"JOL_GLOBAL","Unrelated","JOL4",6001,"",10
"56a38b45dbe850000cfd50c3",78,4,"Global D","","","","",NA,0,"FreeRecall","Unrelated","RECALL_Test4",65001,"Basket Mother Cloud Card Cook Fossil Drill Salt Phone",NA
"56cb314508d7300005fd312a",4,1,"Global A","Parrot","Parrot","U1","Unrelated",21,20,"Study","Unrelated","U1",2424,"",NA
"56cb314508d7300005fd312a",5,1,"Global A","Ballet","Ballet","U1","Unrelated",24,19,"Study","Unrelated","U1",2870,"",NA
"56cb314508d7300005fd312a",6,1,"Global A","Oxygen","Oxygen","U1","Unrelated",18,24,"Study","Unrelated","U1",2747,"",NA
"56cb314508d7300005fd312a",7,1,"Global A","Rifle","Rifle","U1","Unrelated",13,23,"Study","Unrelated","U1",2326,"",NA
"56cb314508d7300005fd312a",8,1,"Global A","Milk","Milk","U1","Unrelated",22,16,"Study","Unrelated","U1",2431,"",NA
"56cb314508d7300005fd312a",9,1,"Global A","Jeep","Jeep","U1","Unrelated",23,22,"Study","Unrelated","U1",2152,"",NA
"56cb314508d7300005fd312a",10,1,"Global A","Guitar","Guitar","U1","Unrelated",19,18,"Study","Unrelated","U1",1853,"",NA
"56cb314508d7300005fd312a",11,1,"Global A","Dollar","Dollar","U1","Unrelated",20,25,"Study","Unrelated","U1",2069,"",NA
"56cb314508d7300005fd312a",12,1,"Global A","Student","Student","U1","Unrelated",15,14,"Study","Unrelated","U1",1595,"",NA
"56cb314508d7300005fd312a",13,1,"Global A","Hockey","Hockey","U1","Unrelated",16,15,"Study","Unrelated","U1",2099,"",NA
"56cb314508d7300005fd312a",14,1,"Global A","Mayor","Mayor","U1","Unrelated",14,21,"Study","Unrelated","U1",1838,"",NA
"56cb314508d7300005fd312a",15,1,"Global A","Pants","Pants","U1","Unrelated",17,17,"Study","Unrelated","U1",2228,"",NA
"56cb314508d7300005fd312a",17,1,"Global A","","","","",NA,0,"JOL_GLOBAL","Unrelated","JOL2",6004,"",NA
"56cb314508d7300005fd312a",21,1,"Global A","","","","",NA,0,"FreeRecall","Unrelated","RECALL_Test1",65001,"Parrot, oxygen, ballet, ",NA
"56cb314508d7300005fd312a",23,1,"Global A","Volcano","Volcano","R1","Related",4,7,"Study","Related","R1",4376,"",NA
"56cb314508d7300005fd312a",24,1,"Global A","Mountain","Mountain","R1","Related",7,4,"Study","Related","R1",2863,"",NA
"56cb314508d7300005fd312a",25,1,"Global A","Canyon","Canyon","R1","Related",3,10,"Study","Related","R1",2482,"",NA
"56cb314508d7300005fd312a",26,1,"Global A","Glacier","Glacier","R1","Related",12,6,"Study","Related","R1",2772,"",NA
"56cb314508d7300005fd312a",27,1,"Global A","Rock","Rock","R1","Related",5,13,"Study","Related","R1",2601,"",NA
"56cb314508d7300005fd312a",28,1,"Global A","Hill","Hill","R1","Related",6,5,"Study","Related","R1",1650,"",NA
"56cb314508d7300005fd312a",29,1,"Global A","Valley","Valley","R1","Related",1,11,"Study","Related","R1",1794,"",NA
"56cb314508d7300005fd312a",30,1,"Global A","Island","Island","R1","Related",9,8,"Study","Related","R1",2007,"",NA
"56cb314508d7300005fd312a",31,1,"Global A","Ocean","Ocean","R1","Related",8,12,"Study","Related","R1",2331,"",NA
"56cb314508d7300005fd312a",32,1,"Global A","River","River","R1","Related",2,9,"Study","Related","R1",2329,"",NA
"56cb314508d7300005fd312a",33,1,"Global A","Cave","Cave","R1","Related",11,3,"Study","Related","R1",2856,"",NA
"56cb314508d7300005fd312a",34,1,"Global A","Lake","Lake","R1","Related",10,2,"Study","Related","R1",1964,"",NA
"56cb314508d7300005fd312a",36,1,"Global A","","","","",NA,0,"JOL_GLOBAL","Related","JOL1",6001,"",20
"56cb314508d7300005fd312a",40,1,"Global A","","","","",NA,0,"FreeRecall","Related","RECALL_Test2",65005,"Mountain, Valley, Island, Cave, River, Hill, Volcano, Rock, Ocean",NA
"56cb314508d7300005fd312a",42,1,"Global A","Viper","Viper","U2","Unrelated",44,40,"Study","Unrelated","U2",3791,"",NA
"56cb314508d7300005fd312a",43,1,"Global A","Tulip","Tulip","U2","Unrelated",39,43,"Study","Unrelated","U2",1957,"",NA
"56cb314508d7300005fd312a",44,1,"Global A","Cruise","Cruise","U2","Unrelated",42,41,"Study","Unrelated","U2",1689,"",NA
"56cb314508d7300005fd312a",45,1,"Global A","Cold","Cold","U2","Unrelated",40,44,"Study","Unrelated","U2",3004,"",NA
"56cb314508d7300005fd312a",46,1,"Global A","Computer","Computer","U2","Unrelated",47,48,"Study","Unrelated","U2",2182,"",NA
"56cb314508d7300005fd312a",47,1,"Global A","Shark","Shark","U2","Unrelated",43,42,"Study","Unrelated","U2",1976,"",NA
"56cb314508d7300005fd312a",48,1,"Global A","Tea","Tea","U2","Unrelated",45,47,"Study","Unrelated","U2",2064,"",NA
"56cb314508d7300005fd312a",49,1,"Global A","Lipstick","Lipstick","U2","Unrelated",46,46,"Study","Unrelated","U2",1911,"",NA
"56cb314508d7300005fd312a",50,1,"Global A","Sandal","Sandal","U2","Unrelated",37,49,"Study","Unrelated","U2",2377,"",NA
"56cb314508d7300005fd312a",51,1,"Global A","Eye","Eye","U2","Unrelated",48,45,"Study","Unrelated","U2",2352,"",NA
"56cb314508d7300005fd312a",52,1,"Global A","Blue","Blue","U2","Unrelated",41,38,"Study","Unrelated","U2",2205,"",NA
"56cb314508d7300005fd312a",53,1,"Global A","Fly","Fly","U2","Unrelated",38,39,"Study","Unrelated","U2",3012,"",NA
"56cb314508d7300005fd312a",55,1,"Global A","","","","",NA,0,"JOL_GLOBAL","Unrelated","JOL4",6003,"",55
"56cb314508d7300005fd312a",59,1,"Global A","","","","",NA,0,"FreeRecall","Unrelated","RECALL_Test3",65003,"Lipstick, Fly, Computer, Eye, Shatk, Tea",NA
"56cb314508d7300005fd312a",61,1,"Global A","Wolf","Wolf","R2","Related",29,34,"Study","Related","R2",2964,"",NA
"56cb314508d7300005fd312a",62,1,"Global A","Tiger","Tiger","R2","Related",25,31,"Study","Related","R2",3870,"",NA
"56cb314508d7300005fd312a",63,1,"Global A","Zebra","Zebra","R2","Related",27,33,"Study","Related","R2",1989,"",NA
"56cb314508d7300005fd312a",64,1,"Global A","Cow","Cow","R2","Related",36,27,"Study","Related","R2",1854,"",NA
"56cb314508d7300005fd312a",65,1,"Global A","Goat","Goat","R2","Related",30,28,"Study","Related","R2",2326,"",NA
"56cb314508d7300005fd312a",66,1,"Global A","Lion","Lion","R2","Related",26,32,"Study","Related","R2",1986,"",NA
"56cb314508d7300005fd312a",67,1,"Global A","Elephant","Elephant","R2","Related",32,36,"Study","Related","R2",2000,"",NA
"56cb314508d7300005fd312a",68,1,"Global A","Cat","Cat","R2","Related",33,29,"Study","Related","R2",1645,"",NA
"56cb314508d7300005fd312a",69,1,"Global A","Donkey","Donkey","R2","Related",34,35,"Study","Related","R2",2094,"",NA
"56cb314508d7300005fd312a",70,1,"Global A","Cheetah","Cheetah","R2","Related",28,37,"Study","Related","R2",1968,"",NA
"56cb314508d7300005fd312a",71,1,"Global A","Bear","Bear","R2","Related",35,26,"Study","Related","R2",2009,"",NA
"56cb314508d7300005fd312a",72,1,"Global A","Girraffe","Girraffe","R2","Related",31,30,"Study","Related","R2",2075,"",NA
"56cb314508d7300005fd312a",74,1,"Global A","","","","",NA,0,"JOL_GLOBAL","Related","JOL3",5004,"",60
"56cb314508d7300005fd312a",78,1,"Global A","","","","",NA,0,"FreeRecall","Related","RECALL_Test4",65005,"Zebra, Giraffe, Donkey, Cheetah, Elephant, Car,Lion. Tiger",NA
"576d8e821a48240001867c54",4,4,"Global D","Banana","Banana","R1","Related",3,4,"Study","Related","R1",3317,"",NA
"576d8e821a48240001867c54",5,4,"Global D","Grape","Grape","R1","Related",4,7,"Study","Related","R1",1883,"",NA
"576d8e821a48240001867c54",6,4,"Global D","Strawberry","Strawberry","R1","Related",7,2,"Study","Related","R1",2536,"",NA
"576d8e821a48240001867c54",7,4,"Global D","Kiwi","Kiwi","R1","Related",8,12,"Study","Related","R1",2252,"",NA
"576d8e821a48240001867c54",8,4,"Global D","Mango","Mango","R1","Related",10,11,"Study","Related","R1",1664,"",NA
"576d8e821a48240001867c54",9,4,"Global D","Peach","Peach","R1","Related",6,5,"Study","Related","R1",2692,"",NA
"576d8e821a48240001867c54",10,4,"Global D","Pear","Pear","R1","Related",5,10,"Study","Related","R1",2351,"",NA
"576d8e821a48240001867c54",11,4,"Global D","Orange","Orange","R1","Related",2,6,"Study","Related","R1",2333,"",NA
"576d8e821a48240001867c54",12,4,"Global D","Cherry","Cherry","R1","Related",11,3,"Study","Related","R1",1963,"",NA
"576d8e821a48240001867c54",13,4,"Global D","Plum","Plum","R1","Related",9,8,"Study","Related","R1",1679,"",NA
"576d8e821a48240001867c54",14,4,"Global D","Apple","Apple","R1","Related",1,13,"Study","Related","R1",1967,"",NA
"576d8e821a48240001867c54",15,4,"Global D","Lemon","Lemon","R1","Related",12,9,"Study","Related","R1",1887,"",NA
"576d8e821a48240001867c54",17,4,"Global D","","","","",NA,0,"JOL_GLOBAL","Related","JOL1",6002,"",80
"576d8e821a48240001867c54",21,4,"Global D","","","","",NA,0,"FreeRecall","Related","RECALL_Test1",65001,"mango peach apple pear kiwi banana grape plum ",NA
"576d8e821a48240001867c54",23,4,"Global D","Mint","Mint","U1","Unrelated",17,22,"Study","Unrelated","U1",2304,"",NA
"576d8e821a48240001867c54",24,4,"Global D","Kayak","Kayak","U1","Unrelated",20,15,"Study","Unrelated","U1",2132,"",NA
"576d8e821a48240001867c54",25,4,"Global D","Hawk","Hawk","U1","Unrelated",24,14,"Study","Unrelated","U1",1545,"",NA
"576d8e821a48240001867c54",26,4,"Global D","Shirt","Shirt","U1","Unrelated",18,21,"Study","Unrelated","U1",1422,"",NA
"576d8e821a48240001867c54",27,4,"Global D","Bean","Bean","U1","Unrelated",22,25,"Study","Unrelated","U1",2127,"",NA
"576d8e821a48240001867c54",28,4,"Global D","Flea","Flea","U1","Unrelated",21,23,"Study","Unrelated","U1",1963,"",NA
"576d8e821a48240001867c54",29,4,"Global D","Document","Document","U1","Unrelated",15,18,"Study","Unrelated","U1",1702,"",NA
"576d8e821a48240001867c54",30,4,"Global D","Dirt","Dirt","U1","Unrelated",16,17,"Study","Unrelated","U1",1785,"",NA
"576d8e821a48240001867c54",31,4,"Global D","Yellow","Yellow","U1","Unrelated",19,24,"Study","Unrelated","U1",1760,"",NA
"576d8e821a48240001867c54",32,4,"Global D","Bed","Bed","U1","Unrelated",14,19,"Study","Unrelated","U1",1746,"",NA
"576d8e821a48240001867c54",33,4,"Global D","Slow","Slow","U1","Unrelated",23,16,"Study","Unrelated","U1",1968,"",NA
"576d8e821a48240001867c54",34,4,"Global D","Frog","Frog","U1","Unrelated",13,20,"Study","Unrelated","U1",1867,"",NA
"576d8e821a48240001867c54",36,4,"Global D","","","","",NA,0,"JOL_GLOBAL","Unrelated","JOL2",6001,"",50
"576d8e821a48240001867c54",40,4,"Global D","","","","",NA,0,"FreeRecall","Unrelated","RECALL_Test2",65006,"mint met kayak hawk let dirt ",NA
"576d8e821a48240001867c54",42,4,"Global D","Basement","Basement","R2","Related",26,36,"Study","Related","R2",2753,"",NA
"576d8e821a48240001867c54",43,4,"Global D","Wall","Wall","R2","Related",29,32,"Study","Related","R2",1780,"",NA
"576d8e821a48240001867c54",44,4,"Global D","Elevator","Elevator","R2","Related",33,30,"Study","Related","R2",1372,"",NA
"576d8e821a48240001867c54",45,4,"Global D","Attic","Attic","R2","Related",34,35,"Study","Related","R2",2425,"",NA
"576d8e821a48240001867c54",46,4,"Global D","Ceiling","Ceiling","R2","Related",25,27,"Study","Related","R2",2027,"",NA
"576d8e821a48240001867c54",47,4,"Global D","Hallway","Hallway","R2","Related",35,26,"Study","Related","R2",1675,"",NA
"576d8e821a48240001867c54",48,4,"Global D","Window","Window","R2","Related",28,33,"Study","Related","R2",1776,"",NA
"576d8e821a48240001867c54",49,4,"Global D","Roof","Roof","R2","Related",36,34,"Study","Related","R2",2493,"",NA
"576d8e821a48240001867c54",50,4,"Global D","Door","Door","R2","Related",30,28,"Study","Related","R2",1327,"",NA
"576d8e821a48240001867c54",51,4,"Global D","Stairs","Stairs","R2","Related",32,29,"Study","Related","R2",2051,"",NA
"576d8e821a48240001867c54",52,4,"Global D","Bathroom","Bathroom","R2","Related",27,37,"Study","Related","R2",1814,"",NA
"576d8e821a48240001867c54",53,4,"Global D","Floor","Floor","R2","Related",31,31,"Study","Related","R2",1743,"",NA
"576d8e821a48240001867c54",55,4,"Global D","","","","",NA,0,"JOL_GLOBAL","Related","JOL3",6001,"",80
"576d8e821a48240001867c54",59,4,"Global D","","","","",NA,0,"FreeRecall","Related","RECALL_Test3",65002,"bathroom hallway attic roof wall door window floor ceiling elevator ",NA
"576d8e821a48240001867c54",61,4,"Global D","Phone","Phone","U2","Unrelated",47,49,"Study","Unrelated","U2",2706,"",NA
"576d8e821a48240001867c54",62,4,"Global D","Mother","Mother","U2","Unrelated",44,47,"Study","Unrelated","U2",1814,"",NA
"576d8e821a48240001867c54",63,4,"Global D","Card","Card","U2","Unrelated",37,42,"Study","Unrelated","U2",2054,"",NA
"576d8e821a48240001867c54",64,4,"Global D","Tent","Tent","U2","Unrelated",46,48,"Study","Unrelated","U2",2420,"",NA
"576d8e821a48240001867c54",65,4,"Global D","Flute","Flute","U2","Unrelated",38,41,"Study","Unrelated","U2",1802,"",NA
"576d8e821a48240001867c54",66,4,"Global D","Cloud","Cloud","U2","Unrelated",40,38,"Study","Unrelated","U2",1457,"",NA
"576d8e821a48240001867c54",67,4,"Global D","Basket","Basket","U2","Unrelated",41,46,"Study","Unrelated","U2",2324,"",NA
"576d8e821a48240001867c54",68,4,"Global D","Salt","Salt","U2","Unrelated",39,44,"Study","Unrelated","U2",1815,"",NA
"576d8e821a48240001867c54",69,4,"Global D","Cook","Cook","U2","Unrelated",42,43,"Study","Unrelated","U2",2000,"",NA
"576d8e821a48240001867c54",70,4,"Global D","Fossil","Fossil","U2","Unrelated",43,45,"Study","Unrelated","U2",1341,"",NA
"576d8e821a48240001867c54",71,4,"Global D","Rest","Rest","U2","Unrelated",48,40,"Study","Unrelated","U2",1509,"",NA
"576d8e821a48240001867c54",72,4,"Global D","Drill","Drill","U2","Unrelated",45,39,"Study","Unrelated","U2",1559,"",NA
"576d8e821a48240001867c54",74,4,"Global D","","","","",NA,0,"JOL_GLOBAL","Unrelated","JOL4",6008,"",80
"576d8e821a48240001867c54",78,4,"Global D","","","","",NA,0,"FreeRecall","Unrelated","RECALL_Test4",65002,"phone mother card cloud kettle basket fossil ",NA
"57db00fcb9fb6f0001dda512",4,1,"Global A","Parrot","Parrot","U1","Unrelated",21,21,"Study","Unrelated","U1",2575,"",NA
"57db00fcb9fb6f0001dda512",5,1,"Global A","Ballet","Ballet","U1","Unrelated",24,23,"Study","Unrelated","U1",2000,"",NA
"57db00fcb9fb6f0001dda512",6,1,"Global A","Milk","Milk","U1","Unrelated",22,14,"Study","Unrelated","U1",1873,"",NA
"57db00fcb9fb6f0001dda512",7,1,"Global A","Student","Student","U1","Unrelated",15,15,"Study","Unrelated","U1",2476,"",NA
"57db00fcb9fb6f0001dda512",8,1,"Global A","Rifle","Rifle","U1","Unrelated",13,18,"Study","Unrelated","U1",2460,"",NA
"57db00fcb9fb6f0001dda512",9,1,"Global A","Mayor","Mayor","U1","Unrelated",14,25,"Study","Unrelated","U1",2149,"",NA
"57db00fcb9fb6f0001dda512",10,1,"Global A","Guitar","Guitar","U1","Unrelated",19,22,"Study","Unrelated","U1",2583,"",NA
"57db00fcb9fb6f0001dda512",11,1,"Global A","Pants","Pants","U1","Unrelated",17,19,"Study","Unrelated","U1",2419,"",NA
"57db00fcb9fb6f0001dda512",12,1,"Global A","Jeep","Jeep","U1","Unrelated",23,16,"Study","Unrelated","U1",2477,"",NA
"57db00fcb9fb6f0001dda512",13,1,"Global A","Oxygen","Oxygen","U1","Unrelated",18,17,"Study","Unrelated","U1",5731,"",NA
"57db00fcb9fb6f0001dda512",14,1,"Global A","Dollar","Dollar","U1","Unrelated",20,20,"Study","Unrelated","U1",2735,"",NA
"57db00fcb9fb6f0001dda512",15,1,"Global A","Hockey","Hockey","U1","Unrelated",16,24,"Study","Unrelated","U1",2871,"",NA
"57db00fcb9fb6f0001dda512",17,1,"Global A","","","","",NA,0,"JOL_GLOBAL","Unrelated","JOL2",6004,"",40
"57db00fcb9fb6f0001dda512",21,1,"Global A","","","","",NA,0,"FreeRecall","Unrelated","RECALL_Test1",65003,"rifle pants student parrot knife ",NA
"57db00fcb9fb6f0001dda512",23,1,"Global A","Island","Island","R1","Related",9,12,"Study","Related","R1",2618,"",NA
"57db00fcb9fb6f0001dda512",24,1,"Global A","Valley","Valley","R1","Related",1,11,"Study","Related","R1",1817,"",NA
"57db00fcb9fb6f0001dda512",25,1,"Global A","Ocean","Ocean","R1","Related",8,10,"Study","Related","R1",2617,"",NA
"57db00fcb9fb6f0001dda512",26,1,"Global A","Hill","Hill","R1","Related",6,3,"Study","Related","R1",3645,"",NA
"57db00fcb9fb6f0001dda512",27,1,"Global A","Canyon","Canyon","R1","Related",3,6,"Study","Related","R1",3093,"",NA
"57db00fcb9fb6f0001dda512",28,1,"Global A","Glacier","Glacier","R1","Related",12,9,"Study","Related","R1",2062,"",NA
"57db00fcb9fb6f0001dda512",29,1,"Global A","Volcano","Volcano","R1","Related",4,13,"Study","Related","R1",2474,"",NA
"57db00fcb9fb6f0001dda512",30,1,"Global A","Lake","Lake","R1","Related",10,8,"Study","Related","R1",1631,"",NA
"57db00fcb9fb6f0001dda512",31,1,"Global A","Rock","Rock","R1","Related",5,4,"Study","Related","R1",1724,"",NA
"57db00fcb9fb6f0001dda512",32,1,"Global A","River","River","R1","Related",2,2,"Study","Related","R1",1888,"",NA
"57db00fcb9fb6f0001dda512",33,1,"Global A","Cave","Cave","R1","Related",11,5,"Study","Related","R1",1916,"",NA
"57db00fcb9fb6f0001dda512",34,1,"Global A","Mountain","Mountain","R1","Related",7,7,"Study","Related","R1",1845,"",NA
"57db00fcb9fb6f0001dda512",36,1,"Global A","","","","",NA,0,"JOL_GLOBAL","Related","JOL1",6005,"",30
"57db00fcb9fb6f0001dda512",40,1,"Global A","","","","",NA,0,"FreeRecall","Related","RECALL_Test2",65004,"glacier volcano lake mountain river hill forest canyon rock ",NA
"57db00fcb9fb6f0001dda512",42,1,"Global A","Cold","Cold","U2","Unrelated",40,44,"Study","Unrelated","U2",1645,"",NA
"57db00fcb9fb6f0001dda512",43,1,"Global A","Cruise","Cruise","U2","Unrelated",42,42,"Study","Unrelated","U2",1697,"",NA
"57db00fcb9fb6f0001dda512",44,1,"Global A","Fly","Fly","U2","Unrelated",38,49,"Study","Unrelated","U2",1937,"",NA
"57db00fcb9fb6f0001dda512",45,1,"Global A","Sandal","Sandal","U2","Unrelated",37,48,"Study","Unrelated","U2",1763,"",NA
"57db00fcb9fb6f0001dda512",46,1,"Global A","Tulip","Tulip","U2","Unrelated",39,39,"Study","Unrelated","U2",3398,"",NA
"57db00fcb9fb6f0001dda512",47,1,"Global A","Eye","Eye","U2","Unrelated",48,38,"Study","Unrelated","U2",1731,"",NA
"57db00fcb9fb6f0001dda512",48,1,"Global A","Shark","Shark","U2","Unrelated",43,43,"Study","Unrelated","U2",2027,"",NA
"57db00fcb9fb6f0001dda512",49,1,"Global A","Tea","Tea","U2","Unrelated",45,40,"Study","Unrelated","U2",4079,"",NA
"57db00fcb9fb6f0001dda512",50,1,"Global A","Viper","Viper","U2","Unrelated",44,46,"Study","Unrelated","U2",1903,"",NA
"57db00fcb9fb6f0001dda512",51,1,"Global A","Lipstick","Lipstick","U2","Unrelated",46,45,"Study","Unrelated","U2",2045,"",NA
"57db00fcb9fb6f0001dda512",52,1,"Global A","Computer","Computer","U2","Unrelated",47,47,"Study","Unrelated","U2",2282,"",NA
"57db00fcb9fb6f0001dda512",53,1,"Global A","Blue","Blue","U2","Unrelated",41,41,"Study","Unrelated","U2",1611,"",NA
"57db00fcb9fb6f0001dda512",55,1,"Global A","","","","",NA,0,"JOL_GLOBAL","Unrelated","JOL4",6003,"",30
"57db00fcb9fb6f0001dda512",59,1,"Global A","","","","",NA,0,"FreeRecall","Unrelated","RECALL_Test3",65004,"lipstick rifle snake blue cold church river ",NA
"57db00fcb9fb6f0001dda512",61,1,"Global A","Wolf","Wolf","R2","Related",29,26,"Study","Related","R2",2532,"",NA
"57db00fcb9fb6f0001dda512",62,1,"Global A","Cow","Cow","R2","Related",36,27,"Study","Related","R2",2152,"",NA
"57db00fcb9fb6f0001dda512",63,1,"Global A","Donkey","Donkey","R2","Related",34,29,"Study","Related","R2",2189,"",NA
"57db00fcb9fb6f0001dda512",64,1,"Global A","Cat","Cat","R2","Related",33,33,"Study","Related","R2",1805,"",NA
"57db00fcb9fb6f0001dda512",65,1,"Global A","Tiger","Tiger","R2","Related",25,37,"Study","Related","R2",2614,"",NA
"57db00fcb9fb6f0001dda512",66,1,"Global A","Lion","Lion","R2","Related",26,30,"Study","Related","R2",1856,"",NA
"57db00fcb9fb6f0001dda512",67,1,"Global A","Goat","Goat","R2","Related",30,34,"Study","Related","R2",3316,"",NA
"57db00fcb9fb6f0001dda512",68,1,"Global A","Girraffe","Girraffe","R2","Related",31,35,"Study","Related","R2",3072,"",NA
"57db00fcb9fb6f0001dda512",69,1,"Global A","Zebra","Zebra","R2","Related",27,28,"Study","Related","R2",2213,"",NA
"57db00fcb9fb6f0001dda512",70,1,"Global A","Cheetah","Cheetah","R2","Related",28,36,"Study","Related","R2",2949,"",NA
"57db00fcb9fb6f0001dda512",71,1,"Global A","Elephant","Elephant","R2","Related",32,32,"Study","Related","R2",2910,"",NA
"57db00fcb9fb6f0001dda512",72,1,"Global A","Bear","Bear","R2","Related",35,31,"Study","Related","R2",1745,"",NA
"57db00fcb9fb6f0001dda512",74,1,"Global A","","","","",NA,0,"JOL_GLOBAL","Related","JOL3",5006,"",50
"57db00fcb9fb6f0001dda512",78,1,"Global A","","","","",NA,0,"FreeRecall","Related","RECALL_Test4",65007,"tiger cheetah wolf elephant giraffe donkey cow dog cat",NA
"58c8497430c4cf0001ce9caf",4,1,"Global A","Oxygen","Oxygen","U1","Unrelated",18,19,"Study","Unrelated","U1",2464,"",NA
"58c8497430c4cf0001ce9caf",5,1,"Global A","Mayor","Mayor","U1","Unrelated",14,15,"Study","Unrelated","U1",2062,"",NA
"58c8497430c4cf0001ce9caf",6,1,"Global A","Pants","Pants","U1","Unrelated",17,21,"Study","Unrelated","U1",1384,"",NA
"58c8497430c4cf0001ce9caf",7,1,"Global A","Milk","Milk","U1","Unrelated",22,14,"Study","Unrelated","U1",1692,"",NA
"58c8497430c4cf0001ce9caf",8,1,"Global A","Hockey","Hockey","U1","Unrelated",16,22,"Study","Unrelated","U1",1624,"",NA
"58c8497430c4cf0001ce9caf",9,1,"Global A","Jeep","Jeep","U1","Unrelated",23,17,"Study","Unrelated","U1",1618,"",NA
"58c8497430c4cf0001ce9caf",10,1,"Global A","Dollar","Dollar","U1","Unrelated",20,16,"Study","Unrelated","U1",1444,"",NA
"58c8497430c4cf0001ce9caf",11,1,"Global A","Student","Student","U1","Unrelated",15,25,"Study","Unrelated","U1",1398,"",NA
"58c8497430c4cf0001ce9caf",12,1,"Global A","Ballet","Ballet","U1","Unrelated",24,23,"Study","Unrelated","U1",1545,"",NA
"58c8497430c4cf0001ce9caf",13,1,"Global A","Rifle","Rifle","U1","Unrelated",13,18,"Study","Unrelated","U1",1384,"",NA
"58c8497430c4cf0001ce9caf",14,1,"Global A","Parrot","Parrot","U1","Unrelated",21,20,"Study","Unrelated","U1",1815,"",NA
"58c8497430c4cf0001ce9caf",15,1,"Global A","Guitar","Guitar","U1","Unrelated",19,24,"Study","Unrelated","U1",1519,"",NA
"58c8497430c4cf0001ce9caf",17,1,"Global A","","","","",NA,0,"JOL_GLOBAL","Unrelated","JOL2",6002,"",8
"58c8497430c4cf0001ce9caf",21,1,"Global A","","","","",NA,0,"FreeRecall","Unrelated","RECALL_Test1",65001,"mayor ballet rifle milk ",NA
"58c8497430c4cf0001ce9caf",23,1,"Global A","Mountain","Mountain","R1","Related",7,10,"Study","Related","R1",3249,"",NA
"58c8497430c4cf0001ce9caf",24,1,"Global A","Lake","Lake","R1","Related",10,13,"Study","Related","R1",2325,"",NA
"58c8497430c4cf0001ce9caf",25,1,"Global A","Island","Island","R1","Related",9,2,"Study","Related","R1",1779,"",NA
"58c8497430c4cf0001ce9caf",26,1,"Global A","Glacier","Glacier","R1","Related",12,4,"Study","Related","R1",1180,"",NA
"58c8497430c4cf0001ce9caf",27,1,"Global A","Rock","Rock","R1","Related",5,3,"Study","Related","R1",1447,"",NA
"58c8497430c4cf0001ce9caf",28,1,"Global A","Canyon","Canyon","R1","Related",3,9,"Study","Related","R1",3458,"",NA
"58c8497430c4cf0001ce9caf",29,1,"Global A","Hill","Hill","R1","Related",6,12,"Study","Related","R1",1856,"",NA
"58c8497430c4cf0001ce9caf",30,1,"Global A","Volcano","Volcano","R1","Related",4,8,"Study","Related","R1",1748,"",NA
"58c8497430c4cf0001ce9caf",31,1,"Global A","Valley","Valley","R1","Related",1,6,"Study","Related","R1",1539,"",NA
"58c8497430c4cf0001ce9caf",32,1,"Global A","Ocean","Ocean","R1","Related",8,5,"Study","Related","R1",1383,"",NA
"58c8497430c4cf0001ce9caf",33,1,"Global A","Cave","Cave","R1","Related",11,11,"Study","Related","R1",1364,"",NA
"58c8497430c4cf0001ce9caf",34,1,"Global A","River","River","R1","Related",2,7,"Study","Related","R1",1101,"",NA
"58c8497430c4cf0001ce9caf",36,1,"Global A","","","","",NA,0,"JOL_GLOBAL","Related","JOL1",6001,"",60
"58c8497430c4cf0001ce9caf",40,1,"Global A","","","","",NA,0,"FreeRecall","Related","RECALL_Test2",65001,"glacier river lake valley island hill mountain volcano ",NA
"58c8497430c4cf0001ce9caf",42,1,"Global A","Sandal","Sandal","U2","Unrelated",37,38,"Study","Unrelated","U2",1383,"",NA
"58c8497430c4cf0001ce9caf",43,1,"Global A","Viper","Viper","U2","Unrelated",44,48,"Study","Unrelated","U2",1608,"",NA
"58c8497430c4cf0001ce9caf",44,1,"Global A","Cold","Cold","U2","Unrelated",40,47,"Study","Unrelated","U2",2496,"",NA
"58c8497430c4cf0001ce9caf",45,1,"Global A","Fly","Fly","U2","Unrelated",38,46,"Study","Unrelated","U2",2022,"",NA
"58c8497430c4cf0001ce9caf",46,1,"Global A","Shark","Shark","U2","Unrelated",43,45,"Study","Unrelated","U2",1190,"",NA
"58c8497430c4cf0001ce9caf",47,1,"Global A","Blue","Blue","U2","Unrelated",41,49,"Study","Unrelated","U2",1394,"",NA
"58c8497430c4cf0001ce9caf",48,1,"Global A","Lipstick","Lipstick","U2","Unrelated",46,44,"Study","Unrelated","U2",1122,"",NA
"58c8497430c4cf0001ce9caf",49,1,"Global A","Tulip","Tulip","U2","Unrelated",39,40,"Study","Unrelated","U2",1164,"",NA
"58c8497430c4cf0001ce9caf",50,1,"Global A","Eye","Eye","U2","Unrelated",48,41,"Study","Unrelated","U2",1382,"",NA
"58c8497430c4cf0001ce9caf",51,1,"Global A","Computer","Computer","U2","Unrelated",47,43,"Study","Unrelated","U2",1113,"",NA
"58c8497430c4cf0001ce9caf",52,1,"Global A","Tea","Tea","U2","Unrelated",45,39,"Study","Unrelated","U2",1076,"",NA
"58c8497430c4cf0001ce9caf",53,1,"Global A","Cruise","Cruise","U2","Unrelated",42,42,"Study","Unrelated","U2",1049,"",NA
"58c8497430c4cf0001ce9caf",55,1,"Global A","","","","",NA,0,"JOL_GLOBAL","Unrelated","JOL4",6001,"",50
"58c8497430c4cf0001ce9caf",59,1,"Global A","","","","",NA,0,"FreeRecall","Unrelated","RECALL_Test3",65001,"sandal lipstick ",NA
"58c8497430c4cf0001ce9caf",61,1,"Global A","Girraffe","Girraffe","R2","Related",31,35,"Study","Related","R2",3085,"",NA
"58c8497430c4cf0001ce9caf",62,1,"Global A","Cow","Cow","R2","Related",36,30,"Study","Related","R2",1517,"",NA
"58c8497430c4cf0001ce9caf",63,1,"Global A","Bear","Bear","R2","Related",35,36,"Study","Related","R2",1302,"",NA
"58c8497430c4cf0001ce9caf",64,1,"Global A","Cheetah","Cheetah","R2","Related",28,27,"Study","Related","R2",1196,"",NA
"58c8497430c4cf0001ce9caf",65,1,"Global A","Lion","Lion","R2","Related",26,31,"Study","Related","R2",1443,"",NA
"58c8497430c4cf0001ce9caf",66,1,"Global A","Cat","Cat","R2","Related",33,28,"Study","Related","R2",1008,"",NA
"58c8497430c4cf0001ce9caf",67,1,"Global A","Tiger","Tiger","R2","Related",25,32,"Study","Related","R2",1492,"",NA
"58c8497430c4cf0001ce9caf",68,1,"Global A","Elephant","Elephant","R2","Related",32,26,"Study","Related","R2",1547,"",NA
"58c8497430c4cf0001ce9caf",69,1,"Global A","Donkey","Donkey","R2","Related",34,34,"Study","Related","R2",1452,"",NA
"58c8497430c4cf0001ce9caf",70,1,"Global A","Wolf","Wolf","R2","Related",29,33,"Study","Related","R2",1197,"",NA
"58c8497430c4cf0001ce9caf",71,1,"Global A","Goat","Goat","R2","Related",30,37,"Study","Related","R2",1515,"",NA
"58c8497430c4cf0001ce9caf",72,1,"Global A","Zebra","Zebra","R2","Related",27,29,"Study","Related","R2",1387,"",NA
"58c8497430c4cf0001ce9caf",74,1,"Global A","","","","",NA,0,"JOL_GLOBAL","Related","JOL3",5000,"",50
"58c8497430c4cf0001ce9caf",78,1,"Global A","","","","",NA,0,"FreeRecall","Related","RECALL_Test4",65001,"lion tiger jiraff elephant cheetah ",NA
"5a993b151eda410001365a23",4,2,"Global B","Slow","Slow","U1","Unrelated",23,22,"Study","Unrelated","U1",5507,"",NA
"5a993b151eda410001365a23",5,2,"Global B","Flea","Flea","U1","Unrelated",21,20,"Study","Unrelated","U1",3690,"",NA
"5a993b151eda410001365a23",6,2,"Global B","Frog","Frog","U1","Unrelated",13,17,"Study","Unrelated","U1",3208,"",NA
"5a993b151eda410001365a23",7,2,"Global B","Dirt","Dirt","U1","Unrelated",16,16,"Study","Unrelated","U1",3823,"",NA
"5a993b151eda410001365a23",8,2,"Global B","Bed","Bed","U1","Unrelated",14,25,"Study","Unrelated","U1",3959,"",NA
"5a993b151eda410001365a23",9,2,"Global B","Kayak","Kayak","U1","Unrelated",20,14,"Study","Unrelated","U1",5172,"",NA
"5a993b151eda410001365a23",10,2,"Global B","Document","Document","U1","Unrelated",15,21,"Study","Unrelated","U1",3015,"",NA
"5a993b151eda410001365a23",11,2,"Global B","Mint","Mint","U1","Unrelated",17,19,"Study","Unrelated","U1",3796,"",NA
"5a993b151eda410001365a23",12,2,"Global B","Bean","Bean","U1","Unrelated",22,15,"Study","Unrelated","U1",2884,"",NA
"5a993b151eda410001365a23",13,2,"Global B","Yellow","Yellow","U1","Unrelated",19,24,"Study","Unrelated","U1",6653,"",NA
"5a993b151eda410001365a23",14,2,"Global B","Shirt","Shirt","U1","Unrelated",18,23,"Study","Unrelated","U1",4191,"",NA
"5a993b151eda410001365a23",15,2,"Global B","Hawk","Hawk","U1","Unrelated",24,18,"Study","Unrelated","U1",4003,"",NA
"5a993b151eda410001365a23",17,2,"Global B","","","","",NA,0,"JOL_GLOBAL","Unrelated","JOL2",6004,"",NA
"5a993b151eda410001365a23",21,2,"Global B","","","","",NA,0,"FreeRecall","Unrelated","RECALL_Test1",65002,"frog flea yellow hawk kayak bed document ",NA
"5a993b151eda410001365a23",23,2,"Global B","Cherry","Cherry","R1","Related",11,8,"Study","Related","R1",2731,"",NA
"5a993b151eda410001365a23",24,2,"Global B","Peach","Peach","R1","Related",6,6,"Study","Related","R1",3362,"",NA
"5a993b151eda410001365a23",25,2,"Global B","Strawberry","Strawberry","R1","Related",7,10,"Study","Related","R1",4040,"",NA
"5a993b151eda410001365a23",26,2,"Global B","Apple","Apple","R1","Related",1,2,"Study","Related","R1",4408,"",NA
"5a993b151eda410001365a23",27,2,"Global B","Banana","Banana","R1","Related",3,3,"Study","Related","R1",4284,"",NA
"5a993b151eda410001365a23",28,2,"Global B","Plum","Plum","R1","Related",9,4,"Study","Related","R1",2416,"",NA
"5a993b151eda410001365a23",29,2,"Global B","Grape","Grape","R1","Related",4,5,"Study","Related","R1",5715,"",NA
"5a993b151eda410001365a23",30,2,"Global B","Lemon","Lemon","R1","Related",12,7,"Study","Related","R1",1461,"",NA
"5a993b151eda410001365a23",31,2,"Global B","Mango","Mango","R1","Related",10,13,"Study","Related","R1",2576,"",NA
"5a993b151eda410001365a23",32,2,"Global B","Pear","Pear","R1","Related",5,12,"Study","Related","R1",3043,"",NA
"5a993b151eda410001365a23",33,2,"Global B","Orange","Orange","R1","Related",2,9,"Study","Related","R1",2129,"",NA
"5a993b151eda410001365a23",34,2,"Global B","Kiwi","Kiwi","R1","Related",8,11,"Study","Related","R1",1889,"",NA
"5a993b151eda410001365a23",36,2,"Global B","","","","",NA,0,"JOL_GLOBAL","Related","JOL1",6004,"",3
"5a993b151eda410001365a23",40,2,"Global B","","","","",NA,0,"FreeRecall","Related","RECALL_Test2",65007,"kiwi plum orange cherry peach apple strawberry mango banana ",NA
"5a993b151eda410001365a23",42,2,"Global B","Phone","Phone","U2","Unrelated",47,39,"Study","Unrelated","U2",1914,"",NA
"5a993b151eda410001365a23",43,2,"Global B","Cloud","Cloud","U2","Unrelated",40,42,"Study","Unrelated","U2",3796,"",NA
"5a993b151eda410001365a23",44,2,"Global B","Fossil","Fossil","U2","Unrelated",43,48,"Study","Unrelated","U2",5402,"",NA
"5a993b151eda410001365a23",45,2,"Global B","Basket","Basket","U2","Unrelated",41,43,"Study","Unrelated","U2",4798,"",NA
"5a993b151eda410001365a23",46,2,"Global B","Card","Card","U2","Unrelated",37,38,"Study","Unrelated","U2",3417,"",NA
"5a993b151eda410001365a23",47,2,"Global B","Tent","Tent","U2","Unrelated",46,41,"Study","Unrelated","U2",4851,"",NA
"5a993b151eda410001365a23",48,2,"Global B","Salt","Salt","U2","Unrelated",39,45,"Study","Unrelated","U2",4005,"",NA
"5a993b151eda410001365a23",49,2,"Global B","Cook","Cook","U2","Unrelated",42,44,"Study","Unrelated","U2",3760,"",NA
"5a993b151eda410001365a23",50,2,"Global B","Drill","Drill","U2","Unrelated",45,40,"Study","Unrelated","U2",5788,"",NA
"5a993b151eda410001365a23",51,2,"Global B","Flute","Flute","U2","Unrelated",38,46,"Study","Unrelated","U2",4276,"",NA
"5a993b151eda410001365a23",52,2,"Global B","Mother","Mother","U2","Unrelated",44,47,"Study","Unrelated","U2",2768,"",NA
"5a993b151eda410001365a23",53,2,"Global B","Rest","Rest","U2","Unrelated",48,49,"Study","Unrelated","U2",2393,"",NA
"5a993b151eda410001365a23",55,2,"Global B","","","","",NA,0,"JOL_GLOBAL","Unrelated","JOL4",6004,"",5
"5a993b151eda410001365a23",59,2,"Global B","","","","",NA,0,"FreeRecall","Unrelated","RECALL_Test3",65007,"phone cloud salt fossil tent mother flute rest bed basket drill ",NA
"5a993b151eda410001365a23",61,2,"Global B","Ceiling","Ceiling","R2","Related",25,31,"Study","Related","R2",10240,"",NA
"5a993b151eda410001365a23",62,2,"Global B","Bathroom","Bathroom","R2","Related",27,27,"Study","Related","R2",3356,"",NA
"5a993b151eda410001365a23",63,2,"Global B","Elevator","Elevator","R2","Related",33,37,"Study","Related","R2",2878,"",NA
"5a993b151eda410001365a23",64,2,"Global B","Attic","Attic","R2","Related",34,28,"Study","Related","R2",3456,"",NA
"5a993b151eda410001365a23",65,2,"Global B","Door","Door","R2","Related",30,30,"Study","Related","R2",3868,"",NA
"5a993b151eda410001365a23",66,2,"Global B","Floor","Floor","R2","Related",31,35,"Study","Related","R2",11646,"",NA
"5a993b151eda410001365a23",67,2,"Global B","Wall","Wall","R2","Related",29,34,"Study","Related","R2",2167,"",NA
"5a993b151eda410001365a23",68,2,"Global B","Stairs","Stairs","R2","Related",32,33,"Study","Related","R2",3179,"",NA
"5a993b151eda410001365a23",69,2,"Global B","Roof","Roof","R2","Related",36,36,"Study","Related","R2",2286,"",NA
"5a993b151eda410001365a23",70,2,"Global B","Basement","Basement","R2","Related",26,26,"Study","Related","R2",3075,"",NA
"5a993b151eda410001365a23",71,2,"Global B","Hallway","Hallway","R2","Related",35,29,"Study","Related","R2",3134,"",NA
"5a993b151eda410001365a23",72,2,"Global B","Window","Window","R2","Related",28,32,"Study","Related","R2",1716,"",NA
"5a993b151eda410001365a23",74,2,"Global B","","","","",NA,0,"JOL_GLOBAL","Related","JOL3",5003,"",4
"5a993b151eda410001365a23",78,2,"Global B","","","","",NA,0,"FreeRecall","Related","RECALL_Test4",65001,"bathroom ceiling door window elevator hallway stairs attic basement wall",NA
"5b14898a30d562000155f1e9",4,2,"Global B","Bean","Bean","U1","Unrelated",22,19,"Study","Unrelated","U1",1841,"",NA
"5b14898a30d562000155f1e9",5,2,"Global B","Yellow","Yellow","U1","Unrelated",19,20,"Study","Unrelated","U1",1367,"",NA
"5b14898a30d562000155f1e9",6,2,"Global B","Flea","Flea","U1","Unrelated",21,22,"Study","Unrelated","U1",1569,"",NA
"5b14898a30d562000155f1e9",7,2,"Global B","Dirt","Dirt","U1","Unrelated",16,25,"Study","Unrelated","U1",1347,"",NA
"5b14898a30d562000155f1e9",8,2,"Global B","Mint","Mint","U1","Unrelated",17,17,"Study","Unrelated","U1",1387,"",NA
"5b14898a30d562000155f1e9",9,2,"Global B","Kayak","Kayak","U1","Unrelated",20,18,"Study","Unrelated","U1",1409,"",NA
"5b14898a30d562000155f1e9",10,2,"Global B","Bed","Bed","U1","Unrelated",14,21,"Study","Unrelated","U1",1113,"",NA
"5b14898a30d562000155f1e9",11,2,"Global B","Slow","Slow","U1","Unrelated",23,24,"Study","Unrelated","U1",1241,"",NA
"5b14898a30d562000155f1e9",12,2,"Global B","Shirt","Shirt","U1","Unrelated",18,16,"Study","Unrelated","U1",1378,"",NA
"5b14898a30d562000155f1e9",13,2,"Global B","Document","Document","U1","Unrelated",15,23,"Study","Unrelated","U1",1531,"",NA
"5b14898a30d562000155f1e9",14,2,"Global B","Hawk","Hawk","U1","Unrelated",24,14,"Study","Unrelated","U1",1330,"",NA
"5b14898a30d562000155f1e9",15,2,"Global B","Frog","Frog","U1","Unrelated",13,15,"Study","Unrelated","U1",1739,"",NA
"5b14898a30d562000155f1e9",17,2,"Global B","","","","",NA,0,"JOL_GLOBAL","Unrelated","JOL2",6001,"",25
"5b14898a30d562000155f1e9",21,2,"Global B","","","","",NA,0,"FreeRecall","Unrelated","RECALL_Test1",65000,"Bean Document Kayak Will Dream ",NA
"5b14898a30d562000155f1e9",23,2,"Global B","Banana","Banana","R1","Related",3,5,"Study","Related","R1",2752,"",NA
"5b14898a30d562000155f1e9",24,2,"Global B","Plum","Plum","R1","Related",9,4,"Study","Related","R1",2069,"",NA
"5b14898a30d562000155f1e9",25,2,"Global B","Grape","Grape","R1","Related",4,6,"Study","Related","R1",2822,"",NA
"5b14898a30d562000155f1e9",26,2,"Global B","Cherry","Cherry","R1","Related",11,12,"Study","Related","R1",1528,"",NA
"5b14898a30d562000155f1e9",27,2,"Global B","Kiwi","Kiwi","R1","Related",8,8,"Study","Related","R1",1797,"",NA
"5b14898a30d562000155f1e9",28,2,"Global B","Mango","Mango","R1","Related",10,9,"Study","Related","R1",1728,"",NA
"5b14898a30d562000155f1e9",29,2,"Global B","Apple","Apple","R1","Related",1,3,"Study","Related","R1",1333,"",NA
"5b14898a30d562000155f1e9",30,2,"Global B","Orange","Orange","R1","Related",2,11,"Study","Related","R1",1286,"",NA
"5b14898a30d562000155f1e9",31,2,"Global B","Strawberry","Strawberry","R1","Related",7,2,"Study","Related","R1",1559,"",NA
"5b14898a30d562000155f1e9",32,2,"Global B","Pear","Pear","R1","Related",5,7,"Study","Related","R1",1359,"",NA
"5b14898a30d562000155f1e9",33,2,"Global B","Peach","Peach","R1","Related",6,13,"Study","Related","R1",1245,"",NA
"5b14898a30d562000155f1e9",34,2,"Global B","Lemon","Lemon","R1","Related",12,10,"Study","Related","R1",1348,"",NA
"5b14898a30d562000155f1e9",36,2,"Global B","","","","",NA,0,"JOL_GLOBAL","Related","JOL1",6002,"",45
"5b14898a30d562000155f1e9",40,2,"Global B","","","","",NA,0,"FreeRecall","Related","RECALL_Test2",65000,"Apple Grape Kiwi Cherry Lemon Orange Mango Melon Pear Peach Banana",NA
"5b14898a30d562000155f1e9",42,2,"Global B","Drill","Drill","U2","Unrelated",45,40,"Study","Unrelated","U2",28002,"",NA
"5b14898a30d562000155f1e9",43,2,"Global B","Basket","Basket","U2","Unrelated",41,45,"Study","Unrelated","U2",1372,"",NA
"5b14898a30d562000155f1e9",44,2,"Global B","Salt","Salt","U2","Unrelated",39,49,"Study","Unrelated","U2",1412,"",NA
"5b14898a30d562000155f1e9",45,2,"Global B","Mother","Mother","U2","Unrelated",44,44,"Study","Unrelated","U2",2172,"",NA
"5b14898a30d562000155f1e9",46,2,"Global B","Fossil","Fossil","U2","Unrelated",43,41,"Study","Unrelated","U2",1624,"",NA
"5b14898a30d562000155f1e9",47,2,"Global B","Cook","Cook","U2","Unrelated",42,39,"Study","Unrelated","U2",2312,"",NA
"5b14898a30d562000155f1e9",48,2,"Global B","Card","Card","U2","Unrelated",37,43,"Study","Unrelated","U2",1888,"",NA
"5b14898a30d562000155f1e9",49,2,"Global B","Cloud","Cloud","U2","Unrelated",40,46,"Study","Unrelated","U2",1734,"",NA
"5b14898a30d562000155f1e9",50,2,"Global B","Tent","Tent","U2","Unrelated",46,48,"Study","Unrelated","U2",2465,"",NA
"5b14898a30d562000155f1e9",51,2,"Global B","Rest","Rest","U2","Unrelated",48,42,"Study","Unrelated","U2",1831,"",NA
"5b14898a30d562000155f1e9",52,2,"Global B","Flute","Flute","U2","Unrelated",38,38,"Study","Unrelated","U2",1535,"",NA
"5b14898a30d562000155f1e9",53,2,"Global B","Phone","Phone","U2","Unrelated",47,47,"Study","Unrelated","U2",1512,"",NA
"5b14898a30d562000155f1e9",55,2,"Global B","","","","",NA,0,"JOL_GLOBAL","Unrelated","JOL4",6001,"",10
"5b14898a30d562000155f1e9",59,2,"Global B","","","","",NA,0,"FreeRecall","Unrelated","RECALL_Test3",65001,"Basket Drill Mother Phone Fossil ",NA
"5b14898a30d562000155f1e9",61,2,"Global B","Attic","Attic","R2","Related",34,28,"Study","Related","R2",1894,"",NA
"5b14898a30d562000155f1e9",62,2,"Global B","Door","Door","R2","Related",30,33,"Study","Related","R2",1327,"",NA
"5b14898a30d562000155f1e9",63,2,"Global B","Roof","Roof","R2","Related",36,26,"Study","Related","R2",1385,"",NA
"5b14898a30d562000155f1e9",64,2,"Global B","Elevator","Elevator","R2","Related",33,32,"Study","Related","R2",1309,"",NA
"5b14898a30d562000155f1e9",65,2,"Global B","Ceiling","Ceiling","R2","Related",25,29,"Study","Related","R2",1387,"",NA
"5b14898a30d562000155f1e9",66,2,"Global B","Bathroom","Bathroom","R2","Related",27,34,"Study","Related","R2",1304,"",NA
"5b14898a30d562000155f1e9",67,2,"Global B","Window","Window","R2","Related",28,30,"Study","Related","R2",3732,"",NA
"5b14898a30d562000155f1e9",68,2,"Global B","Basement","Basement","R2","Related",26,35,"Study","Related","R2",10457,"",NA
"5b14898a30d562000155f1e9",69,2,"Global B","Hallway","Hallway","R2","Related",35,27,"Study","Related","R2",1349,"",NA
"5b14898a30d562000155f1e9",70,2,"Global B","Stairs","Stairs","R2","Related",32,31,"Study","Related","R2",2246,"",NA
"5b14898a30d562000155f1e9",71,2,"Global B","Floor","Floor","R2","Related",31,36,"Study","Related","R2",1374,"",NA
"5b14898a30d562000155f1e9",72,2,"Global B","Wall","Wall","R2","Related",29,37,"Study","Related","R2",1309,"",NA
"5b14898a30d562000155f1e9",74,2,"Global B","","","","",NA,0,"JOL_GLOBAL","Related","JOL3",5000,"",30
"5b14898a30d562000155f1e9",78,2,"Global B","","","","",NA,0,"FreeRecall","Related","RECALL_Test4",65000,"Ceiling Window Wall Door Floor Roof Basement Attic Elevator Stairs ",NA
"5b4d41e13d01bd0001ec46c2",4,1,"Global A","Oxygen","Oxygen","U1","Unrelated",18,18,"Study","Unrelated","U1",1856,"",NA
"5b4d41e13d01bd0001ec46c2",5,1,"Global A","Guitar","Guitar","U1","Unrelated",19,20,"Study","Unrelated","U1",1728,"",NA
"5b4d41e13d01bd0001ec46c2",6,1,"Global A","Ballet","Ballet","U1","Unrelated",24,14,"Study","Unrelated","U1",1232,"",NA
"5b4d41e13d01bd0001ec46c2",7,1,"Global A","Pants","Pants","U1","Unrelated",17,16,"Study","Unrelated","U1",1744,"",NA
"5b4d41e13d01bd0001ec46c2",8,1,"Global A","Dollar","Dollar","U1","Unrelated",20,22,"Study","Unrelated","U1",1641,"",NA
"5b4d41e13d01bd0001ec46c2",9,1,"Global A","Milk","Milk","U1","Unrelated",22,24,"Study","Unrelated","U1",1490,"",NA
"5b4d41e13d01bd0001ec46c2",10,1,"Global A","Student","Student","U1","Unrelated",15,21,"Study","Unrelated","U1",1602,"",NA
"5b4d41e13d01bd0001ec46c2",11,1,"Global A","Jeep","Jeep","U1","Unrelated",23,19,"Study","Unrelated","U1",1597,"",NA
"5b4d41e13d01bd0001ec46c2",12,1,"Global A","Parrot","Parrot","U1","Unrelated",21,15,"Study","Unrelated","U1",1469,"",NA
"5b4d41e13d01bd0001ec46c2",13,1,"Global A","Mayor","Mayor","U1","Unrelated",14,17,"Study","Unrelated","U1",1485,"",NA
"5b4d41e13d01bd0001ec46c2",14,1,"Global A","Hockey","Hockey","U1","Unrelated",16,25,"Study","Unrelated","U1",2597,"",NA
"5b4d41e13d01bd0001ec46c2",15,1,"Global A","Rifle","Rifle","U1","Unrelated",13,23,"Study","Unrelated","U1",2679,"",NA
"5b4d41e13d01bd0001ec46c2",17,1,"Global A","","","","",NA,0,"JOL_GLOBAL","Unrelated","JOL2",6002,"",NA
"5b4d41e13d01bd0001ec46c2",21,1,"Global A","","","","",NA,0,"FreeRecall","Unrelated","RECALL_Test1",65004,"Jeep ",NA
"5b4d41e13d01bd0001ec46c2",23,1,"Global A","Volcano","Volcano","R1","Related",4,11,"Study","Related","R1",5233,"",NA
"5b4d41e13d01bd0001ec46c2",24,1,"Global A","River","River","R1","Related",2,3,"Study","Related","R1",2625,"",NA
"5b4d41e13d01bd0001ec46c2",25,1,"Global A","Glacier","Glacier","R1","Related",12,7,"Study","Related","R1",2698,"",NA
"5b4d41e13d01bd0001ec46c2",26,1,"Global A","Island","Island","R1","Related",9,10,"Study","Related","R1",2716,"",NA
"5b4d41e13d01bd0001ec46c2",27,1,"Global A","Canyon","Canyon","R1","Related",3,4,"Study","Related","R1",3440,"",NA
"5b4d41e13d01bd0001ec46c2",28,1,"Global A","Mountain","Mountain","R1","Related",7,2,"Study","Related","R1",2951,"",NA
"5b4d41e13d01bd0001ec46c2",29,1,"Global A","Ocean","Ocean","R1","Related",8,8,"Study","Related","R1",2199,"",NA
"5b4d41e13d01bd0001ec46c2",30,1,"Global A","Rock","Rock","R1","Related",5,12,"Study","Related","R1",2353,"",NA
"5b4d41e13d01bd0001ec46c2",31,1,"Global A","Hill","Hill","R1","Related",6,9,"Study","Related","R1",1789,"",NA
"5b4d41e13d01bd0001ec46c2",32,1,"Global A","Cave","Cave","R1","Related",11,5,"Study","Related","R1",2373,"",NA
"5b4d41e13d01bd0001ec46c2",33,1,"Global A","Valley","Valley","R1","Related",1,13,"Study","Related","R1",2280,"",NA
"5b4d41e13d01bd0001ec46c2",34,1,"Global A","Lake","Lake","R1","Related",10,6,"Study","Related","R1",4992,"",NA
"5b4d41e13d01bd0001ec46c2",36,1,"Global A","","","","",NA,0,"JOL_GLOBAL","Related","JOL1",6001,"",100
"5b4d41e13d01bd0001ec46c2",40,1,"Global A","","","","",NA,0,"FreeRecall","Related","RECALL_Test2",65001,"Lake Volcano River Valley Cave Hill Rock Mountain Island",NA
"5b4d41e13d01bd0001ec46c2",42,1,"Global A","Tulip","Tulip","U2","Unrelated",39,40,"Study","Unrelated","U2",5256,"",NA
"5b4d41e13d01bd0001ec46c2",43,1,"Global A","Sandal","Sandal","U2","Unrelated",37,39,"Study","Unrelated","U2",3445,"",NA
"5b4d41e13d01bd0001ec46c2",44,1,"Global A","Cruise","Cruise","U2","Unrelated",42,49,"Study","Unrelated","U2",9730,"",NA
"5b4d41e13d01bd0001ec46c2",45,1,"Global A","Blue","Blue","U2","Unrelated",41,38,"Study","Unrelated","U2",2340,"",NA
"5b4d41e13d01bd0001ec46c2",46,1,"Global A","Fly","Fly","U2","Unrelated",38,43,"Study","Unrelated","U2",2142,"",NA
"5b4d41e13d01bd0001ec46c2",47,1,"Global A","Viper","Viper","U2","Unrelated",44,41,"Study","Unrelated","U2",2224,"",NA
"5b4d41e13d01bd0001ec46c2",48,1,"Global A","Eye","Eye","U2","Unrelated",48,46,"Study","Unrelated","U2",2271,"",NA
"5b4d41e13d01bd0001ec46c2",49,1,"Global A","Cold","Cold","U2","Unrelated",40,44,"Study","Unrelated","U2",2109,"",NA
"5b4d41e13d01bd0001ec46c2",50,1,"Global A","Tea","Tea","U2","Unrelated",45,48,"Study","Unrelated","U2",2149,"",NA
"5b4d41e13d01bd0001ec46c2",51,1,"Global A","Computer","Computer","U2","Unrelated",47,42,"Study","Unrelated","U2",2054,"",NA
"5b4d41e13d01bd0001ec46c2",52,1,"Global A","Shark","Shark","U2","Unrelated",43,45,"Study","Unrelated","U2",2438,"",NA
"5b4d41e13d01bd0001ec46c2",53,1,"Global A","Lipstick","Lipstick","U2","Unrelated",46,47,"Study","Unrelated","U2",2324,"",NA
"5b4d41e13d01bd0001ec46c2",55,1,"Global A","","","","",NA,0,"JOL_GLOBAL","Unrelated","JOL4",6000,"",100
"5b4d41e13d01bd0001ec46c2",59,1,"Global A","","","","",NA,0,"FreeRecall","Unrelated","RECALL_Test3",65002,"Lake Tuilip Sandal Cruise Blue Fly Viper Cold Lipstick Shark Tea ",NA
"5b4d41e13d01bd0001ec46c2",61,1,"Global A","Donkey","Donkey","R2","Related",34,29,"Study","Related","R2",18281,"",NA
"5b4d41e13d01bd0001ec46c2",62,1,"Global A","Wolf","Wolf","R2","Related",29,33,"Study","Related","R2",3800,"",NA
"5b4d41e13d01bd0001ec46c2",63,1,"Global A","Bear","Bear","R2","Related",35,34,"Study","Related","R2",5391,"",NA
"5b4d41e13d01bd0001ec46c2",64,1,"Global A","Elephant","Elephant","R2","Related",32,36,"Study","Related","R2",2447,"",NA
"5b4d41e13d01bd0001ec46c2",65,1,"Global A","Lion","Lion","R2","Related",26,26,"Study","Related","R2",3002,"",NA
"5b4d41e13d01bd0001ec46c2",66,1,"Global A","Cow","Cow","R2","Related",36,27,"Study","Related","R2",2493,"",NA
"5b4d41e13d01bd0001ec46c2",67,1,"Global A","Cheetah","Cheetah","R2","Related",28,37,"Study","Related","R2",3098,"",NA
"5b4d41e13d01bd0001ec46c2",68,1,"Global A","Tiger","Tiger","R2","Related",25,28,"Study","Related","R2",4367,"",NA
"5b4d41e13d01bd0001ec46c2",69,1,"Global A","Girraffe","Girraffe","R2","Related",31,32,"Study","Related","R2",2763,"",NA
"5b4d41e13d01bd0001ec46c2",70,1,"Global A","Zebra","Zebra","R2","Related",27,31,"Study","Related","R2",2766,"",NA
"5b4d41e13d01bd0001ec46c2",71,1,"Global A","Cat","Cat","R2","Related",33,35,"Study","Related","R2",2453,"",NA
"5b4d41e13d01bd0001ec46c2",72,1,"Global A","Goat","Goat","R2","Related",30,30,"Study","Related","R2",2137,"",NA
"5b4d41e13d01bd0001ec46c2",74,1,"Global A","","","","",NA,0,"JOL_GLOBAL","Related","JOL3",5000,"",100
"5b4d41e13d01bd0001ec46c2",78,1,"Global A","","","","",NA,0,"FreeRecall","Related","RECALL_Test4",65000,"Cat Cow Goat Zebra Tiger Lion Bear Wolf Donkey Horse",NA
"5b99663d4cefb60001e7a214",4,3,"Global C","Valley","Valley","R1","Related",1,12,"Study","Related","R1",2152,"",NA
"5b99663d4cefb60001e7a214",5,3,"Global C","River","River","R1","Related",2,9,"Study","Related","R1",1701,"",NA
"5b99663d4cefb60001e7a214",6,3,"Global C","Cave","Cave","R1","Related",11,2,"Study","Related","R1",1853,"",NA
"5b99663d4cefb60001e7a214",7,3,"Global C","Lake","Lake","R1","Related",10,11,"Study","Related","R1",1402,"",NA
"5b99663d4cefb60001e7a214",8,3,"Global C","Canyon","Canyon","R1","Related",3,7,"Study","Related","R1",2374,"",NA
"5b99663d4cefb60001e7a214",9,3,"Global C","Ocean","Ocean","R1","Related",8,6,"Study","Related","R1",1219,"",NA
"5b99663d4cefb60001e7a214",10,3,"Global C","Rock","Rock","R1","Related",5,4,"Study","Related","R1",2019,"",NA
"5b99663d4cefb60001e7a214",11,3,"Global C","Mountain","Mountain","R1","Related",7,8,"Study","Related","R1",1880,"",NA
"5b99663d4cefb60001e7a214",12,3,"Global C","Island","Island","R1","Related",9,3,"Study","Related","R1",2184,"",NA
"5b99663d4cefb60001e7a214",13,3,"Global C","Glacier","Glacier","R1","Related",12,5,"Study","Related","R1",2212,"",NA
"5b99663d4cefb60001e7a214",14,3,"Global C","Volcano","Volcano","R1","Related",4,10,"Study","Related","R1",3069,"",NA
"5b99663d4cefb60001e7a214",15,3,"Global C","Hill","Hill","R1","Related",6,13,"Study","Related","R1",2603,"",NA
"5b99663d4cefb60001e7a214",17,3,"Global C","","","","",NA,0,"JOL_GLOBAL","Related","JOL1",6007,"",2
"5b99663d4cefb60001e7a214",21,3,"Global C","","","","",NA,0,"FreeRecall","Related","RECALL_Test1",65003,"ocean river canyon hill glacier volcano river lake cave rock mountain valley ",NA
"5b99663d4cefb60001e7a214",23,3,"Global C","Milk","Milk","U1","Unrelated",22,14,"Study","Unrelated","U1",2031,"",NA
"5b99663d4cefb60001e7a214",24,3,"Global C","Parrot","Parrot","U1","Unrelated",21,18,"Study","Unrelated","U1",2545,"",NA
"5b99663d4cefb60001e7a214",25,3,"Global C","Jeep","Jeep","U1","Unrelated",23,17,"Study","Unrelated","U1",2132,"",NA
"5b99663d4cefb60001e7a214",26,3,"Global C","Pants","Pants","U1","Unrelated",17,25,"Study","Unrelated","U1",1910,"",NA
"5b99663d4cefb60001e7a214",27,3,"Global C","Hockey","Hockey","U1","Unrelated",16,19,"Study","Unrelated","U1",1993,"",NA
"5b99663d4cefb60001e7a214",28,3,"Global C","Student","Student","U1","Unrelated",15,23,"Study","Unrelated","U1",3500,"",NA
"5b99663d4cefb60001e7a214",29,3,"Global C","Rifle","Rifle","U1","Unrelated",13,15,"Study","Unrelated","U1",2612,"",NA
"5b99663d4cefb60001e7a214",30,3,"Global C","Mayor","Mayor","U1","Unrelated",14,24,"Study","Unrelated","U1",2131,"",NA
"5b99663d4cefb60001e7a214",31,3,"Global C","Dollar","Dollar","U1","Unrelated",20,16,"Study","Unrelated","U1",2230,"",NA
"5b99663d4cefb60001e7a214",32,3,"Global C","Guitar","Guitar","U1","Unrelated",19,20,"Study","Unrelated","U1",1677,"",NA
"5b99663d4cefb60001e7a214",33,3,"Global C","Ballet","Ballet","U1","Unrelated",24,22,"Study","Unrelated","U1",1654,"",NA
"5b99663d4cefb60001e7a214",34,3,"Global C","Oxygen","Oxygen","U1","Unrelated",18,21,"Study","Unrelated","U1",1806,"",NA
"5b99663d4cefb60001e7a214",36,3,"Global C","","","","",NA,0,"JOL_GLOBAL","Unrelated","JOL2",6004,"",5
"5b99663d4cefb60001e7a214",40,3,"Global C","","","","",NA,0,"FreeRecall","Unrelated","RECALL_Test2",65005,"mayor pants parrot milk jeep student ",NA
"5b99663d4cefb60001e7a214",42,3,"Global C","Girraffe","Girraffe","R2","Related",31,27,"Study","Related","R2",2278,"",NA
"5b99663d4cefb60001e7a214",43,3,"Global C","Cat","Cat","R2","Related",33,37,"Study","Related","R2",2239,"",NA
"5b99663d4cefb60001e7a214",44,3,"Global C","Tiger","Tiger","R2","Related",25,33,"Study","Related","R2",1971,"",NA
"5b99663d4cefb60001e7a214",45,3,"Global C","Zebra","Zebra","R2","Related",27,32,"Study","Related","R2",2073,"",NA
"5b99663d4cefb60001e7a214",46,3,"Global C","Wolf","Wolf","R2","Related",29,29,"Study","Related","R2",1083,"",NA
"5b99663d4cefb60001e7a214",47,3,"Global C","Cheetah","Cheetah","R2","Related",28,35,"Study","Related","R2",3839,"",NA
"5b99663d4cefb60001e7a214",48,3,"Global C","Bear","Bear","R2","Related",35,36,"Study","Related","R2",1342,"",NA
"5b99663d4cefb60001e7a214",49,3,"Global C","Cow","Cow","R2","Related",36,26,"Study","Related","R2",1507,"",NA
"5b99663d4cefb60001e7a214",50,3,"Global C","Goat","Goat","R2","Related",30,30,"Study","Related","R2",1664,"",NA
"5b99663d4cefb60001e7a214",51,3,"Global C","Lion","Lion","R2","Related",26,28,"Study","Related","R2",2252,"",NA
"5b99663d4cefb60001e7a214",52,3,"Global C","Donkey","Donkey","R2","Related",34,31,"Study","Related","R2",1905,"",NA
"5b99663d4cefb60001e7a214",53,3,"Global C","Elephant","Elephant","R2","Related",32,34,"Study","Related","R2",1373,"",NA
"5b99663d4cefb60001e7a214",55,3,"Global C","","","","",NA,0,"JOL_GLOBAL","Related","JOL3",6002,"",60
"5b99663d4cefb60001e7a214",59,3,"Global C","","","","",NA,0,"FreeRecall","Related","RECALL_Test3",65002,"giraffe bear lion tiger elephant wolf cheetah zebra mon",NA
"5b99663d4cefb60001e7a214",61,3,"Global C","Viper","Viper","U2","Unrelated",44,38,"Study","Unrelated","U2",2337,"",NA
"5b99663d4cefb60001e7a214",62,3,"Global C","Tulip","Tulip","U2","Unrelated",39,44,"Study","Unrelated","U2",4420,"",NA
"5b99663d4cefb60001e7a214",63,3,"Global C","Cruise","Cruise","U2","Unrelated",42,39,"Study","Unrelated","U2",2370,"",NA
"5b99663d4cefb60001e7a214",64,3,"Global C","Lipstick","Lipstick","U2","Unrelated",46,47,"Study","Unrelated","U2",2064,"",NA
"5b99663d4cefb60001e7a214",65,3,"Global C","Computer","Computer","U2","Unrelated",47,43,"Study","Unrelated","U2",1043,"",NA
"5b99663d4cefb60001e7a214",66,3,"Global C","Shark","Shark","U2","Unrelated",43,41,"Study","Unrelated","U2",1766,"",NA
"5b99663d4cefb60001e7a214",67,3,"Global C","Eye","Eye","U2","Unrelated",48,45,"Study","Unrelated","U2",1699,"",NA
"5b99663d4cefb60001e7a214",68,3,"Global C","Tea","Tea","U2","Unrelated",45,42,"Study","Unrelated","U2",1657,"",NA
"5b99663d4cefb60001e7a214",69,3,"Global C","Sandal","Sandal","U2","Unrelated",37,48,"Study","Unrelated","U2",2120,"",NA
"5b99663d4cefb60001e7a214",70,3,"Global C","Fly","Fly","U2","Unrelated",38,46,"Study","Unrelated","U2",1831,"",NA
"5b99663d4cefb60001e7a214",71,3,"Global C","Blue","Blue","U2","Unrelated",41,49,"Study","Unrelated","U2",1915,"",NA
"5b99663d4cefb60001e7a214",72,3,"Global C","Cold","Cold","U2","Unrelated",40,40,"Study","Unrelated","U2",1258,"",NA
"5b99663d4cefb60001e7a214",74,3,"Global C","","","","",NA,0,"JOL_GLOBAL","Unrelated","JOL4",6003,"",20
"5b99663d4cefb60001e7a214",78,3,"Global C","","","","",NA,0,"FreeRecall","Unrelated","RECALL_Test4",65003,"viper fly blue cold tulip tea ",NA
"5bfdd2bc11e618000158834f",4,3,"Global C","River","River","R1","Related",2,5,"Study","Related","R1",2684,"",NA
"5bfdd2bc11e618000158834f",5,3,"Global C","Volcano","Volcano","R1","Related",4,2,"Study","Related","R1",2552,"",NA
"5bfdd2bc11e618000158834f",6,3,"Global C","Glacier","Glacier","R1","Related",12,10,"Study","Related","R1",2481,"",NA
"5bfdd2bc11e618000158834f",7,3,"Global C","Cave","Cave","R1","Related",11,12,"Study","Related","R1",1441,"",NA
"5bfdd2bc11e618000158834f",8,3,"Global C","Rock","Rock","R1","Related",5,4,"Study","Related","R1",1428,"",NA
"5bfdd2bc11e618000158834f",9,3,"Global C","Ocean","Ocean","R1","Related",8,3,"Study","Related","R1",1476,"",NA
"5bfdd2bc11e618000158834f",10,3,"Global C","Mountain","Mountain","R1","Related",7,6,"Study","Related","R1",1186,"",NA
"5bfdd2bc11e618000158834f",11,3,"Global C","Lake","Lake","R1","Related",10,9,"Study","Related","R1",1235,"",NA
"5bfdd2bc11e618000158834f",12,3,"Global C","Valley","Valley","R1","Related",1,7,"Study","Related","R1",1266,"",NA
"5bfdd2bc11e618000158834f",13,3,"Global C","Canyon","Canyon","R1","Related",3,13,"Study","Related","R1",1086,"",NA
"5bfdd2bc11e618000158834f",14,3,"Global C","Island","Island","R1","Related",9,11,"Study","Related","R1",1035,"",NA
"5bfdd2bc11e618000158834f",15,3,"Global C","Hill","Hill","R1","Related",6,8,"Study","Related","R1",1239,"",NA
"5bfdd2bc11e618000158834f",17,3,"Global C","","","","",NA,0,"JOL_GLOBAL","Related","JOL1",6022,"",NA
"5bfdd2bc11e618000158834f",21,3,"Global C","","","","",NA,0,"FreeRecall","Related","RECALL_Test1",65012,"river, canyon, volcano, hill, lake, island, mountain, land, ",NA
"5bfdd2bc11e618000158834f",23,3,"Global C","Guitar","Guitar","U1","Unrelated",19,20,"Study","Unrelated","U1",1504,"",NA
"5bfdd2bc11e618000158834f",24,3,"Global C","Rifle","Rifle","U1","Unrelated",13,24,"Study","Unrelated","U1",1158,"",NA
"5bfdd2bc11e618000158834f",25,3,"Global C","Hockey","Hockey","U1","Unrelated",16,25,"Study","Unrelated","U1",2243,"",NA
"5bfdd2bc11e618000158834f",26,3,"Global C","Ballet","Ballet","U1","Unrelated",24,15,"Study","Unrelated","U1",1282,"",NA
"5bfdd2bc11e618000158834f",27,3,"Global C","Dollar","Dollar","U1","Unrelated",20,17,"Study","Unrelated","U1",1614,"",NA
"5bfdd2bc11e618000158834f",28,3,"Global C","Pants","Pants","U1","Unrelated",17,14,"Study","Unrelated","U1",1911,"",NA
"5bfdd2bc11e618000158834f",29,3,"Global C","Student","Student","U1","Unrelated",15,19,"Study","Unrelated","U1",1617,"",NA
"5bfdd2bc11e618000158834f",30,3,"Global C","Mayor","Mayor","U1","Unrelated",14,22,"Study","Unrelated","U1",1774,"",NA
"5bfdd2bc11e618000158834f",31,3,"Global C","Parrot","Parrot","U1","Unrelated",21,21,"Study","Unrelated","U1",1848,"",NA
"5bfdd2bc11e618000158834f",32,3,"Global C","Oxygen","Oxygen","U1","Unrelated",18,23,"Study","Unrelated","U1",1558,"",NA
"5bfdd2bc11e618000158834f",33,3,"Global C","Jeep","Jeep","U1","Unrelated",23,16,"Study","Unrelated","U1",1085,"",NA
"5bfdd2bc11e618000158834f",34,3,"Global C","Milk","Milk","U1","Unrelated",22,18,"Study","Unrelated","U1",1477,"",NA
"5bfdd2bc11e618000158834f",36,3,"Global C","","","","",NA,0,"JOL_GLOBAL","Unrelated","JOL2",6007,"",50
"5bfdd2bc11e618000158834f",40,3,"Global C","","","","",NA,0,"FreeRecall","Unrelated","RECALL_Test2",65016,"hockey, rifle, ballet, football, rugby, pan",NA
"5bfdd2bc11e618000158834f",42,3,"Global C","Zebra","Zebra","R2","Related",27,32,"Study","Related","R2",1673,"",NA
"5bfdd2bc11e618000158834f",43,3,"Global C","Donkey","Donkey","R2","Related",34,35,"Study","Related","R2",1085,"",NA
"5bfdd2bc11e618000158834f",44,3,"Global C","Cat","Cat","R2","Related",33,36,"Study","Related","R2",1059,"",NA
"5bfdd2bc11e618000158834f",45,3,"Global C","Cow","Cow","R2","Related",36,30,"Study","Related","R2",1461,"",NA
"5bfdd2bc11e618000158834f",46,3,"Global C","Wolf","Wolf","R2","Related",29,31,"Study","Related","R2",1197,"",NA
"5bfdd2bc11e618000158834f",47,3,"Global C","Cheetah","Cheetah","R2","Related",28,29,"Study","Related","R2",1448,"",NA
"5bfdd2bc11e618000158834f",48,3,"Global C","Girraffe","Girraffe","R2","Related",31,28,"Study","Related","R2",1231,"",NA
"5bfdd2bc11e618000158834f",49,3,"Global C","Lion","Lion","R2","Related",26,27,"Study","Related","R2",1497,"",NA
"5bfdd2bc11e618000158834f",50,3,"Global C","Tiger","Tiger","R2","Related",25,26,"Study","Related","R2",1165,"",NA
"5bfdd2bc11e618000158834f",51,3,"Global C","Elephant","Elephant","R2","Related",32,33,"Study","Related","R2",1251,"",NA
"5bfdd2bc11e618000158834f",52,3,"Global C","Bear","Bear","R2","Related",35,34,"Study","Related","R2",2311,"",NA
"5bfdd2bc11e618000158834f",53,3,"Global C","Goat","Goat","R2","Related",30,37,"Study","Related","R2",1270,"",NA
"5bfdd2bc11e618000158834f",55,3,"Global C","","","","",NA,0,"JOL_GLOBAL","Related","JOL3",6012,"",20
"5bfdd2bc11e618000158834f",59,3,"Global C","","","","",NA,0,"FreeRecall","Related","RECALL_Test3",65011,"donkey, lion, tiger, giraffe, zebra, parrot, cat, ",NA
"5bfdd2bc11e618000158834f",61,3,"Global C","Viper","Viper","U2","Unrelated",44,49,"Study","Unrelated","U2",5436,"",NA
"5bfdd2bc11e618000158834f",62,3,"Global C","Shark","Shark","U2","Unrelated",43,47,"Study","Unrelated","U2",8630,"",NA
"5bfdd2bc11e618000158834f",63,3,"Global C","Fly","Fly","U2","Unrelated",38,42,"Study","Unrelated","U2",3679,"",NA
"5bfdd2bc11e618000158834f",64,3,"Global C","Lipstick","Lipstick","U2","Unrelated",46,39,"Study","Unrelated","U2",1178,"",NA
"5bfdd2bc11e618000158834f",65,3,"Global C","Blue","Blue","U2","Unrelated",41,43,"Study","Unrelated","U2",1454,"",NA
"5bfdd2bc11e618000158834f",66,3,"Global C","Tulip","Tulip","U2","Unrelated",39,40,"Study","Unrelated","U2",1086,"",NA
"5bfdd2bc11e618000158834f",67,3,"Global C","Tea","Tea","U2","Unrelated",45,44,"Study","Unrelated","U2",1065,"",NA
"5bfdd2bc11e618000158834f",68,3,"Global C","Computer","Computer","U2","Unrelated",47,45,"Study","Unrelated","U2",1176,"",NA
"5bfdd2bc11e618000158834f",69,3,"Global C","Sandal","Sandal","U2","Unrelated",37,48,"Study","Unrelated","U2",1287,"",NA
"5bfdd2bc11e618000158834f",70,3,"Global C","Cruise","Cruise","U2","Unrelated",42,38,"Study","Unrelated","U2",1125,"",NA
"5bfdd2bc11e618000158834f",71,3,"Global C","Cold","Cold","U2","Unrelated",40,41,"Study","Unrelated","U2",1050,"",NA
"5bfdd2bc11e618000158834f",72,3,"Global C","Eye","Eye","U2","Unrelated",48,46,"Study","Unrelated","U2",1855,"",NA
"5bfdd2bc11e618000158834f",74,3,"Global C","","","","",NA,0,"JOL_GLOBAL","Unrelated","JOL4",6007,"",10
"5bfdd2bc11e618000158834f",78,3,"Global C","","","","",NA,0,"FreeRecall","Unrelated","RECALL_Test4",65011,"viper, sandals, cruise, blue, lipstick, tea, ",NA
"5c4e5f2ae5f00f0001542748",4,2,"Global B","Frog","Frog","U1","Unrelated",13,15,"Study","Unrelated","U1",4238,"",NA
"5c4e5f2ae5f00f0001542748",5,2,"Global B","Flea","Flea","U1","Unrelated",21,23,"Study","Unrelated","U1",3336,"",NA
"5c4e5f2ae5f00f0001542748",6,2,"Global B","Slow","Slow","U1","Unrelated",23,18,"Study","Unrelated","U1",7082,"",NA
"5c4e5f2ae5f00f0001542748",7,2,"Global B","Hawk","Hawk","U1","Unrelated",24,25,"Study","Unrelated","U1",11953,"",NA
"5c4e5f2ae5f00f0001542748",8,2,"Global B","Bean","Bean","U1","Unrelated",22,14,"Study","Unrelated","U1",4925,"",NA
"5c4e5f2ae5f00f0001542748",9,2,"Global B","Shirt","Shirt","U1","Unrelated",18,20,"Study","Unrelated","U1",8998,"",NA
"5c4e5f2ae5f00f0001542748",10,2,"Global B","Kayak","Kayak","U1","Unrelated",20,21,"Study","Unrelated","U1",9985,"",NA
"5c4e5f2ae5f00f0001542748",11,2,"Global B","Mint","Mint","U1","Unrelated",17,19,"Study","Unrelated","U1",5397,"",NA
"5c4e5f2ae5f00f0001542748",12,2,"Global B","Document","Document","U1","Unrelated",15,24,"Study","Unrelated","U1",2681,"",NA
"5c4e5f2ae5f00f0001542748",13,2,"Global B","Yellow","Yellow","U1","Unrelated",19,16,"Study","Unrelated","U1",4483,"",NA
"5c4e5f2ae5f00f0001542748",14,2,"Global B","Bed","Bed","U1","Unrelated",14,22,"Study","Unrelated","U1",5751,"",NA
"5c4e5f2ae5f00f0001542748",15,2,"Global B","Dirt","Dirt","U1","Unrelated",16,17,"Study","Unrelated","U1",8802,"",NA
"5c4e5f2ae5f00f0001542748",17,2,"Global B","","","","",NA,0,"JOL_GLOBAL","Unrelated","JOL2",6006,"",30
"5c4e5f2ae5f00f0001542748",21,2,"Global B","","","","",NA,0,"FreeRecall","Unrelated","RECALL_Test1",65005,"kayak, bed, Hawke, ",NA
"5c4e5f2ae5f00f0001542748",23,2,"Global B","Mango","Mango","R1","Related",10,5,"Study","Related","R1",7703,"",NA
"5c4e5f2ae5f00f0001542748",24,2,"Global B","Peach","Peach","R1","Related",6,11,"Study","Related","R1",3196,"",NA
"5c4e5f2ae5f00f0001542748",25,2,"Global B","Plum","Plum","R1","Related",9,10,"Study","Related","R1",1594,"",NA
"5c4e5f2ae5f00f0001542748",26,2,"Global B","Strawberry","Strawberry","R1","Related",7,9,"Study","Related","R1",1545,"",NA
"5c4e5f2ae5f00f0001542748",27,2,"Global B","Lemon","Lemon","R1","Related",12,12,"Study","Related","R1",1943,"",NA
"5c4e5f2ae5f00f0001542748",28,2,"Global B","Pear","Pear","R1","Related",5,2,"Study","Related","R1",1824,"",NA
"5c4e5f2ae5f00f0001542748",29,2,"Global B","Banana","Banana","R1","Related",3,8,"Study","Related","R1",2453,"",NA
"5c4e5f2ae5f00f0001542748",30,2,"Global B","Orange","Orange","R1","Related",2,6,"Study","Related","R1",2340,"",NA
"5c4e5f2ae5f00f0001542748",31,2,"Global B","Kiwi","Kiwi","R1","Related",8,4,"Study","Related","R1",3245,"",NA
"5c4e5f2ae5f00f0001542748",32,2,"Global B","Cherry","Cherry","R1","Related",11,7,"Study","Related","R1",5140,"",NA
"5c4e5f2ae5f00f0001542748",33,2,"Global B","Grape","Grape","R1","Related",4,3,"Study","Related","R1",5656,"",NA
"5c4e5f2ae5f00f0001542748",34,2,"Global B","Apple","Apple","R1","Related",1,13,"Study","Related","R1",4558,"",NA
"5c4e5f2ae5f00f0001542748",36,2,"Global B","","","","",NA,0,"JOL_GLOBAL","Related","JOL1",6008,"",20
"5c4e5f2ae5f00f0001542748",40,2,"Global B","","","","",NA,0,"FreeRecall","Related","RECALL_Test2",65018,"kayak hawke bed cherry ",NA
"5c4e5f2ae5f00f0001542748",42,2,"Global B","Drill","Drill","U2","Unrelated",45,42,"Study","Unrelated","U2",28915,"",NA
"5c4e5f2ae5f00f0001542748",43,2,"Global B","Cloud","Cloud","U2","Unrelated",40,49,"Study","Unrelated","U2",3951,"",NA
"5c4e5f2ae5f00f0001542748",44,2,"Global B","Salt","Salt","U2","Unrelated",39,48,"Study","Unrelated","U2",7881,"",NA
"5c4e5f2ae5f00f0001542748",45,2,"Global B","Card","Card","U2","Unrelated",37,47,"Study","Unrelated","U2",19351,"",NA
"5c4e5f2ae5f00f0001542748",46,2,"Global B","Cook","Cook","U2","Unrelated",42,38,"Study","Unrelated","U2",6556,"",NA
"5c4e5f2ae5f00f0001542748",47,2,"Global B","Tent","Tent","U2","Unrelated",46,44,"Study","Unrelated","U2",8395,"",NA
"5c4e5f2ae5f00f0001542748",48,2,"Global B","Flute","Flute","U2","Unrelated",38,41,"Study","Unrelated","U2",7900,"",NA
"5c4e5f2ae5f00f0001542748",49,2,"Global B","Rest","Rest","U2","Unrelated",48,45,"Study","Unrelated","U2",4836,"",NA
"5c4e5f2ae5f00f0001542748",50,2,"Global B","Fossil","Fossil","U2","Unrelated",43,46,"Study","Unrelated","U2",4242,"",NA
"5c4e5f2ae5f00f0001542748",51,2,"Global B","Phone","Phone","U2","Unrelated",47,40,"Study","Unrelated","U2",3215,"",NA
"5c4e5f2ae5f00f0001542748",52,2,"Global B","Basket","Basket","U2","Unrelated",41,43,"Study","Unrelated","U2",2699,"",NA
"5c4e5f2ae5f00f0001542748",53,2,"Global B","Mother","Mother","U2","Unrelated",44,39,"Study","Unrelated","U2",8319,"",NA
"5c4e5f2ae5f00f0001542748",55,2,"Global B","","","","",NA,0,"JOL_GLOBAL","Unrelated","JOL4",6008,"",1
"5c4e5f2ae5f00f0001542748",59,2,"Global B","","","","",NA,0,"FreeRecall","Unrelated","RECALL_Test3",65005,"cherry strawberry pear apple",NA
"5c4e5f2ae5f00f0001542748",61,2,"Global B","Floor","Floor","R2","Related",31,36,"Study","Related","R2",30543,"",NA
"5c4e5f2ae5f00f0001542748",62,2,"Global B","Window","Window","R2","Related",28,27,"Study","Related","R2",18395,"",NA
"5c4e5f2ae5f00f0001542748",63,2,"Global B","Elevator","Elevator","R2","Related",33,33,"Study","Related","R2",2427,"",NA
"5c4e5f2ae5f00f0001542748",64,2,"Global B","Bathroom","Bathroom","R2","Related",27,35,"Study","Related","R2",2334,"",NA
"5c4e5f2ae5f00f0001542748",65,2,"Global B","Ceiling","Ceiling","R2","Related",25,37,"Study","Related","R2",3756,"",NA
"5c4e5f2ae5f00f0001542748",66,2,"Global B","Hallway","Hallway","R2","Related",35,29,"Study","Related","R2",2775,"",NA
"5c4e5f2ae5f00f0001542748",67,2,"Global B","Roof","Roof","R2","Related",36,30,"Study","Related","R2",2607,"",NA
"5c4e5f2ae5f00f0001542748",68,2,"Global B","Attic","Attic","R2","Related",34,32,"Study","Related","R2",3422,"",NA
"5c4e5f2ae5f00f0001542748",69,2,"Global B","Basement","Basement","R2","Related",26,26,"Study","Related","R2",8636,"",NA
"5c4e5f2ae5f00f0001542748",70,2,"Global B","Wall","Wall","R2","Related",29,31,"Study","Related","R2",8723,"",NA
"5c4e5f2ae5f00f0001542748",71,2,"Global B","Stairs","Stairs","R2","Related",32,28,"Study","Related","R2",3197,"",NA
"5c4e5f2ae5f00f0001542748",72,2,"Global B","Door","Door","R2","Related",30,34,"Study","Related","R2",2370,"",NA
"5c4e5f2ae5f00f0001542748",74,2,"Global B","","","","",NA,0,"JOL_GLOBAL","Related","JOL3",5006,"",5
"5c4e5f2ae5f00f0001542748",78,2,"Global B","","","","",NA,0,"FreeRecall","Related","RECALL_Test4",65015,"water ",NA
"5cee69353057030001b33fc4",4,3,"Global C","Rock","Rock","R1","Related",5,8,"Study","Related","R1",2632,"",NA
"5cee69353057030001b33fc4",5,3,"Global C","Lake","Lake","R1","Related",10,11,"Study","Related","R1",2913,"",NA
"5cee69353057030001b33fc4",6,3,"Global C","Cave","Cave","R1","Related",11,5,"Study","Related","R1",3660,"",NA
"5cee69353057030001b33fc4",7,3,"Global C","Hill","Hill","R1","Related",6,9,"Study","Related","R1",3422,"",NA
"5cee69353057030001b33fc4",8,3,"Global C","Glacier","Glacier","R1","Related",12,6,"Study","Related","R1",2911,"",NA
"5cee69353057030001b33fc4",9,3,"Global C","Volcano","Volcano","R1","Related",4,3,"Study","Related","R1",3746,"",NA
"5cee69353057030001b33fc4",10,3,"Global C","Canyon","Canyon","R1","Related",3,13,"Study","Related","R1",2984,"",NA
"5cee69353057030001b33fc4",11,3,"Global C","River","River","R1","Related",2,7,"Study","Related","R1",3555,"",NA
"5cee69353057030001b33fc4",12,3,"Global C","Ocean","Ocean","R1","Related",8,12,"Study","Related","R1",4723,"",NA
"5cee69353057030001b33fc4",13,3,"Global C","Valley","Valley","R1","Related",1,4,"Study","Related","R1",3413,"",NA
"5cee69353057030001b33fc4",14,3,"Global C","Island","Island","R1","Related",9,10,"Study","Related","R1",2679,"",NA
"5cee69353057030001b33fc4",15,3,"Global C","Mountain","Mountain","R1","Related",7,2,"Study","Related","R1",2430,"",NA
"5cee69353057030001b33fc4",17,3,"Global C","","","","",NA,0,"JOL_GLOBAL","Related","JOL1",6001,"",30
"5cee69353057030001b33fc4",21,3,"Global C","","","","",NA,0,"FreeRecall","Related","RECALL_Test1",65001,"rock hill cave canyon volcano glacier valley ocean cave river ",NA
"5cee69353057030001b33fc4",23,3,"Global C","Pants","Pants","U1","Unrelated",17,20,"Study","Unrelated","U1",2018,"",NA
"5cee69353057030001b33fc4",24,3,"Global C","Mayor","Mayor","U1","Unrelated",14,24,"Study","Unrelated","U1",3009,"",NA
"5cee69353057030001b33fc4",25,3,"Global C","Parrot","Parrot","U1","Unrelated",21,15,"Study","Unrelated","U1",1931,"",NA
"5cee69353057030001b33fc4",26,3,"Global C","Jeep","Jeep","U1","Unrelated",23,22,"Study","Unrelated","U1",3187,"",NA
"5cee69353057030001b33fc4",27,3,"Global C","Dollar","Dollar","U1","Unrelated",20,17,"Study","Unrelated","U1",3188,"",NA
"5cee69353057030001b33fc4",28,3,"Global C","Student","Student","U1","Unrelated",15,16,"Study","Unrelated","U1",2287,"",NA
"5cee69353057030001b33fc4",29,3,"Global C","Rifle","Rifle","U1","Unrelated",13,18,"Study","Unrelated","U1",3559,"",NA
"5cee69353057030001b33fc4",30,3,"Global C","Oxygen","Oxygen","U1","Unrelated",18,14,"Study","Unrelated","U1",3487,"",NA
"5cee69353057030001b33fc4",31,3,"Global C","Hockey","Hockey","U1","Unrelated",16,19,"Study","Unrelated","U1",3327,"",NA
"5cee69353057030001b33fc4",32,3,"Global C","Ballet","Ballet","U1","Unrelated",24,23,"Study","Unrelated","U1",3365,"",NA
"5cee69353057030001b33fc4",33,3,"Global C","Milk","Milk","U1","Unrelated",22,21,"Study","Unrelated","U1",2645,"",NA
"5cee69353057030001b33fc4",34,3,"Global C","Guitar","Guitar","U1","Unrelated",19,25,"Study","Unrelated","U1",2357,"",NA
"5cee69353057030001b33fc4",36,3,"Global C","","","","",NA,0,"JOL_GLOBAL","Unrelated","JOL2",6002,"",0
"5cee69353057030001b33fc4",40,3,"Global C","","","","",NA,0,"FreeRecall","Unrelated","RECALL_Test2",65001,"pants mayor Jeep hockey oxygen guitar ",NA
"5cee69353057030001b33fc4",42,3,"Global C","Cow","Cow","R2","Related",36,32,"Study","Related","R2",1812,"",NA
"5cee69353057030001b33fc4",43,3,"Global C","Bear","Bear","R2","Related",35,29,"Study","Related","R2",3138,"",NA
"5cee69353057030001b33fc4",44,3,"Global C","Donkey","Donkey","R2","Related",34,30,"Study","Related","R2",2641,"",NA
"5cee69353057030001b33fc4",45,3,"Global C","Girraffe","Girraffe","R2","Related",31,36,"Study","Related","R2",2147,"",NA
"5cee69353057030001b33fc4",46,3,"Global C","Wolf","Wolf","R2","Related",29,28,"Study","Related","R2",3100,"",NA
"5cee69353057030001b33fc4",47,3,"Global C","Elephant","Elephant","R2","Related",32,35,"Study","Related","R2",2957,"",NA
"5cee69353057030001b33fc4",48,3,"Global C","Tiger","Tiger","R2","Related",25,27,"Study","Related","R2",1812,"",NA
"5cee69353057030001b33fc4",49,3,"Global C","Cheetah","Cheetah","R2","Related",28,26,"Study","Related","R2",2790,"",NA
"5cee69353057030001b33fc4",50,3,"Global C","Cat","Cat","R2","Related",33,33,"Study","Related","R2",2735,"",NA
"5cee69353057030001b33fc4",51,3,"Global C","Goat","Goat","R2","Related",30,37,"Study","Related","R2",2540,"",NA
"5cee69353057030001b33fc4",52,3,"Global C","Lion","Lion","R2","Related",26,31,"Study","Related","R2",2255,"",NA
"5cee69353057030001b33fc4",53,3,"Global C","Zebra","Zebra","R2","Related",27,34,"Study","Related","R2",2081,"",NA
"5cee69353057030001b33fc4",55,3,"Global C","","","","",NA,0,"JOL_GLOBAL","Related","JOL3",6001,"",10
"5cee69353057030001b33fc4",59,3,"Global C","","","","",NA,0,"FreeRecall","Related","RECALL_Test3",65002,"cow bear cat donkey giraffe cheetah tiger lion goat wolf ",NA
"5cee69353057030001b33fc4",61,3,"Global C","Tea","Tea","U2","Unrelated",45,47,"Study","Unrelated","U2",1771,"",NA
"5cee69353057030001b33fc4",62,3,"Global C","Viper","Viper","U2","Unrelated",44,45,"Study","Unrelated","U2",2485,"",NA
"5cee69353057030001b33fc4",63,3,"Global C","Shark","Shark","U2","Unrelated",43,42,"Study","Unrelated","U2",3341,"",NA
"5cee69353057030001b33fc4",64,3,"Global C","Blue","Blue","U2","Unrelated",41,41,"Study","Unrelated","U2",2691,"",NA
"5cee69353057030001b33fc4",65,3,"Global C","Lipstick","Lipstick","U2","Unrelated",46,38,"Study","Unrelated","U2",2407,"",NA
"5cee69353057030001b33fc4",66,3,"Global C","Tulip","Tulip","U2","Unrelated",39,48,"Study","Unrelated","U2",4154,"",NA
"5cee69353057030001b33fc4",67,3,"Global C","Computer","Computer","U2","Unrelated",47,39,"Study","Unrelated","U2",2673,"",NA
"5cee69353057030001b33fc4",68,3,"Global C","Eye","Eye","U2","Unrelated",48,46,"Study","Unrelated","U2",3792,"",NA
"5cee69353057030001b33fc4",69,3,"Global C","Fly","Fly","U2","Unrelated",38,44,"Study","Unrelated","U2",2042,"",NA
"5cee69353057030001b33fc4",70,3,"Global C","Cruise","Cruise","U2","Unrelated",42,49,"Study","Unrelated","U2",2262,"",NA
"5cee69353057030001b33fc4",71,3,"Global C","Sandal","Sandal","U2","Unrelated",37,43,"Study","Unrelated","U2",2353,"",NA
"5cee69353057030001b33fc4",72,3,"Global C","Cold","Cold","U2","Unrelated",40,40,"Study","Unrelated","U2",2666,"",NA
"5cee69353057030001b33fc4",74,3,"Global C","","","","",NA,0,"JOL_GLOBAL","Unrelated","JOL4",6001,"",0
"5cee69353057030001b33fc4",78,3,"Global C","","","","",NA,0,"FreeRecall","Unrelated","RECALL_Test4",65001,"blue viper shark cruise computer eye fly ",NA
"5dec6a96da522335df62a1b5",4,1,"Global A","Student","Student","U1","Unrelated",15,25,"Study","Unrelated","U1",1957,"",NA
"5dec6a96da522335df62a1b5",5,1,"Global A","Dollar","Dollar","U1","Unrelated",20,18,"Study","Unrelated","U1",2400,"",NA
"5dec6a96da522335df62a1b5",6,1,"Global A","Rifle","Rifle","U1","Unrelated",13,15,"Study","Unrelated","U1",9043,"",NA
"5dec6a96da522335df62a1b5",7,1,"Global A","Ballet","Ballet","U1","Unrelated",24,22,"Study","Unrelated","U1",2775,"",NA
"5dec6a96da522335df62a1b5",8,1,"Global A","Guitar","Guitar","U1","Unrelated",19,23,"Study","Unrelated","U1",2664,"",NA
"5dec6a96da522335df62a1b5",9,1,"Global A","Oxygen","Oxygen","U1","Unrelated",18,14,"Study","Unrelated","U1",3120,"",NA
"5dec6a96da522335df62a1b5",10,1,"Global A","Pants","Pants","U1","Unrelated",17,21,"Study","Unrelated","U1",2728,"",NA
"5dec6a96da522335df62a1b5",11,1,"Global A","Hockey","Hockey","U1","Unrelated",16,16,"Study","Unrelated","U1",1321,"",NA
"5dec6a96da522335df62a1b5",12,1,"Global A","Parrot","Parrot","U1","Unrelated",21,24,"Study","Unrelated","U1",4005,"",NA
"5dec6a96da522335df62a1b5",13,1,"Global A","Mayor","Mayor","U1","Unrelated",14,20,"Study","Unrelated","U1",1311,"",NA
"5dec6a96da522335df62a1b5",14,1,"Global A","Milk","Milk","U1","Unrelated",22,17,"Study","Unrelated","U1",4027,"",NA
"5dec6a96da522335df62a1b5",15,1,"Global A","Jeep","Jeep","U1","Unrelated",23,19,"Study","Unrelated","U1",1363,"",NA
"5dec6a96da522335df62a1b5",17,1,"Global A","","","","",NA,0,"JOL_GLOBAL","Unrelated","JOL2",6001,"",70
"5dec6a96da522335df62a1b5",21,1,"Global A","","","","",NA,0,"FreeRecall","Unrelated","RECALL_Test1",65001,"Student Dollar Rifle Ballet Pants Chicken Corrupt Mayor Milk Jeep",NA
"5dec6a96da522335df62a1b5",23,1,"Global A","Valley","Valley","R1","Related",1,8,"Study","Related","R1",1806,"",NA
"5dec6a96da522335df62a1b5",24,1,"Global A","River","River","R1","Related",2,6,"Study","Related","R1",1599,"",NA
"5dec6a96da522335df62a1b5",25,1,"Global A","Lake","Lake","R1","Related",10,10,"Study","Related","R1",7204,"",NA
"5dec6a96da522335df62a1b5",26,1,"Global A","Mountain","Mountain","R1","Related",7,12,"Study","Related","R1",1426,"",NA
"5dec6a96da522335df62a1b5",27,1,"Global A","Canyon","Canyon","R1","Related",3,4,"Study","Related","R1",4921,"",NA
"5dec6a96da522335df62a1b5",28,1,"Global A","Volcano","Volcano","R1","Related",4,11,"Study","Related","R1",1299,"",NA
"5dec6a96da522335df62a1b5",29,1,"Global A","Hill","Hill","R1","Related",6,13,"Study","Related","R1",4116,"",NA
"5dec6a96da522335df62a1b5",30,1,"Global A","Ocean","Ocean","R1","Related",8,9,"Study","Related","R1",1284,"",NA
"5dec6a96da522335df62a1b5",31,1,"Global A","Glacier","Glacier","R1","Related",12,2,"Study","Related","R1",4518,"",NA
"5dec6a96da522335df62a1b5",32,1,"Global A","Island","Island","R1","Related",9,7,"Study","Related","R1",1307,"",NA
"5dec6a96da522335df62a1b5",33,1,"Global A","Rock","Rock","R1","Related",5,3,"Study","Related","R1",1269,"",NA
"5dec6a96da522335df62a1b5",34,1,"Global A","Cave","Cave","R1","Related",11,5,"Study","Related","R1",4036,"",NA
"5dec6a96da522335df62a1b5",36,1,"Global A","","","","",NA,0,"JOL_GLOBAL","Related","JOL1",6001,"",80
"5dec6a96da522335df62a1b5",40,1,"Global A","","","","",NA,0,"FreeRecall","Related","RECALL_Test2",65001,"Canyon Valley Ocean Glacier Hill Ravine River Lake Cave",NA
"5dec6a96da522335df62a1b5",42,1,"Global A","Cold","Cold","U2","Unrelated",40,40,"Study","Unrelated","U2",4240,"",NA
"5dec6a96da522335df62a1b5",43,1,"Global A","Sandal","Sandal","U2","Unrelated",37,42,"Study","Unrelated","U2",1348,"",NA
"5dec6a96da522335df62a1b5",44,1,"Global A","Computer","Computer","U2","Unrelated",47,46,"Study","Unrelated","U2",5342,"",NA
"5dec6a96da522335df62a1b5",45,1,"Global A","Shark","Shark","U2","Unrelated",43,44,"Study","Unrelated","U2",1423,"",NA
"5dec6a96da522335df62a1b5",46,1,"Global A","Fly","Fly","U2","Unrelated",38,38,"Study","Unrelated","U2",1296,"",NA
"5dec6a96da522335df62a1b5",47,1,"Global A","Tea","Tea","U2","Unrelated",45,45,"Study","Unrelated","U2",3756,"",NA
"5dec6a96da522335df62a1b5",48,1,"Global A","Eye","Eye","U2","Unrelated",48,39,"Study","Unrelated","U2",1326,"",NA
"5dec6a96da522335df62a1b5",49,1,"Global A","Lipstick","Lipstick","U2","Unrelated",46,48,"Study","Unrelated","U2",1285,"",NA
"5dec6a96da522335df62a1b5",50,1,"Global A","Tulip","Tulip","U2","Unrelated",39,47,"Study","Unrelated","U2",6132,"",NA
"5dec6a96da522335df62a1b5",51,1,"Global A","Cruise","Cruise","U2","Unrelated",42,43,"Study","Unrelated","U2",1401,"",NA
"5dec6a96da522335df62a1b5",52,1,"Global A","Blue","Blue","U2","Unrelated",41,41,"Study","Unrelated","U2",1338,"",NA
"5dec6a96da522335df62a1b5",53,1,"Global A","Viper","Viper","U2","Unrelated",44,49,"Study","Unrelated","U2",4641,"",NA
"5dec6a96da522335df62a1b5",55,1,"Global A","","","","",NA,0,"JOL_GLOBAL","Unrelated","JOL4",6003,"",70
"5dec6a96da522335df62a1b5",59,1,"Global A","","","","",NA,0,"FreeRecall","Unrelated","RECALL_Test3",65000,"Viper Lipstick Fly Cold Blue Tea Eye Shark",NA
"5dec6a96da522335df62a1b5",61,1,"Global A","Goat","Goat","R2","Related",30,30,"Study","Related","R2",3705,"",NA
"5dec6a96da522335df62a1b5",62,1,"Global A","Bear","Bear","R2","Related",35,28,"Study","Related","R2",1318,"",NA
"5dec6a96da522335df62a1b5",63,1,"Global A","Cat","Cat","R2","Related",33,27,"Study","Related","R2",4314,"",NA
"5dec6a96da522335df62a1b5",64,1,"Global A","Lion","Lion","R2","Related",26,37,"Study","Related","R2",1635,"",NA
"5dec6a96da522335df62a1b5",65,1,"Global A","Cow","Cow","R2","Related",36,31,"Study","Related","R2",1259,"",NA
"5dec6a96da522335df62a1b5",66,1,"Global A","Elephant","Elephant","R2","Related",32,34,"Study","Related","R2",4954,"",NA
"5dec6a96da522335df62a1b5",67,1,"Global A","Wolf","Wolf","R2","Related",29,36,"Study","Related","R2",1356,"",NA
"5dec6a96da522335df62a1b5",68,1,"Global A","Zebra","Zebra","R2","Related",27,32,"Study","Related","R2",1281,"",NA
"5dec6a96da522335df62a1b5",69,1,"Global A","Cheetah","Cheetah","R2","Related",28,33,"Study","Related","R2",7405,"",NA
"5dec6a96da522335df62a1b5",70,1,"Global A","Donkey","Donkey","R2","Related",34,29,"Study","Related","R2",1309,"",NA
"5dec6a96da522335df62a1b5",71,1,"Global A","Girraffe","Girraffe","R2","Related",31,26,"Study","Related","R2",1262,"",NA
"5dec6a96da522335df62a1b5",72,1,"Global A","Tiger","Tiger","R2","Related",25,35,"Study","Related","R2",5791,"",NA
"5dec6a96da522335df62a1b5",74,1,"Global A","","","","",NA,0,"JOL_GLOBAL","Related","JOL3",5003,"",80
"5dec6a96da522335df62a1b5",78,1,"Global A","","","","",NA,0,"FreeRecall","Related","RECALL_Test4",65001,"Bear Goat Boar Cow Horse Donkey Monkey Tiger Cow Zebra",NA
"5e45fd328bd52c0ec7b4328e",4,3,"Global C","Volcano","Volcano","R1","Related",4,2,"Study","Related","R1",1656,"",NA
"5e45fd328bd52c0ec7b4328e",5,3,"Global C","Mountain","Mountain","R1","Related",7,11,"Study","Related","R1",1735,"",NA
"5e45fd328bd52c0ec7b4328e",6,3,"Global C","Valley","Valley","R1","Related",1,3,"Study","Related","R1",1987,"",NA
"5e45fd328bd52c0ec7b4328e",7,3,"Global C","River","River","R1","Related",2,9,"Study","Related","R1",1727,"",NA
"5e45fd328bd52c0ec7b4328e",8,3,"Global C","Ocean","Ocean","R1","Related",8,6,"Study","Related","R1",1711,"",NA
"5e45fd328bd52c0ec7b4328e",9,3,"Global C","Rock","Rock","R1","Related",5,10,"Study","Related","R1",1511,"",NA
"5e45fd328bd52c0ec7b4328e",10,3,"Global C","Canyon","Canyon","R1","Related",3,5,"Study","Related","R1",1866,"",NA
"5e45fd328bd52c0ec7b4328e",11,3,"Global C","Glacier","Glacier","R1","Related",12,8,"Study","Related","R1",1594,"",NA
"5e45fd328bd52c0ec7b4328e",12,3,"Global C","Island","Island","R1","Related",9,4,"Study","Related","R1",1653,"",NA
"5e45fd328bd52c0ec7b4328e",13,3,"Global C","Hill","Hill","R1","Related",6,12,"Study","Related","R1",1971,"",NA
"5e45fd328bd52c0ec7b4328e",14,3,"Global C","Cave","Cave","R1","Related",11,13,"Study","Related","R1",1581,"",NA
"5e45fd328bd52c0ec7b4328e",15,3,"Global C","Lake","Lake","R1","Related",10,7,"Study","Related","R1",1562,"",NA
"5e45fd328bd52c0ec7b4328e",17,3,"Global C","","","","",NA,0,"JOL_GLOBAL","Related","JOL1",6000,"",70
"5e45fd328bd52c0ec7b4328e",21,3,"Global C","","","","",NA,0,"FreeRecall","Related","RECALL_Test1",65211,"volcano glacier canyon hill lake ocean mountain river",NA
"5e45fd328bd52c0ec7b4328e",23,3,"Global C","Oxygen","Oxygen","U1","Unrelated",18,14,"Study","Unrelated","U1",1521,"",NA
"5e45fd328bd52c0ec7b4328e",24,3,"Global C","Mayor","Mayor","U1","Unrelated",14,20,"Study","Unrelated","U1",2872,"",NA
"5e45fd328bd52c0ec7b4328e",25,3,"Global C","Jeep","Jeep","U1","Unrelated",23,25,"Study","Unrelated","U1",1975,"",NA
"5e45fd328bd52c0ec7b4328e",26,3,"Global C","Parrot","Parrot","U1","Unrelated",21,15,"Study","Unrelated","U1",1560,"",NA
"5e45fd328bd52c0ec7b4328e",27,3,"Global C","Rifle","Rifle","U1","Unrelated",13,21,"Study","Unrelated","U1",1644,"",NA
"5e45fd328bd52c0ec7b4328e",28,3,"Global C","Milk","Milk","U1","Unrelated",22,23,"Study","Unrelated","U1",1569,"",NA
"5e45fd328bd52c0ec7b4328e",29,3,"Global C","Hockey","Hockey","U1","Unrelated",16,16,"Study","Unrelated","U1",1817,"",NA
"5e45fd328bd52c0ec7b4328e",30,3,"Global C","Ballet","Ballet","U1","Unrelated",24,22,"Study","Unrelated","U1",1794,"",NA
"5e45fd328bd52c0ec7b4328e",31,3,"Global C","Student","Student","U1","Unrelated",15,24,"Study","Unrelated","U1",1520,"",NA
"5e45fd328bd52c0ec7b4328e",32,3,"Global C","Dollar","Dollar","U1","Unrelated",20,18,"Study","Unrelated","U1",2807,"",NA
"5e45fd328bd52c0ec7b4328e",33,3,"Global C","Pants","Pants","U1","Unrelated",17,19,"Study","Unrelated","U1",1682,"",NA
"5e45fd328bd52c0ec7b4328e",34,3,"Global C","Guitar","Guitar","U1","Unrelated",19,17,"Study","Unrelated","U1",1953,"",NA
"5e45fd328bd52c0ec7b4328e",36,3,"Global C","","","","",NA,0,"JOL_GLOBAL","Unrelated","JOL2",6001,"",50
"5e45fd328bd52c0ec7b4328e",40,3,"Global C","","","","",NA,0,"FreeRecall","Unrelated","RECALL_Test2",65884,"oxygen milk student mayor rifle jeep ",NA
"5e45fd328bd52c0ec7b4328e",42,3,"Global C","Tiger","Tiger","R2","Related",25,26,"Study","Related","R2",1685,"",NA
"5e45fd328bd52c0ec7b4328e",43,3,"Global C","Girraffe","Girraffe","R2","Related",31,37,"Study","Related","R2",3252,"",NA
"5e45fd328bd52c0ec7b4328e",44,3,"Global C","Cheetah","Cheetah","R2","Related",28,36,"Study","Related","R2",2540,"",NA
"5e45fd328bd52c0ec7b4328e",45,3,"Global C","Lion","Lion","R2","Related",26,31,"Study","Related","R2",1484,"",NA
"5e45fd328bd52c0ec7b4328e",46,3,"Global C","Bear","Bear","R2","Related",35,27,"Study","Related","R2",1973,"",NA
"5e45fd328bd52c0ec7b4328e",47,3,"Global C","Goat","Goat","R2","Related",30,28,"Study","Related","R2",1182,"",NA
"5e45fd328bd52c0ec7b4328e",48,3,"Global C","Elephant","Elephant","R2","Related",32,32,"Study","Related","R2",1584,"",NA
"5e45fd328bd52c0ec7b4328e",49,3,"Global C","Cat","Cat","R2","Related",33,34,"Study","Related","R2",1910,"",NA
"5e45fd328bd52c0ec7b4328e",50,3,"Global C","Wolf","Wolf","R2","Related",29,35,"Study","Related","R2",1077,"",NA
"5e45fd328bd52c0ec7b4328e",51,3,"Global C","Cow","Cow","R2","Related",36,30,"Study","Related","R2",2694,"",NA
"5e45fd328bd52c0ec7b4328e",52,3,"Global C","Donkey","Donkey","R2","Related",34,33,"Study","Related","R2",1507,"",NA
"5e45fd328bd52c0ec7b4328e",53,3,"Global C","Zebra","Zebra","R2","Related",27,29,"Study","Related","R2",1647,"",NA
"5e45fd328bd52c0ec7b4328e",55,3,"Global C","","","","",NA,0,"JOL_GLOBAL","Related","JOL3",6001,"",80
"5e45fd328bd52c0ec7b4328e",59,3,"Global C","","","","",NA,0,"FreeRecall","Related","RECALL_Test3",65001,"tiger girraffe lion cheetah bear donkey zebra wolf cat",NA
"5e45fd328bd52c0ec7b4328e",61,3,"Global C","Blue","Blue","U2","Unrelated",41,45,"Study","Unrelated","U2",1903,"",NA
"5e45fd328bd52c0ec7b4328e",62,3,"Global C","Cold","Cold","U2","Unrelated",40,46,"Study","Unrelated","U2",1165,"",NA
"5e45fd328bd52c0ec7b4328e",63,3,"Global C","Lipstick","Lipstick","U2","Unrelated",46,38,"Study","Unrelated","U2",1611,"",NA
"5e45fd328bd52c0ec7b4328e",64,3,"Global C","Tulip","Tulip","U2","Unrelated",39,41,"Study","Unrelated","U2",2065,"",NA
"5e45fd328bd52c0ec7b4328e",65,3,"Global C","Cruise","Cruise","U2","Unrelated",42,40,"Study","Unrelated","U2",1896,"",NA
"5e45fd328bd52c0ec7b4328e",66,3,"Global C","Shark","Shark","U2","Unrelated",43,42,"Study","Unrelated","U2",1988,"",NA
"5e45fd328bd52c0ec7b4328e",67,3,"Global C","Eye","Eye","U2","Unrelated",48,39,"Study","Unrelated","U2",2022,"",NA
"5e45fd328bd52c0ec7b4328e",68,3,"Global C","Sandal","Sandal","U2","Unrelated",37,47,"Study","Unrelated","U2",1753,"",NA
"5e45fd328bd52c0ec7b4328e",69,3,"Global C","Computer","Computer","U2","Unrelated",47,44,"Study","Unrelated","U2",1978,"",NA
"5e45fd328bd52c0ec7b4328e",70,3,"Global C","Tea","Tea","U2","Unrelated",45,49,"Study","Unrelated","U2",1355,"",NA
"5e45fd328bd52c0ec7b4328e",71,3,"Global C","Viper","Viper","U2","Unrelated",44,43,"Study","Unrelated","U2",3395,"",NA
"5e45fd328bd52c0ec7b4328e",72,3,"Global C","Fly","Fly","U2","Unrelated",38,48,"Study","Unrelated","U2",2847,"",NA
"5e45fd328bd52c0ec7b4328e",74,3,"Global C","","","","",NA,0,"JOL_GLOBAL","Unrelated","JOL4",6002,"",40
"5e45fd328bd52c0ec7b4328e",78,3,"Global C","","","","",NA,0,"FreeRecall","Unrelated","RECALL_Test4",65298,"blue cold lipstick computer tea viper",NA
"5e76d2652d882b2481d65066",4,3,"Global C","Island","Island","R1","Related",9,10,"Study","Related","R1",3590,"",NA
"5e76d2652d882b2481d65066",5,3,"Global C","River","River","R1","Related",2,4,"Study","Related","R1",1523,"",NA
"5e76d2652d882b2481d65066",6,3,"Global C","Ocean","Ocean","R1","Related",8,2,"Study","Related","R1",1438,"",NA
"5e76d2652d882b2481d65066",7,3,"Global C","Cave","Cave","R1","Related",11,13,"Study","Related","R1",1462,"",NA
"5e76d2652d882b2481d65066",8,3,"Global C","Hill","Hill","R1","Related",6,12,"Study","Related","R1",1490,"",NA
