Username,ID,ExperimentName,Session,Trial,Date,TimeDif,"Condition Number","Stimuli File","Order File","Condition Description","Condition Notes",Stimuli*Cue,Stimuli*Answer,Stimuli*Shuffle,"Stimuli*Stimuli Notes",Stimuli*Value,Procedure*Item,"Procedure*Trial Type","Procedure*Max Time","Procedure*Min Time",Procedure*Text,"Procedure*Procedure Notes",Procedure*Shuffle,Procedure*,Response*RT,Response*Response,Response*Accuracy,Response*RTfirst,Response*RTlast,Response*strictAcc,Response*lenientAcc,Response*focus,Response*JOL,Response*Focus
stephanieAgwanihu,grablr45vr,DRM1_MSU,1,1,2023-11-01T21:24:55+00:00,7.164824962616,4,Stim_B.csv,Global.csv,Global,B,,,,,,0,Instruct,-,5,"In this section, you will be presented with a series of words. Please study each word carefully. Your memory will be tested!",Initial_Instruct,Instruct1,,7029,,,-1,-1,,,,,1
stephanieAgwanihu,grablr45vr,DRM1_MSU,1,2,2023-11-01T21:25:09+00:00,13.774922132492,4,Stim_B.csv,Global.csv,Global,B,,,,,,0,Instruct,User,5,"After studying each LIST of words, you will be asked to rate your ability to remember ALL of the words in the list on a later test. You will make these ratings using a scale of 0 to 100. A rating of 0 = WILL NOT REMEMBER, while a rating of 100 = WILL DEFINITELY REMEMBER. Please try to be as accurate as possible with these ratings!",,BLIPBLOOP,,13575,,,-1,-1,,,,,1
stephanieAgwanihu,grablr45vr,DRM1_MSU,1,3,2023-11-01T21:25:13+00:00,3.7732679843903,4,Stim_B.csv,Global.csv,Global,B,,,,,,0,Instruct,User,-,"You will now begin the study. Click next when you are ready to begin.",,Instruct16,,3415,,,-1,-1,,,,,1
stephanieAgwanihu,grablr45vr,DRM1_MSU,1,4,2023-11-01T21:25:15+00:00,2.5083708763123,4,Stim_B.csv,Global.csv,Global,B,aroma,,Win_1,,,2,Study,User,-,,Window,Win_1,,2344,,,-1,-1,,,,,1
stephanieAgwanihu,grablr45vr,DRM1_MSU,1,5,2023-11-01T21:25:17+00:00,1.6772129535675,4,Stim_B.csv,Global.csv,Global,B,scent,,Win_2,,,3,Study,User,-,,Window,Win_2,,1529,,,-1,-1,,,,,1
stephanieAgwanihu,grablr45vr,DRM1_MSU,1,6,2023-11-01T21:25:18+00:00,1.0490369796753,4,Stim_B.csv,Global.csv,Global,B,whiff,,Win_3,,,4,Study,User,-,,Window,Win_3,,872,,,-1,-1,,,,,1
stephanieAgwanihu,grablr45vr,DRM1_MSU,1,7,2023-11-01T21:25:19+00:00,1.0912790298462,4,Stim_B.csv,Global.csv,Global,B,stench,,Win_4,,,5,Study,User,-,,Window,Win_4,,910,,,-1,-1,,,,,1
stephanieAgwanihu,grablr45vr,DRM1_MSU,1,8,2023-11-01T21:25:21+00:00,1.4571211338043,4,Stim_B.csv,Global.csv,Global,B,reek,,Win_5,,,6,Study,User,-,,Window,Win_5,,1162,,,-1,-1,,,,,1
stephanieAgwanihu,grablr45vr,DRM1_MSU,1,9,2023-11-01T21:25:22+00:00,0.97078800201416,4,Stim_B.csv,Global.csv,Global,B,sniff,,Win_6,,,7,Study,User,-,,Window,Win_6,,786,,,-1,-1,,,,,1
stephanieAgwanihu,grablr45vr,DRM1_MSU,1,10,2023-11-01T21:25:23+00:00,1.6201419830322,4,Stim_B.csv,Global.csv,Global,B,perfume,,Win_7,,,8,Study,User,-,,Window,Win_7,,1435,,,-1,-1,,,,,1
stephanieAgwanihu,grablr45vr,DRM1_MSU,1,11,2023-11-01T21:25:24+00:00,0.94992899894714,4,Stim_B.csv,Global.csv,Global,B,fragrance,,Win_8,,,9,Study,User,-,,Window,Win_8,,775,,,-1,-1,,,,,1
stephanieAgwanihu,grablr45vr,DRM1_MSU,1,12,2023-11-01T21:25:26+00:00,1.4734828472137,4,Stim_B.csv,Global.csv,Global,B,nose,,Win_9,,,10,Study,User,-,,Window,Win_9,,1290,,,-1,-1,,,,,1
stephanieAgwanihu,grablr45vr,DRM1_MSU,1,13,2023-11-01T21:25:27+00:00,0.93292903900146,4,Stim_B.csv,Global.csv,Global,B,rose,,Win_10,,,11,Study,User,-,,Window,Win_10,,760,,,-1,-1,,,,,1
stephanieAgwanihu,grablr45vr,DRM1_MSU,1,14,2023-11-01T21:25:28+00:00,0.96652412414551,4,Stim_B.csv,Global.csv,Global,B,salts,,Win_11,,,12,Study,User,-,,Window,Win_11,,816,,,-1,-1,,,,,1
stephanieAgwanihu,grablr45vr,DRM1_MSU,1,15,2023-11-01T21:25:29+00:00,0.91603899002075,4,Stim_B.csv,Global.csv,Global,B,breathe,,Win_12,,,13,Study,User,-,,Window,Win_12,,726,,,-1,-1,,,,,1
stephanieAgwanihu,grablr45vr,DRM1_MSU,1,16,2023-11-01T21:25:33+00:00,4.6823680400848,4,Stim_B.csv,Global.csv,Global,B,,,,,,0,Instruct,User,-,"You have completed this section and will now be asked to judge your ability to remember the list items. You will have four seconds to type your rating. Please click next to continue.",,Next_List1,,4527,,,-1,-1,,,,,1
stephanieAgwanihu,grablr45vr,DRM1_MSU,1,17,2023-11-01T21:25:41+00:00,7.9358179569244,4,Stim_B.csv,Global.csv,Global,B,,,,,,0,JOL_GLOBAL,User,2.5,"How likely are you to correctly recall each of the items you just studied?|Type your response on a scale from 0-100 and then press Enter (0 = WILL NOT REMEMBER; 100 = DEFINITELY WILL REMEMBER).",Related,JOL1,,7776,,,5789,6135,,,,70,1
stephanieAgwanihu,grablr45vr,DRM1_MSU,1,18,2023-11-01T21:25:47+00:00,5.8249449729919,4,Stim_B.csv,Global.csv,Global,B,,,,,,0,Instruct,User,3,"You will now be presented with a new study list. Click next when you are ready to begin.",,NEXT_LIST,,5657,,,-1,-1,,,,,1
stephanieAgwanihu,grablr45vr,DRM1_MSU,1,19,2023-11-01T21:25:49+00:00,1.9810259342194,4,Stim_B.csv,Global.csv,Global,B,hard,,R1,,,14,Study,User,-,,Rough,R1,,1816,,,-1,-1,,,,,1
stephanieAgwanihu,grablr45vr,DRM1_MSU,1,20,2023-11-01T21:25:50+00:00,1.0244250297546,4,Stim_B.csv,Global.csv,Global,B,loud,,R2,,,15,Study,User,-,,Rough,R2,,842,,,-1,-1,,,,,1
stephanieAgwanihu,grablr45vr,DRM1_MSU,1,21,2023-11-01T21:25:51+00:00,0.90179991722107,4,Stim_B.csv,Global.csv,Global,B,tender,,R3,,,16,Study,User,-,,Rough,R3,,753,,,-1,-1,,,,,1
stephanieAgwanihu,grablr45vr,DRM1_MSU,1,22,2023-11-01T21:25:52+00:00,1.0763750076294,4,Stim_B.csv,Global.csv,Global,B,fluffy,,R4,,,17,Study,User,-,,Rough,R4,,875,,,-1,-1,,,,,1
stephanieAgwanihu,grablr45vr,DRM1_MSU,1,23,2023-11-01T21:25:53+00:00,0.93891716003418,4,Stim_B.csv,Global.csv,Global,B,pillow,,R5,,,18,Study,User,-,,Rough,R5,,782,,,-1,-1,,,,,1
stephanieAgwanihu,grablr45vr,DRM1_MSU,1,24,2023-11-01T21:25:54+00:00,1.0010869503021,4,Stim_B.csv,Global.csv,Global,B,downy,,R6,,,19,Study,User,-,,Rough,R6,,850,,,-1,-1,,,,,1
stephanieAgwanihu,grablr45vr,DRM1_MSU,1,25,2023-11-01T21:25:55+00:00,0.95501399040222,4,Stim_B.csv,Global.csv,Global,B,plush,,R7,,,20,Study,User,-,,Rough,R7,,815,,,-1,-1,,,,,1
stephanieAgwanihu,grablr45vr,DRM1_MSU,1,26,2023-11-01T21:25:56+00:00,1.0021889209747,4,Stim_B.csv,Global.csv,Global,B,cotton,,R8,,,21,Study,User,-,,Rough,R8,,857,,,-1,-1,,,,,1
stephanieAgwanihu,grablr45vr,DRM1_MSU,1,27,2023-11-01T21:25:57+00:00,0.94221615791321,4,Stim_B.csv,Global.csv,Global,B,skin,,R9,,,22,Study,User,-,,Rough,R9,,799,,,-1,-1,,,,,1
stephanieAgwanihu,grablr45vr,DRM1_MSU,1,28,2023-11-01T21:25:58+00:00,0.98658585548401,4,Stim_B.csv,Global.csv,Global,B,fur,,R10,,,23,Study,User,-,,Rough,R10,,818,,,-1,-1,,,,,1
stephanieAgwanihu,grablr45vr,DRM1_MSU,1,29,2023-11-01T21:26:06+00:00,8.5958399772644,4,Stim_B.csv,Global.csv,Global,B,touch,,R11,,,24,Study,User,-,,Rough,R11,,8360,,,-1,-1,,,,,1
stephanieAgwanihu,grablr45vr,DRM1_MSU,1,30,2023-11-01T21:26:08+00:00,1.3469190597534,4,Stim_B.csv,Global.csv,Global,B,furry,,R12,,,25,Study,User,-,,Rough,R12,,990,,,-1,-1,,,,,1
stephanieAgwanihu,grablr45vr,DRM1_MSU,1,31,2023-11-01T21:26:11+00:00,2.9892020225525,4,Stim_B.csv,Global.csv,Global,B,,,,,,0,Instruct,User,-,"You have completed this section and will now be asked to judge your ability to remember the list items. You will have four seconds to type your rating. Please click next to continue.",,Next_List1,,2823,,,-1,-1,,,,,1
stephanieAgwanihu,grablr45vr,DRM1_MSU,1,32,2023-11-01T21:26:18+00:00,6.8139591217041,4,Stim_B.csv,Global.csv,Global,B,,,,,,0,JOL_GLOBAL,User,2.5,"How likely are you to correctly recall each of the items you just studied?|Type your response on a scale from 0-100 and then press Enter (0 = WILL NOT REMEMBER; 100 = DEFINITELY WILL REMEMBER).",Unrelated,JOL2,,6608,,,3586,4434,,,,73,1
stephanieAgwanihu,grablr45vr,DRM1_MSU,1,33,2023-11-01T21:26:21+00:00,3.918506860733,4,Stim_B.csv,Global.csv,Global,B,,,,,,0,Instruct,User,3,"You will now be presented with a new study list. Click next when you are ready to begin.",,NEXT_LIST,,3738,,,-1,-1,,,,,1
stephanieAgwanihu,grablr45vr,DRM1_MSU,1,34,2023-11-01T21:26:23+00:00,1.7417891025543,4,Stim_B.csv,Global.csv,Global,B,honey,,A1,,,26,Study,User,-,,Anger,A1,,1555,,,-1,-1,,,,,1
stephanieAgwanihu,grablr45vr,DRM1_MSU,1,35,2023-11-01T21:26:24+00:00,0.94282603263855,4,Stim_B.csv,Global.csv,Global,B,bitter,,A2,,,27,Study,User,-,,Anger,A2,,746,,,-1,-1,,,,,1
stephanieAgwanihu,grablr45vr,DRM1_MSU,1,36,2023-11-01T21:26:25+00:00,0.98841381072998,4,Stim_B.csv,Global.csv,Global,B,sugar,,A3,,,28,Study,User,-,,Anger,A3,,797,,,-1,-1,,,,,1
stephanieAgwanihu,grablr45vr,DRM1_MSU,1,37,2023-11-01T21:26:26+00:00,0.88998198509216,4,Stim_B.csv,Global.csv,Global,B,sour,,A4,,,29,Study,User,-,,Anger,A4,,706,,,-1,-1,,,,,1
stephanieAgwanihu,grablr45vr,DRM1_MSU,1,38,2023-11-01T21:26:27+00:00,0.99261903762817,4,Stim_B.csv,Global.csv,Global,B,candy,,A5,,,30,Study,User,-,,Anger,A5,,808,,,-1,-1,,,,,1
stephanieAgwanihu,grablr45vr,DRM1_MSU,1,39,2023-11-01T21:26:28+00:00,1.1423871517181,4,Stim_B.csv,Global.csv,Global,B,tart,,A6,,,31,Study,User,-,,Anger,A6,,987,,,-1,-1,,,,,1
stephanieAgwanihu,grablr45vr,DRM1_MSU,1,40,2023-11-01T21:26:29+00:00,0.98988580703735,4,Stim_B.csv,Global.csv,Global,B,chocolate,,A7,,,32,Study,User,-,,Anger,A7,,816,,,-1,-1,,,,,1
stephanieAgwanihu,grablr45vr,DRM1_MSU,1,41,2023-11-01T21:26:30+00:00,0.95054912567139,4,Stim_B.csv,Global.csv,Global,B,nice,,A8,,,33,Study,User,-,,Anger,A8,,773,,,-1,-1,,,,,1
stephanieAgwanihu,grablr45vr,DRM1_MSU,1,42,2023-11-01T21:26:31+00:00,1.0584790706635,4,Stim_B.csv,Global.csv,Global,B,taste,,A9,,,34,Study,User,-,,Anger,A9,,876,,,-1,-1,,,,,1
stephanieAgwanihu,grablr45vr,DRM1_MSU,1,43,2023-11-01T21:26:32+00:00,0.84188079833984,4,Stim_B.csv,Global.csv,Global,B,cake,,A10,,,35,Study,User,-,,Anger,A10,,651,,,-1,-1,,,,,1
stephanieAgwanihu,grablr45vr,DRM1_MSU,1,44,2023-11-01T21:26:33+00:00,1.1588740348816,4,Stim_B.csv,Global.csv,Global,B,good,,A11,,,36,Study,User,-,,Anger,A11,,989,,,-1,-1,,,,,1
stephanieAgwanihu,grablr45vr,DRM1_MSU,1,45,2023-11-01T21:26:34+00:00,0.89358115196228,4,Stim_B.csv,Global.csv,Global,B,tooth,,A12,,,37,Study,User,-,,Anger,A12,,701,,,-1,-1,,,,,1
stephanieAgwanihu,grablr45vr,DRM1_MSU,1,46,2023-11-01T21:26:36+00:00,2.3379559516907,4,Stim_B.csv,Global.csv,Global,B,,,,,,0,Instruct,User,-,"You have completed this section and will now be asked to judge your ability to remember the list items. You will have four seconds to type your rating. Please click next to continue.",,Next_List1,,2186,,,-1,-1,,,,,1
stephanieAgwanihu,grablr45vr,DRM1_MSU,1,47,2023-11-01T21:26:41+00:00,4.1711850166321,4,Stim_B.csv,Global.csv,Global,B,,,,,,0,JOL_GLOBAL,User,2.5,"How likely are you to correctly recall each of the items you just studied?|Type your response on a scale from 0-100 and then press Enter (0 = WILL NOT REMEMBER; 100 = DEFINITELY WILL REMEMBER).",Related,JOL3,,3810,,,1881,2142,,,,65,1
stephanieAgwanihu,grablr45vr,DRM1_MSU,1,48,2023-11-01T21:26:45+00:00,4.6418418884277,4,Stim_B.csv,Global.csv,Global,B,,,,,,0,Instruct,User,3,"You will now be presented with a new study list. Click next when you are ready to begin.",,NEXT_LIST,,4324,,,-1,-1,,,,,1
stephanieAgwanihu,grablr45vr,DRM1_MSU,1,49,2023-11-01T21:26:47+00:00,1.8357751369476,4,Stim_B.csv,Global.csv,Global,B,table,,T1,,,38,Study,User,-,,Trash,T1,,1672,,,-1,-1,,,,,1
stephanieAgwanihu,grablr45vr,DRM1_MSU,1,50,2023-11-01T21:26:49+00:00,1.7243928909302,4,Stim_B.csv,Global.csv,Global,B,swivel,,T2,,,39,Study,User,-,,Trash,T2,,1530,,,-1,-1,,,,,1
stephanieAgwanihu,grablr45vr,DRM1_MSU,1,51,2023-11-01T21:26:50+00:00,1.0915129184723,4,Stim_B.csv,Global.csv,Global,B,rocking,,T3,,,40,Study,User,-,,Trash,T3,,946,,,-1,-1,,,,,1
stephanieAgwanihu,grablr45vr,DRM1_MSU,1,52,2023-11-01T21:26:51+00:00,1.0281970500946,4,Stim_B.csv,Global.csv,Global,B,recliner,,T4,,,41,Study,User,-,,Trash,T4,,867,,,-1,-1,,,,,1
stephanieAgwanihu,grablr45vr,DRM1_MSU,1,53,2023-11-01T21:26:52+00:00,1.0746250152588,4,Stim_B.csv,Global.csv,Global,B,seat,,T5,,,42,Study,User,-,,Trash,T5,,907,,,-1,-1,,,,,1
stephanieAgwanihu,grablr45vr,DRM1_MSU,1,54,2023-11-01T21:26:58+00:00,5.6342420578003,4,Stim_B.csv,Global.csv,Global,B,stool,,T6,,,43,Study,User,-,,Trash,T6,,5386,,,-1,-1,,,,,1
stephanieAgwanihu,grablr45vr,DRM1_MSU,1,55,2023-11-01T21:26:58+00:00,0.87515687942505,4,Stim_B.csv,Global.csv,Global,B,desk,,T7,,,44,Study,User,-,,Trash,T7,,682,,,-1,-1,,,,,1
stephanieAgwanihu,grablr45vr,DRM1_MSU,1,56,2023-11-01T21:26:59+00:00,0.93503022193909,4,Stim_B.csv,Global.csv,Global,B,couch,,T8,,,45,Study,User,-,,Trash,T8,,744,,,-1,-1,,,,,1
stephanieAgwanihu,grablr45vr,DRM1_MSU,1,57,2023-11-01T21:27:00+00:00,1.0495569705963,4,Stim_B.csv,Global.csv,Global,B,sit,,T9,,,46,Study,User,-,,Trash,T9,,879,,,-1,-1,,,,,1
stephanieAgwanihu,grablr45vr,DRM1_MSU,1,58,2023-11-01T21:27:01+00:00,1.0809948444366,4,Stim_B.csv,Global.csv,Global,B,sofa,,T10,,,47,Study,User,-,,Trash,T10,,906,,,-1,-1,,,,,1
stephanieAgwanihu,grablr45vr,DRM1_MSU,1,59,2023-11-01T21:27:03+00:00,1.0228860378265,4,Stim_B.csv,Global.csv,Global,B,bench,,T11,,,48,Study,User,-,,Trash,T11,,744,,,-1,-1,,,,,1
stephanieAgwanihu,grablr45vr,DRM1_MSU,1,60,2023-11-01T21:27:03+00:00,0.89764809608459,4,Stim_B.csv,Global.csv,Global,B,sitting,,T12,,,49,Study,User,-,,Trash,T12,,693,,,-1,-1,,,,,1
stephanieAgwanihu,grablr45vr,DRM1_MSU,1,61,2023-11-01T21:27:09+00:00,5.7059869766235,4,Stim_B.csv,Global.csv,Global,B,,,,,,0,Instruct,User,-,"You have completed this section and will now be asked to judge your ability to remember the list items. You will have four seconds to type your rating. Please click next to continue.",,Next_List1,,5511,,,-1,-1,,,,,1
stephanieAgwanihu,grablr45vr,DRM1_MSU,1,62,2023-11-01T21:27:19+00:00,10.373497962952,4,Stim_B.csv,Global.csv,Global,B,,,,,,0,JOL_GLOBAL,User,2.5,"How likely are you to correctly recall each of the items you just studied?|Type your response on a scale from 0-100 and then press Enter (0 = WILL NOT REMEMBER; 100 = DEFINITELY WILL REMEMBER).",Related,JOL4,,10201,,,3649,8247,,,,53,1
stephanieAgwanihu,grablr45vr,DRM1_MSU,1,63,2023-11-01T21:27:23+00:00,3.958172082901,4,Stim_B.csv,Global.csv,Global,B,,,,,,0,Instruct,User,3,"You will now be presented with a new study list. Click next when you are ready to begin.",,NEXT_LIST,,3761,,,-1,-1,,,,,1
stephanieAgwanihu,grablr45vr,DRM1_MSU,1,64,2023-11-01T21:27:26+00:00,2.2158210277557,4,Stim_B.csv,Global.csv,Global,B,climber,,D1,,,50,Study,User,-,,Doctor,D1,,2016,,,-1,-1,,,,,1
stephanieAgwanihu,grablr45vr,DRM1_MSU,1,65,2023-11-01T21:27:26+00:00,0.55703687667847,4,Stim_B.csv,Global.csv,Global,B,hill,,D2,,,51,Study,User,-,,Doctor,D2,,407,,,-1,-1,,,,,1
stephanieAgwanihu,grablr45vr,DRM1_MSU,1,66,2023-11-01T21:27:27+00:00,0.60787391662598,4,Stim_B.csv,Global.csv,Global,B,climb,,D3,,,52,Study,User,-,,Doctor,D3,,450,,,-1,-1,,,,,1
stephanieAgwanihu,grablr45vr,DRM1_MSU,1,67,2023-11-01T21:27:28+00:00,0.69327020645142,4,Stim_B.csv,Global.csv,Global,B,molehill,,D4,,,53,Study,User,-,,Doctor,D4,,536,,,-1,-1,,,,,1
stephanieAgwanihu,grablr45vr,DRM1_MSU,1,68,2023-11-01T21:27:28+00:00,0.53944897651672,4,Stim_B.csv,Global.csv,Global,B,peak,,D5,,,54,Study,User,-,,Doctor,D5,,369,,,-1,-1,,,,,1
stephanieAgwanihu,grablr45vr,DRM1_MSU,1,69,2023-11-01T21:27:29+00:00,0.93514585494995,4,Stim_B.csv,Global.csv,Global,B,valley,,D6,,,55,Study,User,-,,Doctor,D6,,734,,,-1,-1,,,,,1
stephanieAgwanihu,grablr45vr,DRM1_MSU,1,70,2023-11-01T21:27:30+00:00,0.96808505058289,4,Stim_B.csv,Global.csv,Global,B,summit,,D7,,,56,Study,User,-,,Doctor,D7,,821,,,-1,-1,,,,,1
stephanieAgwanihu,grablr45vr,DRM1_MSU,1,71,2023-11-01T21:27:31+00:00,0.96234893798828,4,Stim_B.csv,Global.csv,Global,B,steep,,D8,,,57,Study,User,-,,Doctor,D8,,811,,,-1,-1,,,,,1
stephanieAgwanihu,grablr45vr,DRM1_MSU,1,72,2023-11-01T21:27:32+00:00,1.0117859840393,4,Stim_B.csv,Global.csv,Global,B,ski,,D9,,,58,Study,User,-,,Doctor,D9,,840,,,-1,-1,,,,,1
stephanieAgwanihu,grablr45vr,DRM1_MSU,1,73,2023-11-01T21:27:33+00:00,0.87505507469177,4,Stim_B.csv,Global.csv,Global,B,bike,,D10,,,59,Study,User,-,,Doctor,D10,,686,,,-1,-1,,,,,1
stephanieAgwanihu,grablr45vr,DRM1_MSU,1,74,2023-11-01T21:27:34+00:00,1.243968963623,4,Stim_B.csv,Global.csv,Global,B,goat,,D11,,,60,Study,User,-,,Doctor,D11,,823,,,-1,-1,,,,,1
stephanieAgwanihu,grablr45vr,DRM1_MSU,1,75,2023-11-01T21:27:35+00:00,1.0819871425629,4,Stim_B.csv,Global.csv,Global,B,glacier,,D12,,,61,Study,User,-,,Doctor,D12,,900,,,-1,-1,,,,,1
stephanieAgwanihu,grablr45vr,DRM1_MSU,1,76,2023-11-01T21:27:38+00:00,2.7408728599548,4,Stim_B.csv,Global.csv,Global,B,,,,,,0,Instruct,User,-,"You have completed this section and will now be asked to judge your ability to remember the list items. You will have four seconds to type your rating. Please click next to continue.",,Next_List1,,2564,,,-1,-1,,,,,1
stephanieAgwanihu,grablr45vr,DRM1_MSU,1,77,2023-11-01T21:27:44+00:00,6.4070029258728,4,Stim_B.csv,Global.csv,Global,B,,,,,,0,JOL_GLOBAL,User,2.5,"How likely are you to correctly recall each of the items you just studied?|Type your response on a scale from 0-100 and then press Enter (0 = WILL NOT REMEMBER; 100 = DEFINITELY WILL REMEMBER).",Related,JOL5,,4946,,,2640,2791,,,,35,1
stephanieAgwanihu,grablr45vr,DRM1_MSU,1,78,2023-11-01T21:27:48+00:00,3.8985621929169,4,Stim_B.csv,Global.csv,Global,B,,,,,,0,Instruct,User,3,"You will now be presented with a new study list. Click next when you are ready to begin.",,NEXT_LIST,,3734,,,-1,-1,,,,,1
stephanieAgwanihu,grablr45vr,DRM1_MSU,1,79,2023-11-01T21:27:50+00:00,1.9217839241028,4,Stim_B.csv,Global.csv,Global,B,band,,S1,,,62,Study,User,-,,Slow,S1,,1755,,,-1,-1,,,,,1
stephanieAgwanihu,grablr45vr,DRM1_MSU,1,80,2023-11-01T21:27:51+00:00,1.0199980735779,4,Stim_B.csv,Global.csv,Global,B,concert,,S2,,,63,Study,User,-,,Slow,S2,,823,,,-1,-1,,,,,1
stephanieAgwanihu,grablr45vr,DRM1_MSU,1,81,2023-11-01T21:27:52+00:00,0.98847389221191,4,Stim_B.csv,Global.csv,Global,B,jazz,,S3,,,64,Study,User,-,,Slow,S3,,808,,,-1,-1,,,,,1
stephanieAgwanihu,grablr45vr,DRM1_MSU,1,82,2023-11-01T21:27:53+00:00,0.941654920578,4,Stim_B.csv,Global.csv,Global,B,symphony,,S4,,,65,Study,User,-,,Slow,S4,,746,,,-1,-1,,,,,1
stephanieAgwanihu,grablr45vr,DRM1_MSU,1,83,2023-11-01T21:27:54+00:00,0.93922209739685,4,Stim_B.csv,Global.csv,Global,B,orchestra,,S5,,,66,Study,User,-,,Slow,S5,,707,,,-1,-1,,,,,1
stephanieAgwanihu,grablr45vr,DRM1_MSU,1,84,2023-11-01T21:27:55+00:00,1.0843830108643,4,Stim_B.csv,Global.csv,Global,B,rhythm,,S6,,,67,Study,User,-,,Slow,S6,,914,,,-1,-1,,,,,1
stephanieAgwanihu,grablr45vr,DRM1_MSU,1,85,2023-11-01T21:27:56+00:00,1.1474840641022,4,Stim_B.csv,Global.csv,Global,B,radio,,S7,,,68,Study,User,-,,Slow,S7,,976,,,-1,-1,,,,,1
stephanieAgwanihu,grablr45vr,DRM1_MSU,1,86,2023-11-01T21:27:57+00:00,1.0098910331726,4,Stim_B.csv,Global.csv,Global,B,melody,,S8,,,69,Study,User,-,,Slow,S8,,813,,,-1,-1,,,,,1
stephanieAgwanihu,grablr45vr,DRM1_MSU,1,87,2023-11-01T21:27:58+00:00,0.90133380889893,4,Stim_B.csv,Global.csv,Global,B,piano,,S9,,,70,Study,User,-,,Slow,S9,,708,,,-1,-1,,,,,1
stephanieAgwanihu,grablr45vr,DRM1_MSU,1,88,2023-11-01T21:27:59+00:00,0.84551119804382,4,Stim_B.csv,Global.csv,Global,B,sound,,S10,,,71,Study,User,-,,Slow,S10,,684,,,-1,-1,,,,,1
stephanieAgwanihu,grablr45vr,DRM1_MSU,1,89,2023-11-01T21:28:00+00:00,1.0368959903717,4,Stim_B.csv,Global.csv,Global,B,instrument,,S11,,,72,Study,User,-,,Slow,S11,,882,,,-1,-1,,,,,1
stephanieAgwanihu,grablr45vr,DRM1_MSU,1,90,2023-11-01T21:28:01+00:00,1.2867429256439,4,Stim_B.csv,Global.csv,Global,B,note,,S12,,,73,Study,User,-,,Slow,S12,,995,,,-1,-1,,,,,1
stephanieAgwanihu,grablr45vr,DRM1_MSU,1,91,2023-11-01T21:28:04+00:00,2.3200500011444,4,Stim_B.csv,Global.csv,Global,B,,,,,,0,Instruct,User,-,"You have completed this section and will now be asked to judge your ability to remember the list items. You will have four seconds to type your rating. Please click next to continue.",,Next_List1,,2123,,,-1,-1,,,,,1
stephanieAgwanihu,grablr45vr,DRM1_MSU,1,92,2023-11-01T21:28:09+00:00,4.9611439704895,4,Stim_B.csv,Global.csv,Global,B,,,,,,0,JOL_GLOBAL,User,2.5,"How likely are you to correctly recall each of the items you just studied?|Type your response on a scale from 0-100 and then press Enter (0 = WILL NOT REMEMBER; 100 = DEFINITELY WILL REMEMBER).",Related,JOL6,,4769,,,2427,2557,,,,79,1
stephanieAgwanihu,grablr45vr,DRM1_MSU,1,93,2023-11-01T21:28:15+00:00,6.7234680652618,4,Stim_B.csv,Global.csv,Global,B,,,,,,0,Instruct,User,3,"You will now be presented with a new study list. Click next when you are ready to begin.",,NEXT_LIST,,6558,,,-1,-1,,,,,1
stephanieAgwanihu,grablr45vr,DRM1_MSU,1,94,2023-11-01T21:28:17+00:00,1.7407958507538,4,Stim_B.csv,Global.csv,Global,B,foam,,RR1,,,74,Study,User,-,,River,RR1,,1601,,,-1,-1,,,,,1
stephanieAgwanihu,grablr45vr,DRM1_MSU,1,95,2023-11-01T21:28:18+00:00,0.88741517066956,4,Stim_B.csv,Global.csv,Global,B,latex,,RR2,,,75,Study,User,-,,River,RR2,,699,,,-1,-1,,,,,1
stephanieAgwanihu,grablr45vr,DRM1_MSU,1,96,2023-11-01T21:28:19+00:00,0.89776992797852,4,Stim_B.csv,Global.csv,Global,B,galoshes,,RR3,,,76,Study,User,-,,River,RR3,,757,,,-1,-1,,,,,1
stephanieAgwanihu,grablr45vr,DRM1_MSU,1,97,2023-11-01T21:28:20+00:00,0.85933899879456,4,Stim_B.csv,Global.csv,Global,B,tire,,RR4,,,77,Study,User,-,,River,RR4,,681,,,-1,-1,,,,,1
stephanieAgwanihu,grablr45vr,DRM1_MSU,1,98,2023-11-01T21:28:20+00:00,0.69412088394165,4,Stim_B.csv,Global.csv,Global,B,flexible,,RR5,,,78,Study,User,-,,River,RR5,,516,,,-1,-1,,,,,1
stephanieAgwanihu,grablr45vr,DRM1_MSU,1,99,2023-11-01T21:28:21+00:00,0.79170107841492,4,Stim_B.csv,Global.csv,Global,B,elastic,,RR6,,,79,Study,User,-,,River,RR6,,626,,,-1,-1,,,,,1
stephanieAgwanihu,grablr45vr,DRM1_MSU,1,100,2023-11-01T21:28:22+00:00,0.65683913230896,4,Stim_B.csv,Global.csv,Global,B,gloves,,RR7,,,80,Study,User,-,,River,RR7,,469,,,-1,-1,,,,,1
stephanieAgwanihu,grablr45vr,DRM1_MSU,1,101,2023-11-01T21:28:23+00:00,0.83823680877686,4,Stim_B.csv,Global.csv,Global,B,eraser,,RR8,,,81,Study,User,-,,River,RR8,,683,,,-1,-1,,,,,1
stephanieAgwanihu,grablr45vr,DRM1_MSU,1,102,2023-11-01T21:28:24+00:00,0.95379018783569,4,Stim_B.csv,Global.csv,Global,B,bounce,,RR9,,,82,Study,User,-,,River,RR9,,767,,,-1,-1,,,,,1
stephanieAgwanihu,grablr45vr,DRM1_MSU,1,103,2023-11-01T21:28:24+00:00,0.68677401542664,4,Stim_B.csv,Global.csv,Global,B,ball,,RR10,,,83,Study,User,-,,River,RR10,,499,,,-1,-1,,,,,1
stephanieAgwanihu,grablr45vr,DRM1_MSU,1,104,2023-11-01T21:28:25+00:00,0.95508790016174,4,Stim_B.csv,Global.csv,Global,B,soles,,RR11,,,84,Study,User,-,,River,RR11,,794,,,-1,-1,,,,,1
stephanieAgwanihu,grablr45vr,DRM1_MSU,1,105,2023-11-01T21:28:26+00:00,0.96789908409119,4,Stim_B.csv,Global.csv,Global,B,springy,,RR12,,,85,Study,User,-,,River,RR12,,780,,,-1,-1,,,,,1
stephanieAgwanihu,grablr45vr,DRM1_MSU,1,106,2023-11-01T21:28:28+00:00,2.0969738960266,4,Stim_B.csv,Global.csv,Global,B,,,,,,0,Instruct,User,-,"You have completed this section and will now be asked to judge your ability to remember the list items. You will have four seconds to type your rating. Please click next to continue.",,Next_List1,,1946,,,-1,-1,,,,,1
stephanieAgwanihu,grablr45vr,DRM1_MSU,1,107,2023-11-01T21:28:33+00:00,4.5745871067047,4,Stim_B.csv,Global.csv,Global,B,,,,,,0,JOL_GLOBAL,User,2.5,"How likely are you to correctly recall each of the items you just studied?|Type your response on a scale from 0-100 and then press Enter (0 = WILL NOT REMEMBER; 100 = DEFINITELY WILL REMEMBER).",Related,JOL7,,4359,,,2130,2357,,,,75,1
stephanieAgwanihu,grablr45vr,DRM1_MSU,1,108,2023-11-01T21:28:37+00:00,3.8115348815918,4,Stim_B.csv,Global.csv,Global,B,,,,,,0,Instruct,User,3,"You will now be presented with a new study list. Click next when you are ready to begin.",,NEXT_LIST,,3642,,,-1,-1,,,,,1
stephanieAgwanihu,grablr45vr,DRM1_MSU,1,109,2023-11-01T21:28:39+00:00,2.3935689926147,4,Stim_B.csv,Global.csv,Global,B,toe,,B1,,,86,Study,User,-,,Bread,B1,,2219,,,-1,-1,,,,,1
stephanieAgwanihu,grablr45vr,DRM1_MSU,1,110,2023-11-01T21:28:40+00:00,0.99755001068115,4,Stim_B.csv,Global.csv,Global,B,inch,,B2,,,87,Study,User,-,,Bread,B2,,809,,,-1,-1,,,,,1
stephanieAgwanihu,grablr45vr,DRM1_MSU,1,111,2023-11-01T21:28:41+00:00,1.258533000946,4,Stim_B.csv,Global.csv,Global,B,ankle,,B3,,,88,Study,User,-,,Bread,B3,,804,,,-1,-1,,,,,1
stephanieAgwanihu,grablr45vr,DRM1_MSU,1,112,2023-11-01T21:28:42+00:00,1.0607340335846,4,Stim_B.csv,Global.csv,Global,B,shoe,,B4,,,89,Study,User,-,,Bread,B4,,900,,,-1,-1,,,,,1
stephanieAgwanihu,grablr45vr,DRM1_MSU,1,113,2023-11-01T21:28:43+00:00,1.0271139144897,4,Stim_B.csv,Global.csv,Global,B,sandals,,B5,,,90,Study,User,-,,Bread,B5,,858,,,-1,-1,,,,,1
stephanieAgwanihu,grablr45vr,DRM1_MSU,1,114,2023-11-01T21:28:44+00:00,0.87005400657654,4,Stim_B.csv,Global.csv,Global,B,sock,,B6,,,91,Study,User,-,,Bread,B6,,702,,,-1,-1,,,,,1
stephanieAgwanihu,grablr45vr,DRM1_MSU,1,115,2023-11-01T21:28:45+00:00,0.95491003990173,4,Stim_B.csv,Global.csv,Global,B,hand,,B7,,,92,Study,User,-,,Bread,B7,,812,,,-1,-1,,,,,1
stephanieAgwanihu,grablr45vr,DRM1_MSU,1,116,2023-11-01T21:28:46+00:00,1.0349011421204,4,Stim_B.csv,Global.csv,Global,B,boot,,B8,,,93,Study,User,-,,Bread,B8,,866,,,-1,-1,,,,,1
stephanieAgwanihu,grablr45vr,DRM1_MSU,1,117,2023-11-01T21:28:47+00:00,1.1499347686768,4,Stim_B.csv,Global.csv,Global,B,yard,,B9,,,94,Study,User,-,,Bread,B9,,964,,,-1,-1,,,,,1
stephanieAgwanihu,grablr45vr,DRM1_MSU,1,118,2023-11-01T21:28:49+00:00,1.0348980426788,4,Stim_B.csv,Global.csv,Global,B,kick,,B10,,,95,Study,User,-,,Bread,B10,,806,,,-1,-1,,,,,1
stephanieAgwanihu,grablr45vr,DRM1_MSU,1,119,2023-11-01T21:28:49+00:00,0.88536715507507,4,Stim_B.csv,Global.csv,Global,B,knee,,B11,,,96,Study,User,-,,Bread,B11,,735,,,-1,-1,,,,,1
stephanieAgwanihu,grablr45vr,DRM1_MSU,1,120,2023-11-01T21:28:50+00:00,1.0253489017487,4,Stim_B.csv,Global.csv,Global,B,walk,,B12,,,97,Study,User,-,,Bread,B12,,861,,,-1,-1,,,,,1
stephanieAgwanihu,grablr45vr,DRM1_MSU,1,121,2023-11-01T21:28:52+00:00,1.8881869316101,4,Stim_B.csv,Global.csv,Global,B,,,,,,0,Instruct,User,-,"You have completed this section and will now be asked to judge your ability to remember the list items. You will have four seconds to type your rating. Please click next to continue.",,Next_List1,,1668,,,-1,-1,,,,,1
stephanieAgwanihu,grablr45vr,DRM1_MSU,1,122,2023-11-01T21:28:57+00:00,4.5176200866699,4,Stim_B.csv,Global.csv,Global,B,,,,,,0,JOL_GLOBAL,User,2.5,"How likely are you to correctly recall each of the items you just studied?|Type your response on a scale from 0-100 and then press Enter (0 = WILL NOT REMEMBER; 100 = DEFINITELY WILL REMEMBER).",Related,JOL8,,4316,,,1637,2416,,,,82,1
stephanieAgwanihu,grablr45vr,DRM1_MSU,1,123,2023-11-01T21:29:08+00:00,10.737509965897,4,Stim_B.csv,Global.csv,Global,B,,,,,,0,Instruct,User,3,"You will now be presented with a new study list. Click next when you are ready to begin.",,NEXT_LIST,,10540,,,-1,-1,,,,,1
stephanieAgwanihu,grablr45vr,DRM1_MSU,1,124,2023-11-01T21:29:10+00:00,2.019700050354,4,Stim_B.csv,Global.csv,Global,B,boy,,F1,,,98,Study,User,-,,Flag,F1,,1798,,,-1,-1,,,,,1
stephanieAgwanihu,grablr45vr,DRM1_MSU,1,125,2023-11-01T21:29:10+00:00,0.87306594848633,4,Stim_B.csv,Global.csv,Global,B,dolls,,F2,,,99,Study,User,-,,Flag,F2,,722,,,-1,-1,,,,,1
stephanieAgwanihu,grablr45vr,DRM1_MSU,1,126,2023-11-01T21:29:12+00:00,1.068167924881,4,Stim_B.csv,Global.csv,Global,B,pretty,,F3,,,100,Study,User,-,,Flag,F3,,878,,,-1,-1,,,,,1
stephanieAgwanihu,grablr45vr,DRM1_MSU,1,127,2023-11-01T21:29:13+00:00,1.0026721954346,4,Stim_B.csv,Global.csv,Global,B,female,,F4,,,101,Study,User,-,,Flag,F4,,847,,,-1,-1,,,,,1
stephanieAgwanihu,grablr45vr,DRM1_MSU,1,128,2023-11-01T21:29:14+00:00,1.1635458469391,4,Stim_B.csv,Global.csv,Global,B,dress,,F5,,,102,Study,User,-,,Flag,F5,,1001,,,-1,-1,,,,,1
stephanieAgwanihu,grablr45vr,DRM1_MSU,1,129,2023-11-01T21:29:15+00:00,0.94397211074829,4,Stim_B.csv,Global.csv,Global,B,date,,F6,,,103,Study,User,-,,Flag,F6,,774,,,-1,-1,,,,,1
stephanieAgwanihu,grablr45vr,DRM1_MSU,1,130,2023-11-01T21:29:16+00:00,0.99041199684143,4,Stim_B.csv,Global.csv,Global,B,beautiful,,F7,,,104,Study,User,-,,Flag,F7,,846,,,-1,-1,,,,,1
stephanieAgwanihu,grablr45vr,DRM1_MSU,1,131,2023-11-01T21:29:18+00:00,2.4228210449219,4,Stim_B.csv,Global.csv,Global,B,daughter,,F8,,,105,Study,User,-,,Flag,F8,,2256,,,-1,-1,,,,,1
stephanieAgwanihu,grablr45vr,DRM1_MSU,1,132,2023-11-01T21:29:19+00:00,0.98781585693359,4,Stim_B.csv,Global.csv,Global,B,sister,,F9,,,106,Study,User,-,,Flag,F9,,829,,,-1,-1,,,,,1
stephanieAgwanihu,grablr45vr,DRM1_MSU,1,133,2023-11-01T21:29:20+00:00,1.1092729568481,4,Stim_B.csv,Global.csv,Global,B,cute,,F10,,,107,Study,User,-,,Flag,F10,,930,,,-1,-1,,,,,1
stephanieAgwanihu,grablr45vr,DRM1_MSU,1,134,2023-11-01T21:29:21+00:00,0.89667701721191,4,Stim_B.csv,Global.csv,Global,B,niece,,F11,,,108,Study,User,-,,Flag,F11,,710,,,-1,-1,,,,,1
stephanieAgwanihu,grablr45vr,DRM1_MSU,1,135,2023-11-01T21:29:23+00:00,1.4744381904602,4,Stim_B.csv,Global.csv,Global,B,young,,F12,,,109,Study,User,-,,Flag,F12,,1304,,,-1,-1,,,,,1
stephanieAgwanihu,grablr45vr,DRM1_MSU,1,136,2023-11-01T21:29:25+00:00,2.3911349773407,4,Stim_B.csv,Global.csv,Global,B,,,,,,0,Instruct,User,-,"You have completed this section and will now be asked to judge your ability to remember the list items. You will have four seconds to type your rating. Please click next to continue.",,Next_List1,,2212,,,-1,-1,,,,,1
stephanieAgwanihu,grablr45vr,DRM1_MSU,1,137,2023-11-01T21:29:32+00:00,6.7105438709259,4,Stim_B.csv,Global.csv,Global,B,,,,,,0,JOL_GLOBAL,User,2.5,"How likely are you to correctly recall each of the items you just studied?|Type your response on a scale from 0-100 and then press Enter (0 = WILL NOT REMEMBER; 100 = DEFINITELY WILL REMEMBER).",Related,JOL9,,6509,,,3931,4426,,,,76,1
stephanieAgwanihu,grablr45vr,DRM1_MSU,1,138,2023-11-01T21:29:36+00:00,3.9184999465942,4,Stim_B.csv,Global.csv,Global,B,,,,,,0,Instruct,User,3,"You will now be presented with a new study list. Click next when you are ready to begin.",,NEXT_LIST,,3738,,,-1,-1,,,,,1
stephanieAgwanihu,grablr45vr,DRM1_MSU,1,139,2023-11-01T21:29:37+00:00,1.8938682079315,4,Stim_B.csv,Global.csv,Global,B,white,,SS1,,,110,Study,User,-,,Shirt,SS1,,1685,,,-1,-1,,,,,1
stephanieAgwanihu,grablr45vr,DRM1_MSU,1,140,2023-11-01T21:29:39+00:00,1.7955269813538,4,Stim_B.csv,Global.csv,Global,B,gray,,SS2,,,111,Study,User,-,,Shirt,SS2,,1598,,,-1,-1,,,,,1
stephanieAgwanihu,grablr45vr,DRM1_MSU,1,141,2023-11-01T21:29:40+00:00,0.69728088378906,4,Stim_B.csv,Global.csv,Global,B,brown,,SS3,,,112,Study,User,-,,Shirt,SS3,,502,,,-1,-1,,,,,1
stephanieAgwanihu,grablr45vr,DRM1_MSU,1,142,2023-11-01T21:29:41+00:00,0.74489712715149,4,Stim_B.csv,Global.csv,Global,B,coal,,SS4,,,113,Study,User,-,,Shirt,SS4,,584,,,-1,-1,,,,,1
stephanieAgwanihu,grablr45vr,DRM1_MSU,1,143,2023-11-01T21:29:42+00:00,1.1171889305115,4,Stim_B.csv,Global.csv,Global,B,dark,,SS5,,,114,Study,User,-,,Shirt,SS5,,939,,,-1,-1,,,,,1
stephanieAgwanihu,grablr45vr,DRM1_MSU,1,144,2023-11-01T21:29:47+00:00,5.0610399246216,4,Stim_B.csv,Global.csv,Global,B,color,,SS6,,,115,Study,User,-,,Shirt,SS6,,4882,,,-1,-1,,,,,1
stephanieAgwanihu,grablr45vr,DRM1_MSU,1,145,2023-11-01T21:29:57+00:00,9.8083529472351,4,Stim_B.csv,Global.csv,Global,B,funeral,,SS7,,,116,Study,User,-,,Shirt,SS7,,8523,,,-1,-1,,,,,1
stephanieAgwanihu,grablr45vr,DRM1_MSU,1,146,2023-11-01T21:29:58+00:00,1.4754362106323,4,Stim_B.csv,Global.csv,Global,B,blue,,SS8,,,117,Study,User,-,,Shirt,SS8,,1270,,,-1,-1,,,,,1
stephanieAgwanihu,grablr45vr,DRM1_MSU,1,147,2023-11-01T21:29:59+00:00,1.2259058952332,4,Stim_B.csv,Global.csv,Global,B,charred,,SS9,,,118,Study,User,-,,Shirt,SS9,,1051,,,-1,-1,,,,,1
stephanieAgwanihu,grablr45vr,DRM1_MSU,1,148,2023-11-01T21:30:01+00:00,1.2331080436707,4,Stim_B.csv,Global.csv,Global,B,ink,,SS10,,,119,Study,User,-,,Shirt,SS10,,1077,,,-1,-1,,,,,1
stephanieAgwanihu,grablr45vr,DRM1_MSU,1,149,2023-11-01T21:30:02+00:00,1.1581978797913,4,Stim_B.csv,Global.csv,Global,B,death,,SS11,,,120,Study,User,-,,Shirt,SS11,,972,,,-1,-1,,,,,1
stephanieAgwanihu,grablr45vr,DRM1_MSU,1,150,2023-11-01T21:30:03+00:00,0.91105008125305,4,Stim_B.csv,Global.csv,Global,B,cat,,SS12,,,121,Study,User,-,,Shirt,SS12,,717,,,-1,-1,,,,,1
stephanieAgwanihu,grablr45vr,DRM1_MSU,1,151,2023-11-01T21:30:05+00:00,2.4033510684967,4,Stim_B.csv,Global.csv,Global,B,,,,,,0,Instruct,User,-,"You have completed this section and will now be asked to judge your ability to remember the list items. You will have four seconds to type your rating. Please click next to continue.",,Next_List1,,2216,,,-1,-1,,,,,1
stephanieAgwanihu,grablr45vr,DRM1_MSU,1,152,2023-11-01T21:30:11+00:00,6.2787659168243,4,Stim_B.csv,Global.csv,Global,B,,,,,,0,JOL_GLOBAL,User,2.5,"How likely are you to correctly recall each of the items you just studied?|Type your response on a scale from 0-100 and then press Enter (0 = WILL NOT REMEMBER; 100 = DEFINITELY WILL REMEMBER).",Related,JOL10,,6040,,,1591,2989,,,,32,1
stephanieAgwanihu,grablr45vr,DRM1_MSU,1,153,2023-11-01T21:30:15+00:00,3.9457991123199,4,Stim_B.csv,Global.csv,Global,B,,,,,,0,Instruct,User,3,"You will now be presented with a new study list. Click next when you are ready to begin.",,NEXT_LIST,,3733,,,-1,-1,,,,,1
stephanieAgwanihu,grablr45vr,DRM1_MSU,1,154,2023-11-01T21:31:16+00:00,60.256609916687,4,Stim_B.csv,Global.csv,Global,B,,,,,,0,FreeRecall,60,60,"Please type as many words as you can that begin with the letter ""C"". The computer will automatically advance to the next screen in 60 seconds.",,FILLER,,60002,"cat, cap, car, can,card, carpool, candle, capsule,",0,14562,58016,0,0,,,0.993
stephanieAgwanihu,grablr45vr,DRM1_MSU,1,155,2023-11-01T21:31:19+00:00,3.6499350070953,4,Stim_B.csv,Global.csv,Global,B,,,,,,0,Instruct,User,-,"You have completed this section. Please click next.",,Instruct166,,3435,,,-1,-1,,,,,1
stephanieAgwanihu,grablr45vr,DRM1_MSU,1,156,2023-11-01T21:31:37+00:00,17.968749046326,4,Stim_B.csv,Global.csv,Global,B,,,,,,0,Instruct,User,10,"Your memory will now be tested. You will be presented with a series of words. If the word on the screen was previously studied, please select YES. If the word was not studied, select NO. PLEASE DO NOT SKIP ITEMS! Click next when you are ready to begin.",,Instruct_stuff,,17770,,,-1,-1,,,,,1
stephanieAgwanihu,grablr45vr,DRM1_MSU,1,157,2023-11-01T21:31:43+00:00,5.9904839992523,4,Stim_B.csv,Global.csv,Global,B,,ball,RECOG,"List Item",,175,Likert,User,1,"Was this item previously studied?","List Item Control",Recog,1::2,5797,YES,0,-1,-1,0,0,,,1
stephanieAgwanihu,grablr45vr,DRM1_MSU,1,158,2023-11-01T21:31:47+00:00,3.8221719264984,4,Stim_B.csv,Global.csv,Global,B,,melody,RECOG,"List Item",,165,Likert,User,1,"Was this item previously studied?","List Item Control",Recog,1::2,3632,YES,22.222222222222,-1,-1,0,0,,,1
stephanieAgwanihu,grablr45vr,DRM1_MSU,1,159,2023-11-01T21:31:51+00:00,4.0293219089508,4,Stim_B.csv,Global.csv,Global,B,,rubbish,RECOG,"List Item Control",,191,Likert,User,1,"Was this item previously studied?","List Item Control",Recog,1::2,3824,NO,0,-1,-1,0,0,,,1
stephanieAgwanihu,grablr45vr,DRM1_MSU,1,160,2023-11-01T21:31:55+00:00,4.1392540931702,4,Stim_B.csv,Global.csv,Global,B,,bitter,RECOG,"List Item",,127,Likert,User,1,"Was this item previously studied?","List Item Standard F",Recog,1::2,3956,NO,0,-1,-1,0,0,,,1
stephanieAgwanihu,grablr45vr,DRM1_MSU,1,161,2023-11-01T21:31:59+00:00,3.7642810344696,4,Stim_B.csv,Global.csv,Global,B,,view,RECOG,"List Item Control",,141,Likert,User,1,"Was this item previously studied?","List Item Sans F",Recog,1::2,3580,NO,0,-1,-1,0,0,,,1
stephanieAgwanihu,grablr45vr,DRM1_MSU,1,162,2023-11-01T21:32:02+00:00,3.5321390628815,4,Stim_B.csv,Global.csv,Global,B,,cotton,RECOG,"List Item",,168,Likert,User,1,"Was this item previously studied?","List Item Control",Recog,1::2,3350,YES,0,-1,-1,0,0,,,1
stephanieAgwanihu,grablr45vr,DRM1_MSU,1,163,2023-11-01T21:32:06+00:00,3.6959729194641,4,Stim_B.csv,Global.csv,Global,B,,sleeves,RECOG,"List Item Control",,140,Likert,User,1,"Was this item previously studied?","List Item Sans F",Recog,1::2,3232,NO,0,-1,-1,0,0,,,1
stephanieAgwanihu,grablr45vr,DRM1_MSU,1,164,2023-11-01T21:32:10+00:00,3.5284469127655,4,Stim_B.csv,Global.csv,Global,B,,daughter,RECOG,"List Item",,189,Likert,User,1,"Was this item previously studied?","List Item Control",Recog,1::2,3341,YES,18.181818181818,-1,-1,0,0,,,1
stephanieAgwanihu,grablr45vr,DRM1_MSU,1,165,2023-11-01T21:32:13+00:00,3.1377229690552,4,Stim_B.csv,Global.csv,Global,B,,waste,RECOG,"List Item Control",,122,Likert,User,1,"Was this item previously studied?","List Item Sans F",Recog,1::2,2937,NO,0,-1,-1,0,0,,,1
stephanieAgwanihu,grablr45vr,DRM1_MSU,1,166,2023-11-01T21:32:17+00:00,3.8315291404724,4,Stim_B.csv,Global.csv,Global,B,,sandwich,RECOG,"List Item Control",,188,Likert,User,1,"Was this item previously studied?","List Item Control",Recog,1::2,3659,NO,20,-1,-1,0,0,,,1
stephanieAgwanihu,grablr45vr,DRM1_MSU,1,167,2023-11-01T21:32:20+00:00,3.5058019161224,4,Stim_B.csv,Global.csv,Global,B,,cake,RECOG,"List Item",,133,Likert,User,1,"Was this item previously studied?","List Item Standard F",Recog,1::2,3342,YES,28.571428571429,-1,-1,0,0,,,1
stephanieAgwanihu,grablr45vr,DRM1_MSU,1,168,2023-11-01T21:32:27+00:00,6.6021869182587,4,Stim_B.csv,Global.csv,Global,B,,window,RECOG,"Critical Lure Control",,171,Likert,User,1,"Was this item previously studied?","List Item Control",Recog,1::2,6414,NO,50,-1,-1,0,0,,,1
stephanieAgwanihu,grablr45vr,DRM1_MSU,1,169,2023-11-01T21:32:31+00:00,4.1627850532532,4,Stim_B.csv,Global.csv,Global,B,,mean,RECOG,"List Item Control",,177,Likert,User,1,"Was this item previously studied?","List Item Control",Recog,1::2,3991,NO,33.333333333333,-1,-1,0,0,,,1
stephanieAgwanihu,grablr45vr,DRM1_MSU,1,170,2023-11-01T21:32:34+00:00,3.3446459770203,4,Stim_B.csv,Global.csv,Global,B,,eraser,RECOG,"List Item",,147,Likert,User,1,"Was this item previously studied?","List Item Sans F",Recog,1::2,3179,YES,44.444444444444,-1,-1,0,0,,,1
stephanieAgwanihu,grablr45vr,DRM1_MSU,1,171,2023-11-01T21:32:38+00:00,3.7915761470795,4,Stim_B.csv,Global.csv,Global,B,,doctor,RECOG,"Critical Lure Control",,134,Likert,User,1,"Was this item previously studied?","List Item Sans F",Recog,1::2,3587,NO,25,-1,-1,0,0,,,1
stephanieAgwanihu,grablr45vr,DRM1_MSU,1,172,2023-11-01T21:32:43+00:00,5.1465058326721,4,Stim_B.csv,Global.csv,Global,B,,chair,RECOG,"Critical Lure",,183,Likert,User,1,"Was this item previously studied?","List Item Control",Recog,1::2,4937,YES,0,-1,-1,0,0,,,1
stephanieAgwanihu,grablr45vr,DRM1_MSU,1,173,2023-11-01T21:32:49+00:00,5.9909310340881,4,Stim_B.csv,Global.csv,Global,B,,music,RECOG,"Critical Lure",,139,Likert,User,1,"Was this item previously studied?","List Item Standard F",Recog,1::2,5792,YES,25,-1,-1,0,0,,,1
stephanieAgwanihu,grablr45vr,DRM1_MSU,1,174,2023-11-01T21:33:02+00:00,13.025683164597,4,Stim_B.csv,Global.csv,Global,B,,black,RECOG,"Critical Lure",,136,Likert,User,1,"Was this item previously studied?","List Item Sans F",Recog,1::2,10530,YES,0,-1,-1,0,0,,,1
stephanieAgwanihu,grablr45vr,DRM1_MSU,1,175,2023-11-01T21:33:06+00:00,3.9377088546753,4,Stim_B.csv,Global.csv,Global,B,,hesitant,RECOG,"List Item Control",,172,Likert,User,1,"Was this item previously studied?","List Item Control",Recog,1::2,3713,NO,20,-1,-1,0,0,,,1
stephanieAgwanihu,grablr45vr,DRM1_MSU,1,176,2023-11-01T21:33:11+00:00,4.4686141014099,4,Stim_B.csv,Global.csv,Global,B,,blue,RECOG,"List Item",,179,Likert,User,1,"Was this item previously studied?","List Item Control",Recog,1::2,4311,YES,28.571428571429,-1,-1,0,0,,,1
stephanieAgwanihu,grablr45vr,DRM1_MSU,1,177,2023-11-01T21:33:14+00:00,3.4524719715118,4,Stim_B.csv,Global.csv,Global,B,,anger,RECOG,"Critical Lure Control",,195,Likert,User,1,"Was this item previously studied?","Critical Lure Control",Recog,1::2,3281,NO,28.571428571429,-1,-1,0,0,,,1
stephanieAgwanihu,grablr45vr,DRM1_MSU,1,178,2023-11-01T21:33:25+00:00,11.051043987274,4,Stim_B.csv,Global.csv,Global,B,,national,RECOG,"List Item Control",,158,Likert,User,1,"Was this item previously studied?","Critical Lure Sans F",Recog,1::2,10834,NO,40,-1,-1,0,0,,,1
stephanieAgwanihu,grablr45vr,DRM1_MSU,1,179,2023-11-01T21:33:31+00:00,6.1718239784241,4,Stim_B.csv,Global.csv,Global,B,,sound,RECOG,"List Item",,187,Likert,User,1,"Was this item previously studied?","List Item Control",Recog,1::2,5988,YES,25,-1,-1,0,0,,,1
stephanieAgwanihu,grablr45vr,DRM1_MSU,1,180,2023-11-01T21:33:35+00:00,3.7485659122467,4,Stim_B.csv,Global.csv,Global,B,,cuffs,RECOG,"List Item Control",,180,Likert,User,1,"Was this item previously studied?","List Item Control",Recog,1::2,3583,NO,0,-1,-1,0,0,,,1
stephanieAgwanihu,grablr45vr,DRM1_MSU,1,181,2023-11-01T21:33:39+00:00,3.4728941917419,4,Stim_B.csv,Global.csv,Global,B,,rubber,RECOG,"Critical Lure",,163,Likert,User,1,"Was this item previously studied?","List Item Control",Recog,1::2,3288,YES,22.222222222222,-1,-1,0,0,,,1
stephanieAgwanihu,grablr45vr,DRM1_MSU,1,182,2023-11-01T21:33:42+00:00,3.5611808300018,4,Stim_B.csv,Global.csv,Global,B,,sofa,RECOG,"List Item",,186,Likert,User,1,"Was this item previously studied?","List Item Control",Recog,1::2,3370,YES,28.571428571429,-1,-1,0,0,,,1
stephanieAgwanihu,grablr45vr,DRM1_MSU,1,183,2023-11-01T21:33:52+00:00,9.7501180171967,4,Stim_B.csv,Global.csv,Global,B,,shirt,RECOG,"Critical Lure Control",,157,Likert,User,1,"Was this item previously studied?","Critical Lure Standard F",Recog,1::2,9554,NO,0,-1,-1,0,0,,,1
stephanieAgwanihu,grablr45vr,DRM1_MSU,1,184,2023-11-01T21:34:07+00:00,15.554193019867,4,Stim_B.csv,Global.csv,Global,B,,riders,RECOG,"List Item Control",,156,Likert,User,1,"Was this item previously studied?","Critical Lure Sans F",Recog,1::2,15191,NO,0,-1,-1,0,0,,,1
stephanieAgwanihu,grablr45vr,DRM1_MSU,1,185,2023-11-01T21:34:11+00:00,3.7729649543762,4,Stim_B.csv,Global.csv,Global,B,,smooth,RECOG,"List Item Control",,135,Likert,User,1,"Was this item previously studied?","List Item Sans F",Recog,1::2,3610,NO,25,-1,-1,0,0,,,1
stephanieAgwanihu,grablr45vr,DRM1_MSU,1,186,2023-11-01T21:34:15+00:00,3.8724291324615,4,Stim_B.csv,Global.csv,Global,B,,flag,RECOG,"Critical Lure Control",,149,Likert,User,1,"Was this item previously studied?","List Item Standard F",Recog,1::2,3717,NO,0,-1,-1,0,0,,,1
stephanieAgwanihu,grablr45vr,DRM1_MSU,1,187,2023-11-01T21:34:19+00:00,4.3402099609375,4,Stim_B.csv,Global.csv,Global,B,,road,RECOG,"List Item Control",,178,Likert,User,1,"Was this item previously studied?","List Item Control",Recog,1::2,4153,NO,33.333333333333,-1,-1,0,0,,,1
stephanieAgwanihu,grablr45vr,DRM1_MSU,1,188,2023-11-01T21:34:24+00:00,4.4419651031494,4,Stim_B.csv,Global.csv,Global,B,,mad,RECOG,"List Item Control",,193,Likert,User,1,"Was this item previously studied?","Critical Lure Control",Recog,1::2,4251,NO,0,-1,-1,0,0,,,1
stephanieAgwanihu,grablr45vr,DRM1_MSU,1,189,2023-11-01T21:34:28+00:00,3.7155849933624,4,Stim_B.csv,Global.csv,Global,B,,medicine,RECOG,"List Item Control",,185,Likert,User,1,"Was this item previously studied?","List Item Control",Recog,1::2,3520,NO,20,-1,-1,0,0,,,1
stephanieAgwanihu,grablr45vr,DRM1_MSU,1,190,2023-11-01T21:34:31+00:00,3.7337939739227,4,Stim_B.csv,Global.csv,Global,B,,concert,RECOG,"List Item",,123,Likert,User,1,"Was this item previously studied?","List Item Sans F",Recog,1::2,3539,YES,20,-1,-1,0,0,,,1
stephanieAgwanihu,grablr45vr,DRM1_MSU,1,191,2023-11-01T21:34:35+00:00,3.5235829353333,4,Stim_B.csv,Global.csv,Global,B,,scent,RECOG,"List Item",,174,Likert,User,1,"Was this item previously studied?","List Item Control",Recog,1::2,3325,NO,28.571428571429,-1,-1,0,0,,,1
stephanieAgwanihu,grablr45vr,DRM1_MSU,1,192,2023-11-01T21:34:40+00:00,5.4985818862915,4,Stim_B.csv,Global.csv,Global,B,,kick,RECOG,"List Item",,182,Likert,User,1,"Was this item previously studied?","List Item Control",Recog,1::2,5297,NO,0,-1,-1,0,0,,,1
stephanieAgwanihu,grablr45vr,DRM1_MSU,1,193,2023-11-01T21:34:44+00:00,4.1109080314636,4,Stim_B.csv,Global.csv,Global,B,,bread,RECOG,"Critical Lure Control",,148,Likert,User,1,"Was this item previously studied?","List Item Sans F",Recog,1::2,3931,NO,0,-1,-1,0,0,,,1
stephanieAgwanihu,grablr45vr,DRM1_MSU,1,194,2023-11-01T21:34:49+00:00,4.5909841060638,4,Stim_B.csv,Global.csv,Global,B,,trash,RECOG,"Critical Lure Control",,126,Likert,User,1,"Was this item previously studied?","List Item Standard F",Recog,1::2,4409,NO,0,-1,-1,0,0,,,1
stephanieAgwanihu,grablr45vr,DRM1_MSU,1,195,2023-11-01T21:34:53+00:00,3.5710740089417,4,Stim_B.csv,Global.csv,Global,B,,symbol,RECOG,"List Item Control",,143,Likert,User,1,"Was this item previously studied?","List Item Standard F",Recog,1::2,3389,NO,25,-1,-1,0,0,,,1
stephanieAgwanihu,grablr45vr,DRM1_MSU,1,196,2023-11-01T21:34:56+00:00,3.718132019043,4,Stim_B.csv,Global.csv,Global,B,,jersey,RECOG,"List Item Control",,132,Likert,User,1,"Was this item previously studied?","List Item Standard F",Recog,1::2,3546,NO,0,-1,-1,0,0,,,1
stephanieAgwanihu,grablr45vr,DRM1_MSU,1,197,2023-11-01T21:35:01+00:00,5.0135760307312,4,Stim_B.csv,Global.csv,Global,B,,sweet,RECOG,"Critical Lure",,138,Likert,User,1,"Was this item previously studied?","List Item Standard F",Recog,1::2,4854,YES,25,-1,-1,0,0,,,1
stephanieAgwanihu,grablr45vr,DRM1_MSU,1,198,2023-11-01T21:35:05+00:00,3.9830238819122,4,Stim_B.csv,Global.csv,Global,B,,dolls,RECOG,"List Item",,164,Likert,User,1,"Was this item previously studied?","List Item Control",Recog,1::2,3747,YES,25,-1,-1,0,0,,,1
stephanieAgwanihu,grablr45vr,DRM1_MSU,1,199,2023-11-01T21:35:09+00:00,3.9882769584656,4,Stim_B.csv,Global.csv,Global,B,,girl,RECOG,"Critical Lure",,152,Likert,User,1,"Was this item previously studied?","Critical Lure Sans F",Recog,1::2,3814,YES,0,-1,-1,0,0,,,1
stephanieAgwanihu,grablr45vr,DRM1_MSU,1,200,2023-11-01T21:35:17+00:00,7.8185830116272,4,Stim_B.csv,Global.csv,Global,B,,fur,RECOG,"List Item",,198,Likert,User,1,"Was this item previously studied?","Critical Lure Control",Recog,1::2,7617,NO,0,-1,-1,0,0,,,1
stephanieAgwanihu,grablr45vr,DRM1_MSU,1,201,2023-11-01T21:35:20+00:00,3.4140889644623,4,Stim_B.csv,Global.csv,Global,B,,mountain,RECOG,"Critical Lure",,192,Likert,User,1,"Was this item previously studied?","Critical Lure Control",Recog,1::2,3218,NO,20,-1,-1,0,0,,,1
stephanieAgwanihu,grablr45vr,DRM1_MSU,1,202,2023-11-01T21:35:25+00:00,4.5057601928711,4,Stim_B.csv,Global.csv,Global,B,,gray,RECOG,"List Item",,166,Likert,User,1,"Was this item previously studied?","List Item Control",Recog,1::2,4318,YES,28.571428571429,-1,-1,0,0,,,1
stephanieAgwanihu,grablr45vr,DRM1_MSU,1,203,2023-11-01T21:35:29+00:00,4.4686689376831,4,Stim_B.csv,Global.csv,Global,B,,soft,RECOG,"Critical Lure",,154,Likert,User,1,"Was this item previously studied?","Critical Lure Sans F",Recog,1::2,4283,YES,28.571428571429,-1,-1,0,0,,,1
stephanieAgwanihu,grablr45vr,DRM1_MSU,1,204,2023-11-01T21:35:34+00:00,4.5124349594116,4,Stim_B.csv,Global.csv,Global,B,,slow,RECOG,"Critical Lure Control",,160,Likert,User,1,"Was this item previously studied?","Critical Lure Sans F",Recog,1::2,4318,YES,28.571428571429,-1,-1,0,0,,,1
stephanieAgwanihu,grablr45vr,DRM1_MSU,1,205,2023-11-01T21:35:38+00:00,4.2213730812073,4,Stim_B.csv,Global.csv,Global,B,,river,RECOG,"Critical Lure Control",,176,Likert,User,1,"Was this item previously studied?","List Item Control",Recog,1::2,4036,NO,0,-1,-1,0,0,,,1
stephanieAgwanihu,grablr45vr,DRM1_MSU,1,206,2023-11-01T21:35:42+00:00,3.7266578674316,4,Stim_B.csv,Global.csv,Global,B,,fragrance,RECOG,"List Item",,155,Likert,User,1,"Was this item previously studied?","Critical Lure Standard F",Recog,1::2,3566,NO,18.181818181818,-1,-1,0,0,,,1
stephanieAgwanihu,grablr45vr,DRM1_MSU,1,207,2023-11-01T21:35:46+00:00,3.8896219730377,4,Stim_B.csv,Global.csv,Global,B,,rough,RECOG,"Critical Lure Control",,131,Likert,User,1,"Was this item previously studied?","List Item Standard F",Recog,1::2,3703,NO,28.571428571429,-1,-1,0,0,,,1
stephanieAgwanihu,grablr45vr,DRM1_MSU,1,208,2023-11-01T21:35:50+00:00,4.6916570663452,4,Stim_B.csv,Global.csv,Global,B,,latex,RECOG,"List Item",,130,Likert,User,1,"Was this item previously studied?","List Item Sans F",Recog,1::2,4522,YES,25,-1,-1,0,0,,,1
stephanieAgwanihu,grablr45vr,DRM1_MSU,1,209,2023-11-01T21:35:54+00:00,3.2631099224091,4,Stim_B.csv,Global.csv,Global,B,,checkered,RECOG,"List Item Control",,159,Likert,User,1,"Was this item previously studied?","Critical Lure Standard F",Recog,1::2,3082,NO,0,-1,-1,0,0,,,1
stephanieAgwanihu,grablr45vr,DRM1_MSU,1,210,2023-11-01T21:35:57+00:00,3.3338971138,4,Stim_B.csv,Global.csv,Global,B,,ink,RECOG,"List Item",,194,Likert,User,1,"Was this item previously studied?","Critical Lure Control",Recog,1::2,3152,YES,0,-1,-1,0,0,,,1
stephanieAgwanihu,grablr45vr,DRM1_MSU,1,211,2023-11-01T21:36:01+00:00,3.6183290481567,4,Stim_B.csv,Global.csv,Global,B,,loaf,RECOG,"List Item Control",,162,Likert,User,1,"Was this item previously studied?","List Item Control",Recog,1::2,3354,NO,33.333333333333,-1,-1,0,0,,,1
stephanieAgwanihu,grablr45vr,DRM1_MSU,1,212,2023-11-01T21:36:16+00:00,15.313238859177,4,Stim_B.csv,Global.csv,Global,B,,inch,RECOG,"List Item",,153,Likert,User,1,"Was this item previously studied?","Critical Lure Standard F",Recog,1::2,15130,YES,0,-1,-1,0,0,,,1
stephanieAgwanihu,grablr45vr,DRM1_MSU,1,213,2023-11-01T21:36:27+00:00,10.520935058594,4,Stim_B.csv,Global.csv,Global,B,,nice,RECOG,"List Item",,129,Likert,User,1,"Was this item previously studied?","List Item Sans F",Recog,1::2,10330,YES,28.571428571429,-1,-1,0,0,,,1
stephanieAgwanihu,grablr45vr,DRM1_MSU,1,214,2023-11-01T21:36:31+00:00,4.2717230319977,4,Stim_B.csv,Global.csv,Global,B,,pile,RECOG,"List Item Control",,144,Likert,User,1,"Was this item previously studied?","List Item Standard F",Recog,1::2,4098,NO,0,-1,-1,0,0,,,1
stephanieAgwanihu,grablr45vr,DRM1_MSU,1,215,2023-11-01T21:36:35+00:00,3.8214778900146,4,Stim_B.csv,Global.csv,Global,B,,steep,RECOG,"List Item",,201,Likert,User,1,"Was this item previously studied?","Critical Lure Control",Recog,1::2,3651,NO,0,-1,-1,0,0,,,1
stephanieAgwanihu,grablr45vr,DRM1_MSU,1,216,2023-11-01T21:36:40+00:00,5.7664060592651,4,Stim_B.csv,Global.csv,Global,B,,creek,RECOG,"List Item Control",,200,Likert,User,1,"Was this item previously studied?","Critical Lure Control",Recog,1::2,5580,NO,0,-1,-1,0,0,,,1
stephanieAgwanihu,grablr45vr,DRM1_MSU,1,217,2023-11-01T21:36:51+00:00,10.984348058701,4,Stim_B.csv,Global.csv,Global,B,,shade,RECOG,"List Item Control",,190,Likert,User,1,"Was this item previously studied?","List Item Control",Recog,1::2,10807,NO,0,-1,-1,0,0,,,1
stephanieAgwanihu,grablr45vr,DRM1_MSU,1,218,2023-11-01T21:36:56+00:00,4.461021900177,4,Stim_B.csv,Global.csv,Global,B,,boat,RECOG,"List Item Control",,196,Likert,User,1,"Was this item previously studied?","Critical Lure Control",Recog,1::2,4280,NO,33.333333333333,-1,-1,0,0,,,1
stephanieAgwanihu,grablr45vr,DRM1_MSU,1,219,2023-11-01T21:36:59+00:00,3.4732291698456,4,Stim_B.csv,Global.csv,Global,B,,hill,RECOG,"List Item",,150,Likert,User,1,"Was this item previously studied?","List Item Standard F",Recog,1::2,3274,NO,0,-1,-1,0,0,,,1
stephanieAgwanihu,grablr45vr,DRM1_MSU,1,220,2023-11-01T21:37:03+00:00,3.2837438583374,4,Stim_B.csv,Global.csv,Global,B,,health,RECOG,"List Item Control",,145,Likert,User,1,"Was this item previously studied?","List Item Standard F",Recog,1::2,3107,NO,0,-1,-1,0,0,,,1
stephanieAgwanihu,grablr45vr,DRM1_MSU,1,221,2023-11-01T21:37:06+00:00,3.5812120437622,4,Stim_B.csv,Global.csv,Global,B,,smell,RECOG,"Critical Lure",,161,Likert,User,1,"Was this item previously studied?","Critical Lure Standard F",Recog,1::2,3401,NO,0,-1,-1,0,0,,,1
stephanieAgwanihu,grablr45vr,DRM1_MSU,1,222,2023-11-01T21:37:10+00:00,3.7381269931793,4,Stim_B.csv,Global.csv,Global,B,,couch,RECOG,"List Item",,146,Likert,User,1,"Was this item previously studied?","List Item Sans F",Recog,1::2,3512,YES,0,-1,-1,0,0,,,1
stephanieAgwanihu,grablr45vr,DRM1_MSU,1,223,2023-11-01T21:37:14+00:00,4.5526809692383,4,Stim_B.csv,Global.csv,Global,B,,foot,RECOG,"Critical Lure",,181,Likert,User,1,"Was this item previously studied?","List Item Control",Recog,1::2,4361,YES,0,-1,-1,0,0,,,1
stephanieAgwanihu,grablr45vr,DRM1_MSU,1,224,2023-11-01T21:37:19+00:00,4.1627600193024,4,Stim_B.csv,Global.csv,Global,B,,rose,RECOG,"List Item",,173,Likert,User,1,"Was this item previously studied?","List Item Control",Recog,1::2,3993,NO,33.333333333333,-1,-1,0,0,,,1
stephanieAgwanihu,grablr45vr,DRM1_MSU,1,225,2023-11-01T21:37:23+00:00,4.7466609477997,4,Stim_B.csv,Global.csv,Global,B,,swivel,RECOG,"List Item",,169,Likert,User,1,"Was this item previously studied?","List Item Control",Recog,1::2,4568,NO,0,-1,-1,0,0,,,1
stephanieAgwanihu,grablr45vr,DRM1_MSU,1,226,2023-11-01T21:37:27+00:00,3.3689780235291,4,Stim_B.csv,Global.csv,Global,B,,jelly,RECOG,"List Item Control",,128,Likert,User,1,"Was this item previously studied?","List Item Sans F",Recog,1::2,3185,NO,0,-1,-1,0,0,,,1
stephanieAgwanihu,grablr45vr,DRM1_MSU,1,227,2023-11-01T21:37:30+00:00,3.1180109977722,4,Stim_B.csv,Global.csv,Global,B,,snail,RECOG,"List Item Control",,125,Likert,User,1,"Was this item previously studied?","List Item Standard F",Recog,1::2,2908,NO,28.571428571429,-1,-1,0,0,,,1
stephanieAgwanihu,grablr45vr,DRM1_MSU,1,228,2023-11-01T21:37:35+00:00,4.9788751602173,4,Stim_B.csv,Global.csv,Global,B,,fight,RECOG,"List Item Control",,142,Likert,User,1,"Was this item previously studied?","List Item Sans F",Recog,1::2,4739,NO,0,-1,-1,0,0,,,1
stephanieAgwanihu,grablr45vr,DRM1_MSU,1,229,2023-11-01T21:37:40+00:00,4.8953249454498,4,Stim_B.csv,Global.csv,Global,B,,loud,RECOG,"List Item",,124,Likert,User,1,"Was this item previously studied?","List Item Sans F",Recog,1::2,4723,NO,33.333333333333,-1,-1,0,0,,,1
stephanieAgwanihu,grablr45vr,DRM1_MSU,1,230,2023-11-01T21:37:44+00:00,4.3166148662567,4,Stim_B.csv,Global.csv,Global,B,,sill,RECOG,"List Item Control",,151,Likert,User,1,"Was this item previously studied?","List Item Standard F",Recog,1::2,4123,NO,0,-1,-1,0,0,,,1
stephanieAgwanihu,grablr45vr,DRM1_MSU,1,231,2023-11-01T21:37:47+00:00,3.2966101169586,4,Stim_B.csv,Global.csv,Global,B,,barge,RECOG,"List Item Control",,197,Likert,User,1,"Was this item previously studied?","Critical Lure Control",Recog,1::2,3060,NO,0,-1,-1,0,0,,,1
stephanieAgwanihu,grablr45vr,DRM1_MSU,1,232,2023-11-01T21:37:52+00:00,4.161759853363,4,Stim_B.csv,Global.csv,Global,B,,boot,RECOG,"List Item",,137,Likert,User,1,"Was this item previously studied?","List Item Standard F",Recog,1::2,3949,YES,0,-1,-1,0,0,,,1
stephanieAgwanihu,grablr45vr,DRM1_MSU,1,233,2023-11-01T21:38:02+00:00,10.155626058578,4,Stim_B.csv,Global.csv,Global,B,,speed,RECOG,"List Item Control",,199,Likert,User,1,"Was this item previously studied?","Critical Lure Control",Recog,1::2,7786,NO,0,-1,-1,0,0,,,1
stephanieAgwanihu,grablr45vr,DRM1_MSU,1,234,2023-11-01T21:38:06+00:00,4.014142036438,4,Stim_B.csv,Global.csv,Global,B,,cute,RECOG,"List Item",,184,Likert,User,1,"Was this item previously studied?","List Item Control",Recog,1::2,3654,YES,28.571428571429,-1,-1,0,0,,,1
stephanieAgwanihu,grablr45vr,DRM1_MSU,1,235,2023-11-01T21:38:09+00:00,3.1578240394592,4,Stim_B.csv,Global.csv,Global,B,,nurse,RECOG,"List Item Control",,167,Likert,User,1,"Was this item previously studied?","List Item Control",Recog,1::2,2966,NO,28.571428571429,-1,-1,0,0,,,1
stephanieAgwanihu,grablr45vr,DRM1_MSU,1,236,2023-11-01T21:38:14+00:00,4.8589079380035,4,Stim_B.csv,Global.csv,Global,B,,bike,RECOG,"List Item",,170,Likert,User,1,"Was this item previously studied?","List Item Control",Recog,1::2,4668,YES,28.571428571429,-1,-1,0,0,,,1
stephanieAgwanihu,grablr45vr,DRM1_MSU,1,237,2023-11-01T21:38:16+00:00,2.4212710857391,4,Stim_B.csv,Global.csv,Global,B,,,,,,0,Instruct,User,-,"You have completed this section. Please click next.",,Instruct7,,2256,,,-1,-1,,,,,1
stephanieAgwanihu,grablr45vr,DRM1_MSU,1,238,2023-11-01T21:38:19+00:00,3.1228809356689,4,Stim_B.csv,Global.csv,Global,B,,,,,,0,Instruct,User,-,"The following screen will ask you a few questions abour your experience today. You must complete these questions to receive credit.",,Instruct8,,2960,,,-1,-1,,,,,1
