Username,ID,ExperimentName,Session,Trial,Date,TimeDif,"Condition Number","Stimuli File","Order File","Condition Description","Condition Notes",Stimuli*Cue,Stimuli*Answer,Stimuli*Shuffle,"Stimuli*Stimuli Notes",Stimuli*Value,Procedure*Item,"Procedure*Trial Type","Procedure*Max Time","Procedure*Min Time",Procedure*Text,"Procedure*Procedure Notes",Procedure*Shuffle,Response*RT,Response*Response,Response*Accuracy,Response*RTfirst,Response*RTlast,Response*strictAcc,Response*lenientAcc,Response*focus,Response*JOL,Response*Focus
5d95fe287f664d0016591f9b,11h2dt3clw,Ex2A_Prolific,1,1,2024-02-28T22:16:52+00:00,7.2198719978333,3,Stim_A.csv,Global.csv,Global,A,,,,,,0,Instruct,-,5,"In this section, you will be presented with a series of words. Please study each word carefully. Your memory will be tested!",Initial_Instruct,Instruct1,5657,,,-1,-1,,,,,1
5d95fe287f664d0016591f9b,11h2dt3clw,Ex2A_Prolific,1,2,2024-02-28T22:17:01+00:00,8.8579840660095,3,Stim_A.csv,Global.csv,Global,A,,,,,,0,Instruct,User,5,"After studying each LIST of words, you will be asked to rate your ability to remember ALL of the words in the list on a later test. You will make these ratings using a scale of 0 to 100. A rating of 0 = WILL NOT REMEMBER, while a rating of 100 = WILL DEFINITELY REMEMBER. Please try to be as accurate as possible with these ratings!",,BLIPBLOOP,7759,,,-1,-1,,,,,1
5d95fe287f664d0016591f9b,11h2dt3clw,Ex2A_Prolific,1,3,2024-02-28T22:17:09+00:00,8.344053030014,3,Stim_A.csv,Global.csv,Global,A,,,,,,0,Instruct,User,1.25,"You will now begin the study. Click next when you are ready to begin.",,Instruct16,7009,,,-1,-1,,,,,1
5d95fe287f664d0016591f9b,11h2dt3clw,Ex2A_Prolific,1,4,2024-02-28T22:17:12+00:00,3.3361368179321,3,Stim_A.csv,Global.csv,Global,A,pane,,Win_1,,,2,Study,User,1.25,,Window,Win_1,1797,,,-1,-1,,,,,1
5d95fe287f664d0016591f9b,11h2dt3clw,Ex2A_Prolific,1,5,2024-02-28T22:17:15+00:00,2.9559500217438,3,Stim_A.csv,Global.csv,Global,A,sill,,Win_2,,,3,Study,User,1.25,,Window,Win_2,1476,,,-1,-1,,,,,1
5d95fe287f664d0016591f9b,11h2dt3clw,Ex2A_Prolific,1,6,2024-02-28T22:17:18+00:00,3.1414501667023,3,Stim_A.csv,Global.csv,Global,A,shutter,,Win_3,,,4,Study,User,1.25,,Window,Win_3,1805,,,-1,-1,,,,,1
5d95fe287f664d0016591f9b,11h2dt3clw,Ex2A_Prolific,1,7,2024-02-28T22:17:22+00:00,3.6706838607788,3,Stim_A.csv,Global.csv,Global,A,curtain,,Win_4,,,5,Study,User,1.25,,Window,Win_4,2264,,,-1,-1,,,,,1
5d95fe287f664d0016591f9b,11h2dt3clw,Ex2A_Prolific,1,8,2024-02-28T22:17:25+00:00,2.6212069988251,3,Stim_A.csv,Global.csv,Global,A,door,,Win_5,,,6,Study,User,1.25,,Window,Win_5,1521,,,-1,-1,,,,,1
5d95fe287f664d0016591f9b,11h2dt3clw,Ex2A_Prolific,1,9,2024-02-28T22:17:32+00:00,7.5944030284882,3,Stim_A.csv,Global.csv,Global,A,ledge,,Win_6,,,7,Study,User,1.25,,Window,Win_6,6635,,,-1,-1,,,,,1
5d95fe287f664d0016591f9b,11h2dt3clw,Ex2A_Prolific,1,10,2024-02-28T22:17:35+00:00,2.4737379550934,3,Stim_A.csv,Global.csv,Global,A,glass,,Win_7,,,8,Study,User,1.25,,Window,Win_7,1292,,,-1,-1,,,,,1
5d95fe287f664d0016591f9b,11h2dt3clw,Ex2A_Prolific,1,11,2024-02-28T22:17:38+00:00,3.4332649707794,3,Stim_A.csv,Global.csv,Global,A,view,,Win_8,,,9,Study,User,1.25,,Window,Win_8,1315,,,-1,-1,,,,,1
5d95fe287f664d0016591f9b,11h2dt3clw,Ex2A_Prolific,1,12,2024-02-28T22:17:52+00:00,13.488588094711,3,Stim_A.csv,Global.csv,Global,A,screen,,Win_9,,,10,Study,User,1.25,,Window,Win_9,12387,,,-1,-1,,,,,1
5d95fe287f664d0016591f9b,11h2dt3clw,Ex2A_Prolific,1,13,2024-02-28T22:17:55+00:00,2.8949480056763,3,Stim_A.csv,Global.csv,Global,A,shade,,Win_10,,,11,Study,User,1.25,,Window,Win_10,1628,,,-1,-1,,,,,1
5d95fe287f664d0016591f9b,11h2dt3clw,Ex2A_Prolific,1,14,2024-02-28T22:17:57+00:00,2.8350448608398,3,Stim_A.csv,Global.csv,Global,A,open,,Win_11,,,12,Study,User,1.25,,Window,Win_11,1696,,,-1,-1,,,,,1
5d95fe287f664d0016591f9b,11h2dt3clw,Ex2A_Prolific,1,15,2024-02-28T22:18:00+00:00,2.5343081951141,3,Stim_A.csv,Global.csv,Global,A,frame,,Win_12,,,13,Study,User,1.25,,Window,Win_12,1340,,,-1,-1,,,,,1
5d95fe287f664d0016591f9b,11h2dt3clw,Ex2A_Prolific,1,16,2024-02-28T22:18:03+00:00,3.0174038410187,3,Stim_A.csv,Global.csv,Global,A,,,,,,0,Instruct,User,1.25,"You have completed this section and will now be asked to judge your ability to remember the list items you just studied. You will have four seconds to type your rating. Please click next to continue.",,Next_List1,1525,,,-1,-1,,,,,1
5d95fe287f664d0016591f9b,11h2dt3clw,Ex2A_Prolific,1,17,2024-02-28T22:18:09+00:00,6.2945981025696,3,Stim_A.csv,Global.csv,Global,A,,,,,,0,JOL_GLOBAL,5,5,"How likely are you to correctly recall each of the items you just studied?|Type your response on a scale from 0-100 and then press Enter (0 = WILL NOT REMEMBER; 100 = DEFINITELY WILL REMEMBER).",Related,JOL1,5002,,,-1,-1,,,,,1
5d95fe287f664d0016591f9b,11h2dt3clw,Ex2A_Prolific,1,18,2024-02-28T22:18:13+00:00,3.2988429069519,3,Stim_A.csv,Global.csv,Global,A,,,,,,0,Instruct,User,-,"You have completed this section. Please click next.",,Instruct166,1886,,,-1,-1,,,,,1
5d95fe287f664d0016591f9b,11h2dt3clw,Ex2A_Prolific,1,19,2024-02-28T22:18:44+00:00,31.372205018997,3,Stim_A.csv,Global.csv,Global,A,,,,,,0,FreeRecall,30,1.25,"Please type as many words as you can that begin with the letter ""N"". The computer will automatically advance to the next screen in 30 seconds.",,FILLER,30001,"nope nun never noneo",0,17146,29623,0,0,,,1
5d95fe287f664d0016591f9b,11h2dt3clw,Ex2A_Prolific,1,20,2024-02-28T22:18:52+00:00,7.893275976181,3,Stim_A.csv,Global.csv,Global,A,,,,,,0,Instruct,User,4,"You have completed this section. Please click next.",,Instruct166,5814,,,-1,-1,,,,,1
5d95fe287f664d0016591f9b,11h2dt3clw,Ex2A_Prolific,1,21,2024-02-28T22:18:59+00:00,7.1139659881592,3,Stim_A.csv,Global.csv,Global,A,,,,,,0,Instruct,User,4,"You will now complete a memory test for the words you just studied. Please type as many words from the previous list as you can seperated by a comma. Spelling will not count against you and you can recall the words in any order. This test will be timed for one minute, and the computer will automatically advance once time is up. Click next when you are ready to begin.",,Instruct1666,5801,,,-1,-1,,,,,1
5d95fe287f664d0016591f9b,11h2dt3clw,Ex2A_Prolific,1,22,2024-02-28T22:20:00+00:00,61.484233140945,3,Stim_A.csv,Global.csv,Global,A,,,,,,0,FreeRecall,60,60,"Please type as many words as you can from the previous study list in any order. Please separate each word with a comma. Spelling will not count against you. This screen will automatically advance in one minute.",,RECALL_Test,60005,"pane, shutter, door, ledge, screen, view, open, sill",0,1299,25653,0,0,,,1
5d95fe287f664d0016591f9b,11h2dt3clw,Ex2A_Prolific,1,23,2024-02-28T22:20:07+00:00,6.2870759963989,3,Stim_A.csv,Global.csv,Global,A,,,,,,0,Instruct,User,3,"You will now be presented with a new study list. Click next when you are ready to begin.",,NEXT_LIST,3130,,,-1,-1,,,,,1
5d95fe287f664d0016591f9b,11h2dt3clw,Ex2A_Prolific,1,24,2024-02-28T22:20:10+00:00,3.181380033493,3,Stim_A.csv,Global.csv,Global,A,sandpaper,,R1,,,14,Study,User,1.25,,Rough,R1,1779,,,-1,-1,,,,,1
5d95fe287f664d0016591f9b,11h2dt3clw,Ex2A_Prolific,1,25,2024-02-28T22:20:13+00:00,2.8705840110779,3,Stim_A.csv,Global.csv,Global,A,smooth,,R2,,,15,Study,User,1.25,,Rough,R2,1662,,,-1,-1,,,,,1
5d95fe287f664d0016591f9b,11h2dt3clw,Ex2A_Prolific,1,26,2024-02-28T22:20:15+00:00,2.5102989673615,3,Stim_A.csv,Global.csv,Global,A,coarse,,R3,,,16,Study,User,1.25,,Rough,R3,1334,,,-1,-1,,,,,1
5d95fe287f664d0016591f9b,11h2dt3clw,Ex2A_Prolific,1,27,2024-02-28T22:20:18+00:00,2.5047068595886,3,Stim_A.csv,Global.csv,Global,A,tough,,R4,,,17,Study,User,1.25,,Rough,R4,1375,,,-1,-1,,,,,1
5d95fe287f664d0016591f9b,11h2dt3clw,Ex2A_Prolific,1,28,2024-02-28T22:20:24+00:00,5.7076539993286,3,Stim_A.csv,Global.csv,Global,A,rugged,,R5,,,18,Study,User,1.25,,Rough,R5,4286,,,-1,-1,,,,,1
5d95fe287f664d0016591f9b,11h2dt3clw,Ex2A_Prolific,1,29,2024-02-28T22:20:26+00:00,2.6181881427765,3,Stim_A.csv,Global.csv,Global,A,bumpy,,R6,,,19,Study,User,1.25,,Rough,R6,1284,,,-1,-1,,,,,1
5d95fe287f664d0016591f9b,11h2dt3clw,Ex2A_Prolific,1,30,2024-02-28T22:20:29+00:00,2.7829730510712,3,Stim_A.csv,Global.csv,Global,A,jagged,,R7,,,20,Study,User,1.25,,Rough,R7,1670,,,-1,-1,,,,,1
5d95fe287f664d0016591f9b,11h2dt3clw,Ex2A_Prolific,1,31,2024-02-28T22:20:38+00:00,8.7536849975586,3,Stim_A.csv,Global.csv,Global,A,riders,,R8,,,21,Study,User,1.25,,Rough,R8,7598,,,-1,-1,,,,,1
5d95fe287f664d0016591f9b,11h2dt3clw,Ex2A_Prolific,1,32,2024-02-28T22:20:40+00:00,2.6221659183502,3,Stim_A.csv,Global.csv,Global,A,uneven,,R9,,,22,Study,User,1.25,,Rough,R9,1269,,,-1,-1,,,,,1
5d95fe287f664d0016591f9b,11h2dt3clw,Ex2A_Prolific,1,33,2024-02-28T22:20:43+00:00,2.3407969474792,3,Stim_A.csv,Global.csv,Global,A,road,,R10,,,23,Study,User,1.25,,Rough,R10,1262,,,-1,-1,,,,,1
5d95fe287f664d0016591f9b,11h2dt3clw,Ex2A_Prolific,1,34,2024-02-28T22:20:46+00:00,2.9050679206848,3,Stim_A.csv,Global.csv,Global,A,ready,,R11,,,24,Study,User,1.25,,Rough,R11,1778,,,-1,-1,,,,,1
5d95fe287f664d0016591f9b,11h2dt3clw,Ex2A_Prolific,1,35,2024-02-28T22:20:49+00:00,3.5365381240845,3,Stim_A.csv,Global.csv,Global,A,sand,,R12,,,25,Study,User,1.25,,Rough,R12,1873,,,-1,-1,,,,,1
5d95fe287f664d0016591f9b,11h2dt3clw,Ex2A_Prolific,1,36,2024-02-28T22:20:52+00:00,2.7507879734039,3,Stim_A.csv,Global.csv,Global,A,,,,,,0,Instruct,User,-,"You have completed this section and will now be asked to judge your ability to remember the list items you just studied. You will have four seconds to type your rating. Please click next to continue.",,Next_List1,1478,,,-1,-1,,,,,1
5d95fe287f664d0016591f9b,11h2dt3clw,Ex2A_Prolific,1,37,2024-02-28T22:20:58+00:00,6.0547769069672,3,Stim_A.csv,Global.csv,Global,A,,,,,,0,JOL_GLOBAL,5,5,"How likely are you to correctly recall each of the items you just studied?|Type your response on a scale from 0-100 and then press Enter (0 = WILL NOT REMEMBER; 100 = DEFINITELY WILL REMEMBER).",Unrelated,JOL2,5003,,,3317,3486,,,,75,1
5d95fe287f664d0016591f9b,11h2dt3clw,Ex2A_Prolific,1,38,2024-02-28T22:21:00+00:00,2.521576166153,3,Stim_A.csv,Global.csv,Global,A,,,,,,0,Instruct,User,-,"You have completed this section. Please click next.",,Instruct166,1328,,,-1,-1,,,,,1
5d95fe287f664d0016591f9b,11h2dt3clw,Ex2A_Prolific,1,39,2024-02-28T22:21:32+00:00,31.665180921555,3,Stim_A.csv,Global.csv,Global,A,,,,,,0,FreeRecall,30,30,"Please type as many words as you can that begin with the letter ""S"". The computer will automatically advance to the next screen in 30 seconds.",,FILLER,30001,"slippy slide saw swore swear seat sit sample soup sims seen sweat simple super sun ",0,1804,29039,0,0,,,1
5d95fe287f664d0016591f9b,11h2dt3clw,Ex2A_Prolific,1,40,2024-02-28T22:21:36+00:00,4.0626080036163,3,Stim_A.csv,Global.csv,Global,A,,,,,,0,Instruct,User,1.25,"You have completed this section. Please click next.",,Instruct166,1734,,,-1,-1,,,,,1
5d95fe287f664d0016591f9b,11h2dt3clw,Ex2A_Prolific,1,41,2024-02-28T22:21:42+00:00,5.6838068962097,3,Stim_A.csv,Global.csv,Global,A,,,,,,0,Instruct,User,4,"You will now complete a memory test for the words you just studied. Please type as many words from the previous list as you can seperated by a comma. Spelling will not count against you and you can recall the words in any order. This test will be timed for one minute, and the computer will automatically advance once time is up. Click next when you are ready to begin.",,Instruct1666,4522,,,-1,-1,,,,,1
5d95fe287f664d0016591f9b,11h2dt3clw,Ex2A_Prolific,1,42,2024-02-28T22:22:16+00:00,34.294517040253,3,Stim_A.csv,Global.csv,Global,A,,,,,,0,FreeRecall,60,1.25,"Please type as many words as you can from the previous study list in any order. Please separate each word with a comma. Spelling will not count against you. This screen will automatically advance in one minute.",,RECALL_Test,32293,"sandpaper, sand, riders, road, tough, bumpy, jagged, ragged, coarse",0,576,20942,0,0,,,1
5d95fe287f664d0016591f9b,11h2dt3clw,Ex2A_Prolific,1,43,2024-02-28T22:22:28+00:00,11.928785085678,3,Stim_A.csv,Global.csv,Global,A,,,,,,0,Instruct,User,3,"You will now be presented with a new study list. Click next when you are ready to begin.",,NEXT_LIST,9588,,,-1,-1,,,,,1
5d95fe287f664d0016591f9b,11h2dt3clw,Ex2A_Prolific,1,44,2024-02-28T22:22:31+00:00,3.4039549827576,3,Stim_A.csv,Global.csv,Global,A,rage,,A1,,,26,Study,User,1.25,,Anger,A1,1785,,,-1,-1,,,,,1
5d95fe287f664d0016591f9b,11h2dt3clw,Ex2A_Prolific,1,45,2024-02-28T22:22:35+00:00,3.1501240730286,3,Stim_A.csv,Global.csv,Global,A,mad,,A2,,,27,Study,User,1.25,,Anger,A2,1359,,,-1,-1,,,,,1
5d95fe287f664d0016591f9b,11h2dt3clw,Ex2A_Prolific,1,46,2024-02-28T22:22:38+00:00,3.1397988796234,3,Stim_A.csv,Global.csv,Global,A,enrage,,A3,,,28,Study,User,1.25,,Anger,A3,1496,,,-1,-1,,,,,1
5d95fe287f664d0016591f9b,11h2dt3clw,Ex2A_Prolific,1,47,2024-02-28T22:22:41+00:00,2.8520851135254,3,Stim_A.csv,Global.csv,Global,A,fury,,A4,,,29,Study,User,1.25,,Anger,A4,1569,,,-1,-1,,,,,1
5d95fe287f664d0016591f9b,11h2dt3clw,Ex2A_Prolific,1,48,2024-02-28T22:22:44+00:00,2.9204108715057,3,Stim_A.csv,Global.csv,Global,A,temper,,A5,,,30,Study,User,1.25,,Anger,A5,1473,,,-1,-1,,,,,1
5d95fe287f664d0016591f9b,11h2dt3clw,Ex2A_Prolific,1,49,2024-02-28T22:22:50+00:00,6.8154711723328,3,Stim_A.csv,Global.csv,Global,A,ire,,A6,,,31,Study,User,1.25,,Anger,A6,5369,,,-1,-1,,,,,1
5d95fe287f664d0016591f9b,11h2dt3clw,Ex2A_Prolific,1,50,2024-02-28T22:22:53+00:00,2.9149739742279,3,Stim_A.csv,Global.csv,Global,A,wrath,,A7,,,32,Study,User,1.25,,Anger,A7,1379,,,-1,-1,,,,,1
5d95fe287f664d0016591f9b,11h2dt3clw,Ex2A_Prolific,1,51,2024-02-28T22:22:56+00:00,2.9431359767914,3,Stim_A.csv,Global.csv,Global,A,mean,,A8,,,33,Study,User,1.25,,Anger,A8,1632,,,-1,-1,,,,,1
5d95fe287f664d0016591f9b,11h2dt3clw,Ex2A_Prolific,1,52,2024-02-28T22:22:59+00:00,2.7050440311432,3,Stim_A.csv,Global.csv,Global,A,hatred,,A9,,,34,Study,User,1.25,,Anger,A9,1351,,,-1,-1,,,,,1
5d95fe287f664d0016591f9b,11h2dt3clw,Ex2A_Prolific,1,53,2024-02-28T22:23:02+00:00,2.7068409919739,3,Stim_A.csv,Global.csv,Global,A,fight,,A10,,,35,Study,User,1.25,,Anger,A10,1333,,,-1,-1,,,,,1
5d95fe287f664d0016591f9b,11h2dt3clw,Ex2A_Prolific,1,54,2024-02-28T22:23:05+00:00,3.0837960243225,3,Stim_A.csv,Global.csv,Global,A,hate,,A11,,,36,Study,User,1.25,,Anger,A11,1520,,,-1,-1,,,,,1
5d95fe287f664d0016591f9b,11h2dt3clw,Ex2A_Prolific,1,55,2024-02-28T22:23:07+00:00,2.8143239021301,3,Stim_A.csv,Global.csv,Global,A,fear,,A12,,,37,Study,User,1.25,,Anger,A12,1273,,,-1,-1,,,,,1
5d95fe287f664d0016591f9b,11h2dt3clw,Ex2A_Prolific,1,56,2024-02-28T22:23:10+00:00,2.4631779193878,3,Stim_A.csv,Global.csv,Global,A,,,,,,0,Instruct,User,-,"You have completed this section and will now be asked to judge your ability to remember the list items you just studied. You will have four seconds to type your rating. Please click next to continue.",,Next_List1,1229,,,-1,-1,,,,,1
5d95fe287f664d0016591f9b,11h2dt3clw,Ex2A_Prolific,1,57,2024-02-28T22:23:17+00:00,6.7705030441284,3,Stim_A.csv,Global.csv,Global,A,,,,,,0,JOL_GLOBAL,5,5,"How likely are you to correctly recall each of the items you just studied?|Type your response on a scale from 0-100 and then press Enter (0 = WILL NOT REMEMBER; 100 = DEFINITELY WILL REMEMBER).",Related,JOL3,5002,,,2244,2822,,,,80,1
5d95fe287f664d0016591f9b,11h2dt3clw,Ex2A_Prolific,1,58,2024-02-28T22:23:20+00:00,3.392049074173,3,Stim_A.csv,Global.csv,Global,A,,,,,,0,Instruct,User,-,"You have completed this section. Please click next.",,Instruct166,2150,,,-1,-1,,,,,1
5d95fe287f664d0016591f9b,11h2dt3clw,Ex2A_Prolific,1,59,2024-02-28T22:23:52+00:00,31.852663993835,3,Stim_A.csv,Global.csv,Global,A,,,,,,0,FreeRecall,30,30,"Please type as many words as you can that begin with the letter ""M"". The computer will automatically advance to the next screen in 30 seconds.",,FILLER,30002,"man mumbai madonna mental money mass mantra my map ",0,1372,29118,0,0,,,1
5d95fe287f664d0016591f9b,11h2dt3clw,Ex2A_Prolific,1,60,2024-02-28T22:23:57+00:00,4.5641648769379,3,Stim_A.csv,Global.csv,Global,A,,,,,,0,Instruct,User,-,"You have completed this section. Please click next.",,Instruct166,1322,,,-1,-1,,,,,1
5d95fe287f664d0016591f9b,11h2dt3clw,Ex2A_Prolific,1,61,2024-02-28T22:24:03+00:00,6.2016851902008,3,Stim_A.csv,Global.csv,Global,A,,,,,,0,Instruct,User,4,"You will now complete a memory test for the words you just studied. Please type as many words from the previous list as you can seperated by a comma. Spelling will not count against you and you can recall the words in any order. This test will be timed for one minute, and the computer will automatically advance once time is up. Click next when you are ready to begin.",,Instruct1666,4691,,,-1,-1,,,,,1
5d95fe287f664d0016591f9b,11h2dt3clw,Ex2A_Prolific,1,62,2024-02-28T22:25:05+00:00,61.826133966446,3,Stim_A.csv,Global.csv,Global,A,,,,,,0,FreeRecall,60,60,"Please type as many words as you can from the previous study list in any order. Please separate each word with a comma. Spelling will not count against you. This screen will automatically advance in one minute.",,RECALL_Test,60006,"rage, enrage, fury, wrath, temper, ire, fear, fight, ",0,1792,41349,0,0,,,1
5d95fe287f664d0016591f9b,11h2dt3clw,Ex2A_Prolific,1,63,2024-02-28T22:25:11+00:00,6.7996888160706,3,Stim_A.csv,Global.csv,Global,A,,,,,,0,Instruct,User,3,"You will now be presented with a new study list. Click next when you are ready to begin.",,NEXT_LIST,3140,,,-1,-1,,,,,1
5d95fe287f664d0016591f9b,11h2dt3clw,Ex2A_Prolific,1,64,2024-02-28T22:25:15+00:00,3.6758670806885,3,Stim_A.csv,Global.csv,Global,A,garbage,,T1,,,38,Study,User,1.25,,Trash,T1,1615,,,-1,-1,,,,,1
5d95fe287f664d0016591f9b,11h2dt3clw,Ex2A_Prolific,1,65,2024-02-28T22:25:18+00:00,3.3349001407623,3,Stim_A.csv,Global.csv,Global,A,rubbish,,T2,,,39,Study,User,1.25,,Trash,T2,1558,,,-1,-1,,,,,1
5d95fe287f664d0016591f9b,11h2dt3clw,Ex2A_Prolific,1,66,2024-02-28T22:25:22+00:00,3.1802048683167,3,Stim_A.csv,Global.csv,Global,A,debris,,T3,,,40,Study,User,1.25,,Trash,T3,1289,,,-1,-1,,,,,1
5d95fe287f664d0016591f9b,11h2dt3clw,Ex2A_Prolific,1,67,2024-02-28T22:25:25+00:00,3.5079419612885,3,Stim_A.csv,Global.csv,Global,A,dump,,T4,,,41,Study,User,1.25,,Trash,T4,1490,,,-1,-1,,,,,1
5d95fe287f664d0016591f9b,11h2dt3clw,Ex2A_Prolific,1,68,2024-02-28T22:25:30+00:00,4.6511330604553,3,Stim_A.csv,Global.csv,Global,A,litter,,T5,,,42,Study,User,1.25,,Trash,T5,3211,,,-1,-1,,,,,1
5d95fe287f664d0016591f9b,11h2dt3clw,Ex2A_Prolific,1,69,2024-02-28T22:25:36+00:00,5.8646519184113,3,Stim_A.csv,Global.csv,Global,A,landfill,,T6,,,43,Study,User,1.25,,Trash,T6,4187,,,-1,-1,,,,,1
5d95fe287f664d0016591f9b,11h2dt3clw,Ex2A_Prolific,1,70,2024-02-28T22:25:39+00:00,3.5714650154114,3,Stim_A.csv,Global.csv,Global,A,junk,,T7,,,44,Study,User,1.25,,Trash,T7,1845,,,-1,-1,,,,,1
5d95fe287f664d0016591f9b,11h2dt3clw,Ex2A_Prolific,1,71,2024-02-28T22:25:42+00:00,2.6808309555054,3,Stim_A.csv,Global.csv,Global,A,waste,,T8,,,45,Study,User,1.25,,Trash,T8,1310,,,-1,-1,,,,,1
5d95fe287f664d0016591f9b,11h2dt3clw,Ex2A_Prolific,1,72,2024-02-28T22:25:45+00:00,2.959379196167,3,Stim_A.csv,Global.csv,Global,A,sewage,,T9,,,46,Study,User,1.25,,Trash,T9,1449,,,-1,-1,,,,,1
5d95fe287f664d0016591f9b,11h2dt3clw,Ex2A_Prolific,1,73,2024-02-28T22:25:47+00:00,2.4841969013214,3,Stim_A.csv,Global.csv,Global,A,pile,,T10,,,47,Study,User,1.25,,Trash,T10,1295,,,-1,-1,,,,,1
5d95fe287f664d0016591f9b,11h2dt3clw,Ex2A_Prolific,1,74,2024-02-28T22:25:50+00:00,2.6438500881195,3,Stim_A.csv,Global.csv,Global,A,scraps,,T11,,,48,Study,User,1.25,,Trash,T11,1368,,,-1,-1,,,,,1
5d95fe287f664d0016591f9b,11h2dt3clw,Ex2A_Prolific,1,75,2024-02-28T22:25:53+00:00,2.864706993103,3,Stim_A.csv,Global.csv,Global,A,refuse,,T12,,,49,Study,User,1.25,,Trash,T12,1437,,,-1,-1,,,,,1
5d95fe287f664d0016591f9b,11h2dt3clw,Ex2A_Prolific,1,76,2024-02-28T22:25:55+00:00,2.7150309085846,3,Stim_A.csv,Global.csv,Global,A,,,,,,0,Instruct,User,-,"You have completed this section and will now be asked to judge your ability to remember the list items you just studied. You will have four seconds to type your rating. Please click next to continue.",,Next_List1,1554,,,-1,-1,,,,,1
5d95fe287f664d0016591f9b,11h2dt3clw,Ex2A_Prolific,1,77,2024-02-28T22:26:02+00:00,6.7622399330139,3,Stim_A.csv,Global.csv,Global,A,,,,,,0,JOL_GLOBAL,5,5,"How likely are you to correctly recall each of the items you just studied?|Type your response on a scale from 0-100 and then press Enter (0 = WILL NOT REMEMBER; 100 = DEFINITELY WILL REMEMBER).",Related,JOL4,5002,,,2009,2217,,,,80,1
5d95fe287f664d0016591f9b,11h2dt3clw,Ex2A_Prolific,1,78,2024-02-28T22:26:08+00:00,5.3933169841766,3,Stim_A.csv,Global.csv,Global,A,,,,,,0,Instruct,User,4,"You have completed this section. Please click next.",,Instruct166,4156,,,-1,-1,,,,,1
5d95fe287f664d0016591f9b,11h2dt3clw,Ex2A_Prolific,1,79,2024-02-28T22:26:39+00:00,31.441143035889,3,Stim_A.csv,Global.csv,Global,A,,,,,,0,FreeRecall,30,30,"Please type as many words as you can that begin with the letter ""K"". The computer will automatically advance to the next screen in 30 seconds.",,FILLER,30007,"ketamine kill korma kamaka",0,1648,29190,0,0,,,1
5d95fe287f664d0016591f9b,11h2dt3clw,Ex2A_Prolific,1,80,2024-02-28T22:26:50+00:00,11.014961004257,3,Stim_A.csv,Global.csv,Global,A,,,,,,0,Instruct,User,4,"You have completed this section. Please click next.",,Instruct166,4150,,,-1,-1,,,,,1
5d95fe287f664d0016591f9b,11h2dt3clw,Ex2A_Prolific,1,81,2024-02-28T22:26:56+00:00,6.123692035675,3,Stim_A.csv,Global.csv,Global,A,,,,,,0,Instruct,User,4,"You will now complete a memory test for the words you just studied. Please type as many words from the previous list as you can seperated by a comma. Spelling will not count against you and you can recall the words in any order. This test will be timed for one minute, and the computer will automatically advance once time is up. Click next when you are ready to begin.",,Instruct1666,4422,,,-1,-1,,,,,1
5d95fe287f664d0016591f9b,11h2dt3clw,Ex2A_Prolific,1,82,2024-02-28T22:27:58+00:00,61.916969060898,3,Stim_A.csv,Global.csv,Global,A,,,,,,0,FreeRecall,60,60,"Please type as many words as you can from the previous study list in any order. Please separate each word with a comma. Spelling will not count against you. This screen will automatically advance in one minute.",,RECALL_Test,60007,"rubbish, trash, waste, debris, pile, scraps, sewage, landfill, ",0,524,56491,0,0,,,1
5d95fe287f664d0016591f9b,11h2dt3clw,Ex2A_Prolific,1,83,2024-02-28T22:28:11+00:00,12.649766921997,3,Stim_A.csv,Global.csv,Global,A,,,,,,0,Instruct,User,3,"You will now be presented with a new study list. Click next when you are ready to begin.",,NEXT_LIST,8105,,,-1,-1,,,,,1
5d95fe287f664d0016591f9b,11h2dt3clw,Ex2A_Prolific,1,84,2024-02-28T22:28:15+00:00,3.7877731323242,3,Stim_A.csv,Global.csv,Global,A,physician,,D1,,,50,Study,User,1.25,,Doctor,D1,1533,,,-1,-1,,,,,1
5d95fe287f664d0016591f9b,11h2dt3clw,Ex2A_Prolific,1,85,2024-02-28T22:28:17+00:00,2.6720249652863,3,Stim_A.csv,Global.csv,Global,A,nurse,,D2,,,51,Study,User,1.25,,Doctor,D2,1467,,,-1,-1,,,,,1
5d95fe287f664d0016591f9b,11h2dt3clw,Ex2A_Prolific,1,86,2024-02-28T22:28:24+00:00,7.0482048988342,3,Stim_A.csv,Global.csv,Global,A,stethoscope,,D3,,,52,Study,User,1.25,,Doctor,D3,5695,,,-1,-1,,,,,1
5d95fe287f664d0016591f9b,11h2dt3clw,Ex2A_Prolific,1,87,2024-02-28T22:28:29+00:00,4.3564360141754,3,Stim_A.csv,Global.csv,Global,A,surgeon,,D4,,,53,Study,User,1.25,,Doctor,D4,2572,,,-1,-1,,,,,1
5d95fe287f664d0016591f9b,11h2dt3clw,Ex2A_Prolific,1,88,2024-02-28T22:28:33+00:00,4.7918541431427,3,Stim_A.csv,Global.csv,Global,A,patient,,D5,,,54,Study,User,1.25,,Doctor,D5,2531,,,-1,-1,,,,,1
5d95fe287f664d0016591f9b,11h2dt3clw,Ex2A_Prolific,1,89,2024-02-28T22:28:38+00:00,4.4808428287506,3,Stim_A.csv,Global.csv,Global,A,clinic,,D6,,,55,Study,User,1.25,,Doctor,D6,3042,,,-1,-1,,,,,1
5d95fe287f664d0016591f9b,11h2dt3clw,Ex2A_Prolific,1,90,2024-02-28T22:28:44+00:00,5.7694721221924,3,Stim_A.csv,Global.csv,Global,A,dentist,,D7,,,56,Study,User,1.25,,Doctor,D7,3385,,,-1,-1,,,,,1
5d95fe287f664d0016591f9b,11h2dt3clw,Ex2A_Prolific,1,91,2024-02-28T22:28:47+00:00,3.6690499782562,3,Stim_A.csv,Global.csv,Global,A,medicine,,D8,,,57,Study,User,1.25,,Doctor,D8,2308,,,-1,-1,,,,,1
5d95fe287f664d0016591f9b,11h2dt3clw,Ex2A_Prolific,1,92,2024-02-28T22:28:51+00:00,3.7753829956055,3,Stim_A.csv,Global.csv,Global,A,lawyer,,D9,,,58,Study,User,1.25,,Doctor,D9,1989,,,-1,-1,,,,,1
5d95fe287f664d0016591f9b,11h2dt3clw,Ex2A_Prolific,1,93,2024-02-28T22:28:54+00:00,3.2960209846497,3,Stim_A.csv,Global.csv,Global,A,health,,D10,,,59,Study,User,1.25,,Doctor,D10,1693,,,-1,-1,,,,,1
5d95fe287f664d0016591f9b,11h2dt3clw,Ex2A_Prolific,1,94,2024-02-28T22:28:58+00:00,3.1174120903015,3,Stim_A.csv,Global.csv,Global,A,sick,,D11,,,60,Study,User,1.25,,Doctor,D11,1380,,,-1,-1,,,,,1
5d95fe287f664d0016591f9b,11h2dt3clw,Ex2A_Prolific,1,95,2024-02-28T22:29:00+00:00,2.9138309955597,3,Stim_A.csv,Global.csv,Global,A,cure,,D12,,,61,Study,User,1.25,,Doctor,D12,1314,,,-1,-1,,,,,1
5d95fe287f664d0016591f9b,11h2dt3clw,Ex2A_Prolific,1,96,2024-02-28T22:29:03+00:00,2.6245679855347,3,Stim_A.csv,Global.csv,Global,A,,,,,,0,Instruct,User,-,"You have completed this section and will now be asked to judge your ability to remember the list items you just studied. You will have four seconds to type your rating. Please click next to continue.",,Next_List1,1212,,,-1,-1,,,,,1
5d95fe287f664d0016591f9b,11h2dt3clw,Ex2A_Prolific,1,97,2024-02-28T22:29:08+00:00,5.1178870201111,3,Stim_A.csv,Global.csv,Global,A,,,,,,0,JOL_GLOBAL,5,1.25,"How likely are you to correctly recall each of the items you just studied?|Type your response on a scale from 0-100 and then press Enter (0 = WILL NOT REMEMBER; 100 = DEFINITELY WILL REMEMBER).",Related,JOL5,2983,,,1707,1854,,,,88,1
5d95fe287f664d0016591f9b,11h2dt3clw,Ex2A_Prolific,1,98,2024-02-28T22:29:14+00:00,5.8946797847748,3,Stim_A.csv,Global.csv,Global,A,,,,,,0,Instruct,User,4,"You have completed this section. Please click next.",,Instruct166,4055,,,-1,-1,,,,,1
5d95fe287f664d0016591f9b,11h2dt3clw,Ex2A_Prolific,1,99,2024-02-28T22:29:46+00:00,31.462102174759,3,Stim_A.csv,Global.csv,Global,A,,,,,,0,FreeRecall,30,30,"Please type as many words as you can that begin with the letter ""W"". The computer will automatically advance to the next screen in 30 seconds.",,FILLER,30002,"water will willpower when would wood wimpy wall wanna words win wap",0,2577,29978,0,0,,,1
5d95fe287f664d0016591f9b,11h2dt3clw,Ex2A_Prolific,1,100,2024-02-28T22:29:54+00:00,8.3973920345306,3,Stim_A.csv,Global.csv,Global,A,,,,,,0,Instruct,User,4,"You have completed this section. Please click next.",,Instruct166,4814,,,-1,-1,,,,,1
5d95fe287f664d0016591f9b,11h2dt3clw,Ex2A_Prolific,1,101,2024-02-28T22:30:00+00:00,6.3709678649902,3,Stim_A.csv,Global.csv,Global,A,,,,,,0,Instruct,User,4,"You will now complete a memory test for the words you just studied. Please type as many words from the previous list as you can seperated by a comma. Spelling will not count against you and you can recall the words in any order. This test will be timed for one minute, and the computer will automatically advance once time is up. Click next when you are ready to begin.",,Instruct1666,4467,,,-1,-1,,,,,1
5d95fe287f664d0016591f9b,11h2dt3clw,Ex2A_Prolific,1,102,2024-02-28T22:31:02+00:00,61.354007005692,3,Stim_A.csv,Global.csv,Global,A,,,,,,0,FreeRecall,60,60,"Please type as many words as you can from the previous study list in any order. Please separate each word with a comma. Spelling will not count against you. This screen will automatically advance in one minute.",,RECALL_Test,60002,"psychian, dentist, clinic, lawyer, health, patient, stethoscope, sick, ",0,1168,47747,0,0,,,1
5d95fe287f664d0016591f9b,11h2dt3clw,Ex2A_Prolific,1,103,2024-02-28T22:31:13+00:00,11.11509513855,3,Stim_A.csv,Global.csv,Global,A,,,,,,0,Instruct,User,3,"You will now be presented with a new study list. Click next when you are ready to begin.",,NEXT_LIST,5585,,,-1,-1,,,,,1
5d95fe287f664d0016591f9b,11h2dt3clw,Ex2A_Prolific,1,104,2024-02-28T22:31:17+00:00,4.1975708007812,3,Stim_A.csv,Global.csv,Global,A,fast,,S1,,,62,Study,User,1.25,,Slow,S1,2202,,,-1,-1,,,,,1
5d95fe287f664d0016591f9b,11h2dt3clw,Ex2A_Prolific,1,105,2024-02-28T22:31:20+00:00,2.6569211483002,3,Stim_A.csv,Global.csv,Global,A,snail,,S2,,,63,Study,User,1.25,,Slow,S2,1266,,,-1,-1,,,,,1
5d95fe287f664d0016591f9b,11h2dt3clw,Ex2A_Prolific,1,106,2024-02-28T22:31:23+00:00,2.8989069461823,3,Stim_A.csv,Global.csv,Global,A,turtle,,S3,,,64,Study,User,1.25,,Slow,S3,1470,,,-1,-1,,,,,1
5d95fe287f664d0016591f9b,11h2dt3clw,Ex2A_Prolific,1,107,2024-02-28T22:31:25+00:00,2.6255269050598,3,Stim_A.csv,Global.csv,Global,A,sluggish,,S4,,,65,Study,User,1.25,,Slow,S4,1448,,,-1,-1,,,,,1
5d95fe287f664d0016591f9b,11h2dt3clw,Ex2A_Prolific,1,108,2024-02-28T22:31:28+00:00,2.6694991588593,3,Stim_A.csv,Global.csv,Global,A,quick,,S5,,,66,Study,User,1.25,,Slow,S5,1479,,,-1,-1,,,,,1
5d95fe287f664d0016591f9b,11h2dt3clw,Ex2A_Prolific,1,109,2024-02-28T22:31:31+00:00,3.2872478961945,3,Stim_A.csv,Global.csv,Global,A,molasses,,S6,,,67,Study,User,1.25,,Slow,S6,1280,,,-1,-1,,,,,1
5d95fe287f664d0016591f9b,11h2dt3clw,Ex2A_Prolific,1,110,2024-02-28T22:31:36+00:00,5.0549900531769,3,Stim_A.csv,Global.csv,Global,A,lethargic,,S7,,,68,Study,User,1.25,,Slow,S7,3618,,,-1,-1,,,,,1
5d95fe287f664d0016591f9b,11h2dt3clw,Ex2A_Prolific,1,111,2024-02-28T22:31:39+00:00,2.8797039985657,3,Stim_A.csv,Global.csv,Global,A,speed,,S8,,,69,Study,User,1.25,,Slow,S8,1436,,,-1,-1,,,,,1
5d95fe287f664d0016591f9b,11h2dt3clw,Ex2A_Prolific,1,112,2024-02-28T22:31:42+00:00,2.657084941864,3,Stim_A.csv,Global.csv,Global,A,delay,,S9,,,70,Study,User,1.25,,Slow,S9,1498,,,-1,-1,,,,,1
5d95fe287f664d0016591f9b,11h2dt3clw,Ex2A_Prolific,1,113,2024-02-28T22:31:45+00:00,3.0523891448975,3,Stim_A.csv,Global.csv,Global,A,hesitant,,S10,,,71,Study,User,1.25,,Slow,S10,1287,,,-1,-1,,,,,1
5d95fe287f664d0016591f9b,11h2dt3clw,Ex2A_Prolific,1,114,2024-02-28T22:31:48+00:00,3.0485689640045,3,Stim_A.csv,Global.csv,Global,A,cautious,,S11,,,72,Study,User,1.25,,Slow,S11,1593,,,-1,-1,,,,,1
5d95fe287f664d0016591f9b,11h2dt3clw,Ex2A_Prolific,1,115,2024-02-28T22:31:50+00:00,2.6471300125122,3,Stim_A.csv,Global.csv,Global,A,traffic,,S12,,,73,Study,User,1.25,,Slow,S12,1394,,,-1,-1,,,,,1
5d95fe287f664d0016591f9b,11h2dt3clw,Ex2A_Prolific,1,116,2024-02-28T22:31:54+00:00,3.0203499794006,3,Stim_A.csv,Global.csv,Global,A,,,,,,0,Instruct,User,-,"You have completed this section and will now be asked to judge your ability to remember the list items you just studied. You will have four seconds to type your rating. Please click next to continue.",,Next_List1,1471,,,-1,-1,,,,,1
5d95fe287f664d0016591f9b,11h2dt3clw,Ex2A_Prolific,1,117,2024-02-28T22:32:00+00:00,6.8611040115356,3,Stim_A.csv,Global.csv,Global,A,,,,,,0,JOL_GLOBAL,5,5,"How likely are you to correctly recall each of the items you just studied?|Type your response on a scale from 0-100 and then press Enter (0 = WILL NOT REMEMBER; 100 = DEFINITELY WILL REMEMBER).",Related,JOL6,5004,,,3950,4265,,,,85,1
5d95fe287f664d0016591f9b,11h2dt3clw,Ex2A_Prolific,1,118,2024-02-28T22:32:04+00:00,3.3909869194031,3,Stim_A.csv,Global.csv,Global,A,,,,,,0,Instruct,User,-,"You have completed this section. Please click next.",,Instruct166,2056,,,-1,-1,,,,,1
5d95fe287f664d0016591f9b,11h2dt3clw,Ex2A_Prolific,1,119,2024-02-28T22:32:35+00:00,31.31418299675,3,Stim_A.csv,Global.csv,Global,A,,,,,,0,FreeRecall,30,30,"Please type as many words as you can that begin with the letter ""C"". The computer will automatically advance to the next screen in 30 seconds.",,FILLER,30002,"came could cat creep cool cunt coop coupon crunch cern ",0,1549,29244,0,0,,,1
5d95fe287f664d0016591f9b,11h2dt3clw,Ex2A_Prolific,1,120,2024-02-28T22:32:39+00:00,4.2604320049286,3,Stim_A.csv,Global.csv,Global,A,,,,,,0,Instruct,User,-,"You have completed this section. Please click next.",,Instruct166,1564,,,-1,-1,,,,,1
5d95fe287f664d0016591f9b,11h2dt3clw,Ex2A_Prolific,1,121,2024-02-28T22:33:13+00:00,33.420349121094,3,Stim_A.csv,Global.csv,Global,A,,,,,,0,Instruct,User,4,"You will now complete a memory test for the words you just studied. Please type as many words from the previous list as you can seperated by a comma. Spelling will not count against you and you can recall the words in any order. This test will be timed for one minute, and the computer will automatically advance once time is up. Click next when you are ready to begin.",,Instruct1666,31487,,,-1,-1,,,,,1
5d95fe287f664d0016591f9b,11h2dt3clw,Ex2A_Prolific,1,122,2024-02-28T22:34:16+00:00,63.49772977829,3,Stim_A.csv,Global.csv,Global,A,,,,,,0,FreeRecall,60,60,"Please type as many words as you can from the previous study list in any order. Please separate each word with a comma. Spelling will not count against you. This screen will automatically advance in one minute.",,RECALL_Test,60007,"snail, sluggish, fast, turtle, molasses, traffic, hesistant, delay, quick, lethargic, cautious, ",0,1893,53960,0,0,,,1
5d95fe287f664d0016591f9b,11h2dt3clw,Ex2A_Prolific,1,123,2024-02-28T22:34:31+00:00,14.628781080246,3,Stim_A.csv,Global.csv,Global,A,,,,,,0,Instruct,User,3,"You will now be presented with a new study list. Click next when you are ready to begin.",,NEXT_LIST,9869,,,-1,-1,,,,,1
5d95fe287f664d0016591f9b,11h2dt3clw,Ex2A_Prolific,1,124,2024-02-28T22:34:35+00:00,3.6368100643158,3,Stim_A.csv,Global.csv,Global,A,mississippi,,RR1,,,74,Study,User,1.25,,River,RR1,1712,,,-1,-1,,,,,1
5d95fe287f664d0016591f9b,11h2dt3clw,Ex2A_Prolific,1,125,2024-02-28T22:34:38+00:00,3.1022758483887,3,Stim_A.csv,Global.csv,Global,A,creek,,RR2,,,75,Study,User,1.25,,River,RR2,1441,,,-1,-1,,,,,1
5d95fe287f664d0016591f9b,11h2dt3clw,Ex2A_Prolific,1,126,2024-02-28T22:34:40+00:00,2.8076481819153,3,Stim_A.csv,Global.csv,Global,A,stream,,RR3,,,76,Study,User,1.25,,River,RR3,1664,,,-1,-1,,,,,1
5d95fe287f664d0016591f9b,11h2dt3clw,Ex2A_Prolific,1,127,2024-02-28T22:34:45+00:00,4.1981630325317,3,Stim_A.csv,Global.csv,Global,A,flow,,RR4,,,77,Study,User,1.25,,River,RR4,1816,,,-1,-1,,,,,1
5d95fe287f664d0016591f9b,11h2dt3clw,Ex2A_Prolific,1,128,2024-02-28T22:34:48+00:00,3.2250809669495,3,Stim_A.csv,Global.csv,Global,A,bridge,,RR5,,,78,Study,User,1.25,,River,RR5,1940,,,-1,-1,,,,,1
5d95fe287f664d0016591f9b,11h2dt3clw,Ex2A_Prolific,1,129,2024-02-28T22:34:51+00:00,2.8617508411407,3,Stim_A.csv,Global.csv,Global,A,brook,,RR6,,,79,Study,User,1.25,,River,RR6,1503,,,-1,-1,,,,,1
5d95fe287f664d0016591f9b,11h2dt3clw,Ex2A_Prolific,1,130,2024-02-28T22:34:54+00:00,3.1408150196075,3,Stim_A.csv,Global.csv,Global,A,lake,,RR7,,,80,Study,User,1.25,,River,RR7,1393,,,-1,-1,,,,,1
5d95fe287f664d0016591f9b,11h2dt3clw,Ex2A_Prolific,1,131,2024-02-28T22:34:57+00:00,2.697417974472,3,Stim_A.csv,Global.csv,Global,A,barge,,RR8,,,81,Study,User,1.25,,River,RR8,1336,,,-1,-1,,,,,1
5d95fe287f664d0016591f9b,11h2dt3clw,Ex2A_Prolific,1,132,2024-02-28T22:35:00+00:00,2.9729161262512,3,Stim_A.csv,Global.csv,Global,A,water,,RR9,,,82,Study,User,1.25,,River,RR9,1428,,,-1,-1,,,,,1
5d95fe287f664d0016591f9b,11h2dt3clw,Ex2A_Prolific,1,133,2024-02-28T22:35:02+00:00,2.9215228557587,3,Stim_A.csv,Global.csv,Global,A,boat,,RR10,,,83,Study,User,1.25,,River,RR10,1282,,,-1,-1,,,,,1
5d95fe287f664d0016591f9b,11h2dt3clw,Ex2A_Prolific,1,134,2024-02-28T22:35:06+00:00,3.2087471485138,3,Stim_A.csv,Global.csv,Global,A,tide,,RR11,,,84,Study,User,1.25,,River,RR11,1422,,,-1,-1,,,,,1
5d95fe287f664d0016591f9b,11h2dt3clw,Ex2A_Prolific,1,135,2024-02-28T22:35:08+00:00,2.5878930091858,3,Stim_A.csv,Global.csv,Global,A,swim,,RR12,,,85,Study,User,1.25,,River,RR12,1282,,,-1,-1,,,,,1
5d95fe287f664d0016591f9b,11h2dt3clw,Ex2A_Prolific,1,136,2024-02-28T22:35:11+00:00,3.1109499931335,3,Stim_A.csv,Global.csv,Global,A,,,,,,0,Instruct,User,-,"You have completed this section and will now be asked to judge your ability to remember the list items you just studied. You will have four seconds to type your rating. Please click next to continue.",,Next_List1,1347,,,-1,-1,,,,,1
5d95fe287f664d0016591f9b,11h2dt3clw,Ex2A_Prolific,1,137,2024-02-28T22:35:18+00:00,7.0229048728943,3,Stim_A.csv,Global.csv,Global,A,,,,,,0,JOL_GLOBAL,5,5,"How likely are you to correctly recall each of the items you just studied?|Type your response on a scale from 0-100 and then press Enter (0 = WILL NOT REMEMBER; 100 = DEFINITELY WILL REMEMBER).",Related,JOL7,5002,,,3226,3771,,,,86,1
5d95fe287f664d0016591f9b,11h2dt3clw,Ex2A_Prolific,1,138,2024-02-28T22:35:21+00:00,2.7477312088013,3,Stim_A.csv,Global.csv,Global,A,,,,,,0,Instruct,User,-,"You have completed this section. Please click next.",,Instruct166,1366,,,-1,-1,,,,,1
5d95fe287f664d0016591f9b,11h2dt3clw,Ex2A_Prolific,1,139,2024-02-28T22:35:52+00:00,31.183233976364,3,Stim_A.csv,Global.csv,Global,A,,,,,,0,FreeRecall,30,30,"Please type as many words as you can that begin with the letter ""T"". The computer will automatically advance to the next screen in 30 seconds.",,FILLER,30001,"tetonic template tier temple tits tear twinkle tipsy t",0,1848,29916,0,0,,,1
5d95fe287f664d0016591f9b,11h2dt3clw,Ex2A_Prolific,1,140,2024-02-28T22:35:57+00:00,4.8763949871063,3,Stim_A.csv,Global.csv,Global,A,,,,,,0,Instruct,User,1.25,"You have completed this section. Please click next.",,Instruct166,1465,,,-1,-1,,,,,1
5d95fe287f664d0016591f9b,11h2dt3clw,Ex2A_Prolific,1,141,2024-02-28T22:36:03+00:00,5.5957429409027,3,Stim_A.csv,Global.csv,Global,A,,,,,,0,Instruct,User,4,"You will now complete a memory test for the words you just studied. Please type as many words from the previous list as you can seperated by a comma. Spelling will not count against you and you can recall the words in any order. This test will be timed for one minute, and the computer will automatically advance once time is up. Click next when you are ready to begin.",,Instruct1666,4009,,,-1,-1,,,,,1
5d95fe287f664d0016591f9b,11h2dt3clw,Ex2A_Prolific,1,142,2024-02-28T22:37:05+00:00,61.885668992996,3,Stim_A.csv,Global.csv,Global,A,,,,,,0,FreeRecall,60,60,"Please type as many words as you can from the previous study list in any order. Please separate each word with a comma. Spelling will not count against you. This screen will automatically advance in one minute.",,RECALL_Test,60004,"creek, missisippi, bridge, river, boat, barge, lake, ",0,3373,57911,0,0,,,1
5d95fe287f664d0016591f9b,11h2dt3clw,Ex2A_Prolific,1,143,2024-02-28T22:37:12+00:00,7.6115679740906,3,Stim_A.csv,Global.csv,Global,A,,,,,,0,Instruct,User,1.25,"You will now be presented with a new study list. Click next when you are ready to begin.",,NEXT_LIST,3547,,,-1,-1,,,,,1
5d95fe287f664d0016591f9b,11h2dt3clw,Ex2A_Prolific,1,144,2024-02-28T22:37:16+00:00,3.8555691242218,3,Stim_A.csv,Global.csv,Global,A,rye,,B1,,,86,Study,User,1.25,,Bread,B1,1420,,,-1,-1,,,,,1
5d95fe287f664d0016591f9b,11h2dt3clw,Ex2A_Prolific,1,145,2024-02-28T22:37:19+00:00,2.8347289562225,3,Stim_A.csv,Global.csv,Global,A,loaf,,B2,,,87,Study,User,1.25,,Bread,B2,1410,,,-1,-1,,,,,1
5d95fe287f664d0016591f9b,11h2dt3clw,Ex2A_Prolific,1,146,2024-02-28T22:37:22+00:00,2.7438328266144,3,Stim_A.csv,Global.csv,Global,A,butter,,B3,,,88,Study,User,1.25,,Bread,B3,1293,,,-1,-1,,,,,1
5d95fe287f664d0016591f9b,11h2dt3clw,Ex2A_Prolific,1,147,2024-02-28T22:37:25+00:00,2.8358252048492,3,Stim_A.csv,Global.csv,Global,A,toast,,B4,,,89,Study,User,1.25,,Bread,B4,1407,,,-1,-1,,,,,1
5d95fe287f664d0016591f9b,11h2dt3clw,Ex2A_Prolific,1,148,2024-02-28T22:37:32+00:00,7.1259088516235,3,Stim_A.csv,Global.csv,Global,A,dough,,B5,,,90,Study,User,1.25,,Bread,B5,5559,,,-1,-1,,,,,1
5d95fe287f664d0016591f9b,11h2dt3clw,Ex2A_Prolific,1,149,2024-02-28T22:37:34+00:00,2.6202819347382,3,Stim_A.csv,Global.csv,Global,A,crust,,B6,,,91,Study,User,1.25,,Bread,B6,1336,,,-1,-1,,,,,1
5d95fe287f664d0016591f9b,11h2dt3clw,Ex2A_Prolific,1,150,2024-02-28T22:37:37+00:00,2.6819200515747,3,Stim_A.csv,Global.csv,Global,A,flour,,B7,,,92,Study,User,1.25,,Bread,B7,1416,,,-1,-1,,,,,1
5d95fe287f664d0016591f9b,11h2dt3clw,Ex2A_Prolific,1,151,2024-02-28T22:37:40+00:00,3.1604511737823,3,Stim_A.csv,Global.csv,Global,A,sandwich,,B8,,,93,Study,User,1.25,,Bread,B8,1441,,,-1,-1,,,,,1
5d95fe287f664d0016591f9b,11h2dt3clw,Ex2A_Prolific,1,152,2024-02-28T22:37:43+00:00,2.9415409564972,3,Stim_A.csv,Global.csv,Global,A,jam,,B9,,,94,Study,User,1.25,,Bread,B9,1279,,,-1,-1,,,,,1
5d95fe287f664d0016591f9b,11h2dt3clw,Ex2A_Prolific,1,153,2024-02-28T22:37:46+00:00,3.187371969223,3,Stim_A.csv,Global.csv,Global,A,jelly,,B10,,,95,Study,User,1.25,,Bread,B10,1437,,,-1,-1,,,,,1
5d95fe287f664d0016591f9b,11h2dt3clw,Ex2A_Prolific,1,154,2024-02-28T22:37:49+00:00,2.7235820293427,3,Stim_A.csv,Global.csv,Global,A,slice,,B11,,,96,Study,User,1.25,,Bread,B11,1437,,,-1,-1,,,,,1
5d95fe287f664d0016591f9b,11h2dt3clw,Ex2A_Prolific,1,155,2024-02-28T22:37:52+00:00,2.8072218894958,3,Stim_A.csv,Global.csv,Global,A,milk,,B12,,,97,Study,User,1.25,,Bread,B12,1297,,,-1,-1,,,,,1
5d95fe287f664d0016591f9b,11h2dt3clw,Ex2A_Prolific,1,156,2024-02-28T22:37:55+00:00,2.8171949386597,3,Stim_A.csv,Global.csv,Global,A,,,,,,0,Instruct,User,-,"You have completed this section and will now be asked to judge your ability to remember the list items you just studied. You will have four seconds to type your rating. Please click next to continue.",,Next_List1,1255,,,-1,-1,,,,,1
5d95fe287f664d0016591f9b,11h2dt3clw,Ex2A_Prolific,1,157,2024-02-28T22:38:01+00:00,6.418398141861,3,Stim_A.csv,Global.csv,Global,A,,,,,,0,JOL_GLOBAL,5,5,"How likely are you to correctly recall each of the items you just studied?|Type your response on a scale from 0-100 and then press Enter (0 = WILL NOT REMEMBER; 100 = DEFINITELY WILL REMEMBER).",Related,JOL8,5003,,,523,691,,,,90,1
5d95fe287f664d0016591f9b,11h2dt3clw,Ex2A_Prolific,1,158,2024-02-28T22:38:04+00:00,2.7300429344177,3,Stim_A.csv,Global.csv,Global,A,,,,,,0,Instruct,User,-,"You have completed this section. Please click next.",,Instruct166,1225,,,-1,-1,,,,,1
5d95fe287f664d0016591f9b,11h2dt3clw,Ex2A_Prolific,1,159,2024-02-28T22:38:35+00:00,31.379167079926,3,Stim_A.csv,Global.csv,Global,A,,,,,,0,FreeRecall,30,30,"Please type as many words as you can that begin with the letter ""L"". The computer will automatically advance to the next screen in 30 seconds.",,FILLER,30005,"limp lousy loose lose lever luggage lint lit lick lap lamp la",0,1605,29857,0,0,,,1
5d95fe287f664d0016591f9b,11h2dt3clw,Ex2A_Prolific,1,160,2024-02-28T22:38:42+00:00,7.3478038311005,3,Stim_A.csv,Global.csv,Global,A,,,,,,0,Instruct,User,4,"You have completed this section. Please click next.",,Instruct166,4937,,,-1,-1,,,,,1
5d95fe287f664d0016591f9b,11h2dt3clw,Ex2A_Prolific,1,161,2024-02-28T22:38:47+00:00,4.1632080078125,3,Stim_A.csv,Global.csv,Global,A,,,,,,0,Instruct,User,1.25,"You will now complete a memory test for the words you just studied. Please type as many words from the previous list as you can seperated by a comma. Spelling will not count against you and you can recall the words in any order. This test will be timed for one minute, and the computer will automatically advance once time is up. Click next when you are ready to begin.",,Instruct1666,2505,,,-1,-1,,,,,1
5d95fe287f664d0016591f9b,11h2dt3clw,Ex2A_Prolific,1,162,2024-02-28T22:39:49+00:00,62.52267408371,3,Stim_A.csv,Global.csv,Global,A,,,,,,0,FreeRecall,60,60,"Please type as many words as you can from the previous study list in any order. Please separate each word with a comma. Spelling will not count against you. This screen will automatically advance in one minute.",,RECALL_Test,60003,"rye, bread, butter, jam, jelly, milk, loaf, dough, sandwich, toast, crust, flo",0,804,59925,0,0,,,1
5d95fe287f664d0016591f9b,11h2dt3clw,Ex2A_Prolific,1,163,2024-02-28T22:40:03+00:00,14.026062011719,3,Stim_A.csv,Global.csv,Global,A,,,,,,0,Instruct,User,3,"You will now be presented with a new study list. Click next when you are ready to begin.",,NEXT_LIST,9935,,,-1,-1,,,,,1
5d95fe287f664d0016591f9b,11h2dt3clw,Ex2A_Prolific,1,164,2024-02-28T22:40:07+00:00,3.9217391014099,3,Stim_A.csv,Global.csv,Global,A,banner,,F1,,,98,Study,User,1.25,,Flag,F1,1958,,,-1,-1,,,,,1
5d95fe287f664d0016591f9b,11h2dt3clw,Ex2A_Prolific,1,165,2024-02-28T22:40:10+00:00,2.7610878944397,3,Stim_A.csv,Global.csv,Global,A,checkered,,F2,,,99,Study,User,1.25,,Flag,F2,1373,,,-1,-1,,,,,1
5d95fe287f664d0016591f9b,11h2dt3clw,Ex2A_Prolific,1,166,2024-02-28T22:40:13+00:00,2.7641370296478,3,Stim_A.csv,Global.csv,Global,A,american,,F3,,,100,Study,User,1.25,,Flag,F3,1352,,,-1,-1,,,,,1
5d95fe287f664d0016591f9b,11h2dt3clw,Ex2A_Prolific,1,167,2024-02-28T22:40:16+00:00,3.3269369602203,3,Stim_A.csv,Global.csv,Global,A,stripes,,F4,,,101,Study,User,1.25,,Flag,F4,1546,,,-1,-1,,,,,1
5d95fe287f664d0016591f9b,11h2dt3clw,Ex2A_Prolific,1,168,2024-02-28T22:40:19+00:00,2.6033320426941,3,Stim_A.csv,Global.csv,Global,A,pole,,F5,,,102,Study,User,1.25,,Flag,F5,1316,,,-1,-1,,,,,1
5d95fe287f664d0016591f9b,11h2dt3clw,Ex2A_Prolific,1,169,2024-02-28T22:40:22+00:00,2.99649310112,3,Stim_A.csv,Global.csv,Global,A,anthem,,F6,,,103,Study,User,1.25,,Flag,F6,1387,,,-1,-1,,,,,1
5d95fe287f664d0016591f9b,11h2dt3clw,Ex2A_Prolific,1,170,2024-02-28T22:40:25+00:00,2.9322559833527,3,Stim_A.csv,Global.csv,Global,A,emblem,,F7,,,104,Study,User,1.25,,Flag,F7,1298,,,-1,-1,,,,,1
5d95fe287f664d0016591f9b,11h2dt3clw,Ex2A_Prolific,1,171,2024-02-28T22:40:27+00:00,2.9720799922943,3,Stim_A.csv,Global.csv,Global,A,national,,F8,,,105,Study,User,1.25,,Flag,F8,1307,,,-1,-1,,,,,1
5d95fe287f664d0016591f9b,11h2dt3clw,Ex2A_Prolific,1,172,2024-02-28T22:40:31+00:00,3.5911848545074,3,Stim_A.csv,Global.csv,Global,A,freedom,,F9,,,106,Study,User,1.25,,Flag,F9,1448,,,-1,-1,,,,,1
5d95fe287f664d0016591f9b,11h2dt3clw,Ex2A_Prolific,1,173,2024-02-28T22:40:37+00:00,5.6853959560394,3,Stim_A.csv,Global.csv,Global,A,symbol,,F10,,,107,Study,User,1.25,,Flag,F10,4205,,,-1,-1,,,,,1
5d95fe287f664d0016591f9b,11h2dt3clw,Ex2A_Prolific,1,174,2024-02-28T22:40:41+00:00,4.4356532096863,3,Stim_A.csv,Global.csv,Global,A,wave,,F11,,,108,Study,User,1.25,,Flag,F11,2907,,,-1,-1,,,,,1
5d95fe287f664d0016591f9b,11h2dt3clw,Ex2A_Prolific,1,175,2024-02-28T22:40:44+00:00,2.9077339172363,3,Stim_A.csv,Global.csv,Global,A,stars,,F12,,,109,Study,User,1.25,,Flag,F12,1399,,,-1,-1,,,,,1
5d95fe287f664d0016591f9b,11h2dt3clw,Ex2A_Prolific,1,176,2024-02-28T22:41:11+00:00,26.412587881088,3,Stim_A.csv,Global.csv,Global,A,,,,,,0,Instruct,User,-,"You have completed this section and will now be asked to judge your ability to remember the list items you just studied. You will have four seconds to type your rating. Please click next to continue.",,Next_List1,24528,,,-1,-1,,,,,0.738
5d95fe287f664d0016591f9b,11h2dt3clw,Ex2A_Prolific,1,177,2024-02-28T22:41:19+00:00,8.5894711017609,3,Stim_A.csv,Global.csv,Global,A,,,,,,0,JOL_GLOBAL,5,5,"How likely are you to correctly recall each of the items you just studied?|Type your response on a scale from 0-100 and then press Enter (0 = WILL NOT REMEMBER; 100 = DEFINITELY WILL REMEMBER).",Related,JOL9,5007,,,2910,3000,,,,74,1
5d95fe287f664d0016591f9b,11h2dt3clw,Ex2A_Prolific,1,178,2024-02-28T22:41:27+00:00,7.5053498744965,3,Stim_A.csv,Global.csv,Global,A,,,,,,0,Instruct,User,4,"You have completed this section. Please click next.",,Instruct166,6408,,,-1,-1,,,,,1
5d95fe287f664d0016591f9b,11h2dt3clw,Ex2A_Prolific,1,179,2024-02-28T22:42:00+00:00,32.992525100708,3,Stim_A.csv,Global.csv,Global,A,,,,,,0,FreeRecall,30,30,"Please type as many words as you can that begin with the letter ""R"". The computer will automatically advance to the next screen in 30 seconds.",,FILLER,30010,"really red ruby ready rose real ribbon ribbed rind ",0,2633,29842,0,0,,,1
5d95fe287f664d0016591f9b,11h2dt3clw,Ex2A_Prolific,1,180,2024-02-28T22:42:07+00:00,7.5384390354156,3,Stim_A.csv,Global.csv,Global,A,,,,,,0,Instruct,User,4,"You have completed this section. Please click next.",,Instruct166,4477,,,-1,-1,,,,,1
5d95fe287f664d0016591f9b,11h2dt3clw,Ex2A_Prolific,1,181,2024-02-28T22:42:14+00:00,6.7214539051056,3,Stim_A.csv,Global.csv,Global,A,,,,,,0,Instruct,User,4,"You will now complete a memory test for the words you just studied. Please type as many words from the previous list as you can seperated by a comma. Spelling will not count against you and you can recall the words in any order. This test will be timed for one minute, and the computer will automatically advance once time is up. Click next when you are ready to begin.",,Instruct1666,4133,,,-1,-1,,,,,1
5d95fe287f664d0016591f9b,11h2dt3clw,Ex2A_Prolific,1,182,2024-02-28T22:43:16+00:00,61.961708068848,3,Stim_A.csv,Global.csv,Global,A,,,,,,0,FreeRecall,60,60,"Please type as many words as you can from the previous study list in any order. Please separate each word with a comma. Spelling will not count against you. This screen will automatically advance in one minute.",,RECALL_Test,60386,"american, checkered, banner, stripes, pole, anthem, wave, symbol, stars, freedom",0,622,45692,0,0,,,0.86
5d95fe287f664d0016591f9b,11h2dt3clw,Ex2A_Prolific,1,183,2024-02-28T22:43:35+00:00,19.627269983292,3,Stim_A.csv,Global.csv,Global,A,,,,,,0,Instruct,User,3,"You will now be presented with a new study list. Click next when you are ready to begin.",,NEXT_LIST,16628,,,-1,-1,,,,,0.935
5d95fe287f664d0016591f9b,11h2dt3clw,Ex2A_Prolific,1,184,2024-02-28T22:43:39+00:00,3.9159889221191,3,Stim_A.csv,Global.csv,Global,A,blouse,,SS1,,,110,Study,User,1.25,,Shirt,SS1,1777,,,-1,-1,,,,,1
5d95fe287f664d0016591f9b,11h2dt3clw,Ex2A_Prolific,1,185,2024-02-28T22:43:42+00:00,2.6721131801605,3,Stim_A.csv,Global.csv,Global,A,sleeves,,SS2,,,111,Study,User,1.25,,Shirt,SS2,1331,,,-1,-1,,,,,1
5d95fe287f664d0016591f9b,11h2dt3clw,Ex2A_Prolific,1,186,2024-02-28T22:43:46+00:00,3.9932630062103,3,Stim_A.csv,Global.csv,Global,A,collar,,SS3,,,112,Study,User,1.25,,Shirt,SS3,1651,,,-1,-1,,,,,1
5d95fe287f664d0016591f9b,11h2dt3clw,Ex2A_Prolific,1,187,2024-02-28T22:43:51+00:00,4.7230138778687,3,Stim_A.csv,Global.csv,Global,A,shorts,,SS4,,,113,Study,User,1.25,,Shirt,SS4,3096,,,-1,-1,,,,,1
5d95fe287f664d0016591f9b,11h2dt3clw,Ex2A_Prolific,1,188,2024-02-28T22:43:56+00:00,5.2412049770355,3,Stim_A.csv,Global.csv,Global,A,button,,SS5,,,114,Study,User,1.25,,Shirt,SS5,3625,,,-1,-1,,,,,1
5d95fe287f664d0016591f9b,11h2dt3clw,Ex2A_Prolific,1,189,2024-02-28T22:43:59+00:00,3.1446859836578,3,Stim_A.csv,Global.csv,Global,A,pants,,SS6,,,115,Study,User,1.25,,Shirt,SS6,1767,,,-1,-1,,,,,1
5d95fe287f664d0016591f9b,11h2dt3clw,Ex2A_Prolific,1,190,2024-02-28T22:44:04+00:00,4.7541871070862,3,Stim_A.csv,Global.csv,Global,A,polo,,SS7,,,116,Study,User,1.25,,Shirt,SS7,2605,,,-1,-1,,,,,1
5d95fe287f664d0016591f9b,11h2dt3clw,Ex2A_Prolific,1,191,2024-02-28T22:44:08+00:00,3.720939874649,3,Stim_A.csv,Global.csv,Global,A,jersey,,SS8,,,117,Study,User,1.25,,Shirt,SS8,2244,,,-1,-1,,,,,1
5d95fe287f664d0016591f9b,11h2dt3clw,Ex2A_Prolific,1,192,2024-02-28T22:44:10+00:00,2.7066550254822,3,Stim_A.csv,Global.csv,Global,A,vest,,SS9,,,118,Study,User,1.25,,Shirt,SS9,1304,,,-1,-1,,,,,1
5d95fe287f664d0016591f9b,11h2dt3clw,Ex2A_Prolific,1,193,2024-02-28T22:44:14+00:00,3.2267701625824,3,Stim_A.csv,Global.csv,Global,A,cuffs,,SS10,,,119,Study,User,1.25,,Shirt,SS10,1749,,,-1,-1,,,,,1
5d95fe287f664d0016591f9b,11h2dt3clw,Ex2A_Prolific,1,194,2024-02-28T22:44:16+00:00,2.7583019733429,3,Stim_A.csv,Global.csv,Global,A,tie,,SS11,,,120,Study,User,1.25,,Shirt,SS11,1339,,,-1,-1,,,,,1
5d95fe287f664d0016591f9b,11h2dt3clw,Ex2A_Prolific,1,195,2024-02-28T22:44:20+00:00,3.8328258991241,3,Stim_A.csv,Global.csv,Global,A,pocket,,SS12,,,121,Study,User,1.25,,Shirt,SS12,2812,,,-1,-1,,,,,1
5d95fe287f664d0016591f9b,11h2dt3clw,Ex2A_Prolific,1,196,2024-02-28T22:44:23+00:00,2.6988480091095,3,Stim_A.csv,Global.csv,Global,A,,,,,,0,Instruct,User,-,"You have completed this section and will now be asked to judge your ability to remember the list items you just studied. You will have four seconds to type your rating. Please click next to continue.",,Next_List1,1449,,,-1,-1,,,,,1
5d95fe287f664d0016591f9b,11h2dt3clw,Ex2A_Prolific,1,197,2024-02-28T22:44:30+00:00,6.7796981334686,3,Stim_A.csv,Global.csv,Global,A,,,,,,0,JOL_GLOBAL,5,5,"How likely are you to correctly recall each of the items you just studied?|Type your response on a scale from 0-100 and then press Enter (0 = WILL NOT REMEMBER; 100 = DEFINITELY WILL REMEMBER).",Related,JOL10,5002,,,3361,3543,,,,77,1
5d95fe287f664d0016591f9b,11h2dt3clw,Ex2A_Prolific,1,198,2024-02-28T22:44:43+00:00,13.216153860092,3,Stim_A.csv,Global.csv,Global,A,,,,,,0,Instruct,User,4,"You have completed this section. Please click next.",,Instruct166,11845,,,-1,-1,,,,,0.593
5d95fe287f664d0016591f9b,11h2dt3clw,Ex2A_Prolific,1,199,2024-02-28T22:45:15+00:00,31.804067134857,3,Stim_A.csv,Global.csv,Global,A,,,,,,0,FreeRecall,30,30,"Please type as many words as you can that begin with the letter ""M"". The computer will automatically advance to the next screen in 30 seconds.",,FILLER,30005,"molly maam madame mermaid man moose mousse many my m",0,4392,29390,0,0,,,1
5d95fe287f664d0016591f9b,11h2dt3clw,Ex2A_Prolific,1,200,2024-02-28T22:45:25+00:00,10.666336774826,3,Stim_A.csv,Global.csv,Global,A,,,,,,0,Instruct,User,-,"You have completed this section. Please click next.",,Instruct166,7823,,,-1,-1,,,,,0.731
5d95fe287f664d0016591f9b,11h2dt3clw,Ex2A_Prolific,1,201,2024-02-28T22:45:31+00:00,6.1125280857086,3,Stim_A.csv,Global.csv,Global,A,,,,,,0,Instruct,User,4,"You will now complete a memory test for the words you just studied. Please type as many words from the previous list as you can seperated by a comma. Spelling will not count against you and you can recall the words in any order. This test will be timed for one minute, and the computer will automatically advance once time is up. Click next when you are ready to begin.",,Instruct1666,4601,,,-1,-1,,,,,1
5d95fe287f664d0016591f9b,11h2dt3clw,Ex2A_Prolific,1,202,2024-02-28T22:46:33+00:00,61.217838048935,3,Stim_A.csv,Global.csv,Global,A,,,,,,0,FreeRecall,60,60,"Please type as many words as you can from the previous study list in any order. Please separate each word with a comma. Spelling will not count against you. This screen will automatically advance in one minute.",,RECALL_Test,60002,"button, sleeves, blouse, tie, vest, cuffs, pocket, jersey, polo, pants, collar, sh",0,1000,59854,0,0,,,0.847
5d95fe287f664d0016591f9b,11h2dt3clw,Ex2A_Prolific,1,203,2024-02-28T22:46:37+00:00,4.8445100784302,3,Stim_A.csv,Global.csv,Global,A,,,,,,0,Instruct,User,-,"You have completed this section. Please click next.",,Instruct7,1889,,,-1,-1,,,,,1
5d95fe287f664d0016591f9b,11h2dt3clw,Ex2A_Prolific,1,204,2024-02-28T22:46:40+00:00,2.4868199825287,3,Stim_A.csv,Global.csv,Global,A,,,,,,0,Instruct,User,-,"The following screen will ask you a few questions abour your experience today. You must complete these questions to receive credit.",,Instruct8,1266,,,-1,-1,,,,,1
