Username,ID,ExperimentName,Session,Trial,Date,TimeDif,"Condition Number","Stimuli File","Order File","Condition Description","Condition Notes",Stimuli*Cue,Stimuli*Answer,Stimuli*Shuffle,"Stimuli*Stimuli Notes",Stimuli*Value,Procedure*Item,"Procedure*Trial Type","Procedure*Max Time","Procedure*Min Time",Procedure*Text,"Procedure*Procedure Notes",Procedure*Shuffle,Response*RT,Response*Response,Response*Accuracy,Response*RTfirst,Response*RTlast,Response*strictAcc,Response*lenientAcc,Response*focus,Response*JOL,Response*Focus
657f0b244c7490faace37f69,gxzaa5g1mb,Ex2A_Prolific,1,1,2024-02-28T02:16:35+00:00,7.5580840110779,3,Stim_A.csv,Global.csv,Global,A,,,,,,0,Instruct,-,5,"In this section, you will be presented with a series of words. Please study each word carefully. Your memory will be tested!",Initial_Instruct,Instruct1,7114,,,-1,-1,,,,,1
657f0b244c7490faace37f69,gxzaa5g1mb,Ex2A_Prolific,1,2,2024-02-28T02:16:46+00:00,11.414455890656,3,Stim_A.csv,Global.csv,Global,A,,,,,,0,Instruct,User,5,"After studying each LIST of words, you will be asked to rate your ability to remember ALL of the words in the list on a later test. You will make these ratings using a scale of 0 to 100. A rating of 0 = WILL NOT REMEMBER, while a rating of 100 = WILL DEFINITELY REMEMBER. Please try to be as accurate as possible with these ratings!",,BLIPBLOOP,10892,,,-1,-1,,,,,1
657f0b244c7490faace37f69,gxzaa5g1mb,Ex2A_Prolific,1,3,2024-02-28T02:16:50+00:00,3.3679540157318,3,Stim_A.csv,Global.csv,Global,A,,,,,,0,Instruct,User,1.25,"You will now begin the study. Click next when you are ready to begin.",,Instruct16,2905,,,-1,-1,,,,,1
657f0b244c7490faace37f69,gxzaa5g1mb,Ex2A_Prolific,1,4,2024-02-28T02:16:54+00:00,4.3204820156097,3,Stim_A.csv,Global.csv,Global,A,pane,,Win_1,,,2,Study,User,1.25,,Window,Win_1,3775,,,-1,-1,,,,,1
657f0b244c7490faace37f69,gxzaa5g1mb,Ex2A_Prolific,1,5,2024-02-28T02:16:57+00:00,2.7101089954376,3,Stim_A.csv,Global.csv,Global,A,sill,,Win_2,,,3,Study,User,1.25,,Window,Win_2,2241,,,-1,-1,,,,,1
657f0b244c7490faace37f69,gxzaa5g1mb,Ex2A_Prolific,1,6,2024-02-28T02:17:00+00:00,2.9700989723206,3,Stim_A.csv,Global.csv,Global,A,shutter,,Win_3,,,4,Study,User,1.25,,Window,Win_3,2488,,,-1,-1,,,,,1
657f0b244c7490faace37f69,gxzaa5g1mb,Ex2A_Prolific,1,7,2024-02-28T02:17:13+00:00,13.704492092133,3,Stim_A.csv,Global.csv,Global,A,curtain,,Win_4,,,5,Study,User,1.25,,Window,Win_4,13151,,,-1,-1,,,,,0.429
657f0b244c7490faace37f69,gxzaa5g1mb,Ex2A_Prolific,1,8,2024-02-28T02:17:16+00:00,2.4696769714355,3,Stim_A.csv,Global.csv,Global,A,door,,Win_5,,,6,Study,User,1.25,,Window,Win_5,2003,,,-1,-1,,,,,1
657f0b244c7490faace37f69,gxzaa5g1mb,Ex2A_Prolific,1,9,2024-02-28T02:17:18+00:00,2.3094348907471,3,Stim_A.csv,Global.csv,Global,A,ledge,,Win_6,,,7,Study,User,1.25,,Window,Win_6,1838,,,-1,-1,,,,,1
657f0b244c7490faace37f69,gxzaa5g1mb,Ex2A_Prolific,1,10,2024-02-28T02:17:21+00:00,2.2904441356659,3,Stim_A.csv,Global.csv,Global,A,glass,,Win_7,,,8,Study,User,1.25,,Window,Win_7,1827,,,-1,-1,,,,,1
657f0b244c7490faace37f69,gxzaa5g1mb,Ex2A_Prolific,1,11,2024-02-28T02:17:23+00:00,2.2986860275269,3,Stim_A.csv,Global.csv,Global,A,view,,Win_8,,,9,Study,User,1.25,,Window,Win_8,1829,,,-1,-1,,,,,1
657f0b244c7490faace37f69,gxzaa5g1mb,Ex2A_Prolific,1,12,2024-02-28T02:17:31+00:00,8.2935497760773,3,Stim_A.csv,Global.csv,Global,A,screen,,Win_9,,,10,Study,User,1.25,,Window,Win_9,7756,,,-1,-1,,,,,0.297
657f0b244c7490faace37f69,gxzaa5g1mb,Ex2A_Prolific,1,13,2024-02-28T02:17:33+00:00,2.3084781169891,3,Stim_A.csv,Global.csv,Global,A,shade,,Win_10,,,11,Study,User,1.25,,Window,Win_10,1836,,,-1,-1,,,,,1
657f0b244c7490faace37f69,gxzaa5g1mb,Ex2A_Prolific,1,14,2024-02-28T02:17:36+00:00,2.1938199996948,3,Stim_A.csv,Global.csv,Global,A,open,,Win_11,,,12,Study,User,1.25,,Window,Win_11,1724,,,-1,-1,,,,,1
657f0b244c7490faace37f69,gxzaa5g1mb,Ex2A_Prolific,1,15,2024-02-28T02:17:38+00:00,2.1909470558167,3,Stim_A.csv,Global.csv,Global,A,frame,,Win_12,,,13,Study,User,1.25,,Window,Win_12,1726,,,-1,-1,,,,,1
657f0b244c7490faace37f69,gxzaa5g1mb,Ex2A_Prolific,1,16,2024-02-28T02:17:46+00:00,8.3561270236969,3,Stim_A.csv,Global.csv,Global,A,,,,,,0,Instruct,User,-,"You have completed this section and will now be asked to judge your ability to remember the list items you just studied. You will have four seconds to type your rating. Please click next to continue.",,Next_List1,7828,,,-1,-1,,,,,0.447
657f0b244c7490faace37f69,gxzaa5g1mb,Ex2A_Prolific,1,17,2024-02-28T02:17:52+00:00,5.56045794487,3,Stim_A.csv,Global.csv,Global,A,,,,,,0,JOL_GLOBAL,5,5,"How likely are you to correctly recall each of the items you just studied?|Type your response on a scale from 0-100 and then press Enter (0 = WILL NOT REMEMBER; 100 = DEFINITELY WILL REMEMBER).",Related,JOL1,5015,,,2827,3009,,,,90,1
657f0b244c7490faace37f69,gxzaa5g1mb,Ex2A_Prolific,1,18,2024-02-28T02:17:59+00:00,7.3440299034119,3,Stim_A.csv,Global.csv,Global,A,,,,,,0,Instruct,User,-,"You have completed this section. Please click next.",,Instruct166,6806,,,-1,-1,,,,,1
657f0b244c7490faace37f69,gxzaa5g1mb,Ex2A_Prolific,1,19,2024-02-28T02:18:30+00:00,30.553753137589,3,Stim_A.csv,Global.csv,Global,A,,,,,,0,FreeRecall,30,30,"Please type as many words as you can that begin with the letter ""L"". The computer will automatically advance to the next screen in 30 seconds.",,FILLER,30015,"Shade, shutter, pane, window, door, curtain, sill, open, screen, ledge, glass, ",0,3223,29606,0,0,,,0.854
657f0b244c7490faace37f69,gxzaa5g1mb,Ex2A_Prolific,1,20,2024-02-28T02:18:32+00:00,2.572301864624,3,Stim_A.csv,Global.csv,Global,A,,,,,,0,Instruct,User,-,"You have completed this section. Please click next.",,Instruct166,2117,,,10,10,,,,,1
657f0b244c7490faace37f69,gxzaa5g1mb,Ex2A_Prolific,1,21,2024-02-28T02:18:50+00:00,17.876924037933,3,Stim_A.csv,Global.csv,Global,A,,,,,,0,Instruct,User,4,"You will now complete a memory test for the words you just studied. Please type as many words from the previous list as you can seperated by a comma. Spelling will not count against you and you can recall the words in any order. This test will be timed for one minute, and the computer will automatically advance once time is up. Click next when you are ready to begin.",,Instruct1666,17344,,,-1,-1,,,,,0.831
657f0b244c7490faace37f69,gxzaa5g1mb,Ex2A_Prolific,1,22,2024-02-28T02:19:51+00:00,60.597762107849,3,Stim_A.csv,Global.csv,Global,A,,,,,,0,FreeRecall,60,60,"Please type as many words as you can from the previous study list in any order. Please separate each word with a comma. Spelling will not count against you. This screen will automatically advance in one minute.",,RECALL_Test,60014,"pane, sill, curtain, shutter, door, view, screen, shade",0,2065,28411,0,0,,,0.818
657f0b244c7490faace37f69,gxzaa5g1mb,Ex2A_Prolific,1,23,2024-02-28T02:19:57+00:00,6.7136499881744,3,Stim_A.csv,Global.csv,Global,A,,,,,,0,Instruct,User,3,"You will now be presented with a new study list. Click next when you are ready to begin.",,NEXT_LIST,6185,,,-1,-1,,,,,0.833
657f0b244c7490faace37f69,gxzaa5g1mb,Ex2A_Prolific,1,24,2024-02-28T02:20:06+00:00,8.7897348403931,3,Stim_A.csv,Global.csv,Global,A,sandpaper,,R1,,,14,Study,User,1.25,,Rough,R1,8232,,,-1,-1,,,,,0.55
657f0b244c7490faace37f69,gxzaa5g1mb,Ex2A_Prolific,1,25,2024-02-28T02:20:09+00:00,2.5941290855408,3,Stim_A.csv,Global.csv,Global,A,smooth,,R2,,,15,Study,User,1.25,,Rough,R2,2123,,,-1,-1,,,,,1
657f0b244c7490faace37f69,gxzaa5g1mb,Ex2A_Prolific,1,26,2024-02-28T02:20:16+00:00,7.3642389774323,3,Stim_A.csv,Global.csv,Global,A,coarse,,R3,,,16,Study,User,1.25,,Rough,R3,6828,,,-1,-1,,,,,0.303
657f0b244c7490faace37f69,gxzaa5g1mb,Ex2A_Prolific,1,27,2024-02-28T02:20:18+00:00,2.2002310752869,3,Stim_A.csv,Global.csv,Global,A,tough,,R4,,,17,Study,User,1.25,,Rough,R4,1727,,,-1,-1,,,,,1
657f0b244c7490faace37f69,gxzaa5g1mb,Ex2A_Prolific,1,28,2024-02-28T02:20:21+00:00,2.2653779983521,3,Stim_A.csv,Global.csv,Global,A,rugged,,R5,,,18,Study,User,1.25,,Rough,R5,1803,,,-1,-1,,,,,1
657f0b244c7490faace37f69,gxzaa5g1mb,Ex2A_Prolific,1,29,2024-02-28T02:20:29+00:00,7.9470200538635,3,Stim_A.csv,Global.csv,Global,A,bumpy,,R6,,,19,Study,User,1.25,,Rough,R6,7414,,,-1,-1,,,,,0.278
657f0b244c7490faace37f69,gxzaa5g1mb,Ex2A_Prolific,1,30,2024-02-28T02:20:31+00:00,2.1793248653412,3,Stim_A.csv,Global.csv,Global,A,jagged,,R7,,,20,Study,User,1.25,,Rough,R7,1694,,,-1,-1,,,,,1
657f0b244c7490faace37f69,gxzaa5g1mb,Ex2A_Prolific,1,31,2024-02-28T02:20:33+00:00,2.1691510677338,3,Stim_A.csv,Global.csv,Global,A,riders,,R8,,,21,Study,User,1.25,,Rough,R8,1697,,,-1,-1,,,,,1
657f0b244c7490faace37f69,gxzaa5g1mb,Ex2A_Prolific,1,32,2024-02-28T02:20:41+00:00,8.033686876297,3,Stim_A.csv,Global.csv,Global,A,uneven,,R9,,,22,Study,User,1.25,,Rough,R9,7464,,,-1,-1,,,,,0.222
657f0b244c7490faace37f69,gxzaa5g1mb,Ex2A_Prolific,1,33,2024-02-28T02:20:43+00:00,2.1358261108398,3,Stim_A.csv,Global.csv,Global,A,road,,R10,,,23,Study,User,1.25,,Rough,R10,1659,,,-1,-1,,,,,1
657f0b244c7490faace37f69,gxzaa5g1mb,Ex2A_Prolific,1,34,2024-02-28T02:20:45+00:00,2.1759169101715,3,Stim_A.csv,Global.csv,Global,A,ready,,R11,,,24,Study,User,1.25,,Rough,R11,1712,,,-1,-1,,,,,1
657f0b244c7490faace37f69,gxzaa5g1mb,Ex2A_Prolific,1,35,2024-02-28T02:20:53+00:00,7.2530970573425,3,Stim_A.csv,Global.csv,Global,A,sand,,R12,,,25,Study,User,1.25,,Rough,R12,6701,,,-1,-1,,,,,0.25
657f0b244c7490faace37f69,gxzaa5g1mb,Ex2A_Prolific,1,36,2024-02-28T02:20:57+00:00,4.5356149673462,3,Stim_A.csv,Global.csv,Global,A,,,,,,0,Instruct,User,-,"You have completed this section and will now be asked to judge your ability to remember the list items you just studied. You will have four seconds to type your rating. Please click next to continue.",,Next_List1,3993,,,-1,-1,,,,,1
657f0b244c7490faace37f69,gxzaa5g1mb,Ex2A_Prolific,1,37,2024-02-28T02:21:03+00:00,5.5653860569,3,Stim_A.csv,Global.csv,Global,A,,,,,,0,JOL_GLOBAL,5,5,"How likely are you to correctly recall each of the items you just studied?|Type your response on a scale from 0-100 and then press Enter (0 = WILL NOT REMEMBER; 100 = DEFINITELY WILL REMEMBER).",Unrelated,JOL2,5013,,,4008,4276,,,,60,1
657f0b244c7490faace37f69,gxzaa5g1mb,Ex2A_Prolific,1,38,2024-02-28T02:21:08+00:00,5.204381942749,3,Stim_A.csv,Global.csv,Global,A,,,,,,0,Instruct,User,4,"You have completed this section. Please click next.",,Instruct166,4679,,,-1,-1,,,,,1
657f0b244c7490faace37f69,gxzaa5g1mb,Ex2A_Prolific,1,39,2024-02-28T02:21:38+00:00,30.575601100922,3,Stim_A.csv,Global.csv,Global,A,,,,,,0,FreeRecall,30,30,"Please type as many words as you can that begin with the letter ""R"". The computer will automatically advance to the next screen in 30 seconds.",,FILLER,30015,"rugged, rider, road",0,2379,17084,0,0,,,1
657f0b244c7490faace37f69,gxzaa5g1mb,Ex2A_Prolific,1,40,2024-02-28T02:21:41+00:00,2.6202268600464,3,Stim_A.csv,Global.csv,Global,A,,,,,,0,Instruct,User,-,"You have completed this section. Please click next.",,Instruct166,2160,,,-1,-1,,,,,1
657f0b244c7490faace37f69,gxzaa5g1mb,Ex2A_Prolific,1,41,2024-02-28T02:21:53+00:00,12.11150097847,3,Stim_A.csv,Global.csv,Global,A,,,,,,0,Instruct,User,4,"You will now complete a memory test for the words you just studied. Please type as many words from the previous list as you can seperated by a comma. Spelling will not count against you and you can recall the words in any order. This test will be timed for one minute, and the computer will automatically advance once time is up. Click next when you are ready to begin.",,Instruct1666,11563,,,-1,-1,,,,,1
657f0b244c7490faace37f69,gxzaa5g1mb,Ex2A_Prolific,1,42,2024-02-28T02:22:54+00:00,60.606348991394,3,Stim_A.csv,Global.csv,Global,A,,,,,,0,FreeRecall,60,60,"Please type as many words as you can from the previous study list in any order. Please separate each word with a comma. Spelling will not count against you. This screen will automatically advance in one minute.",,RECALL_Test,60005,"rugged, rider, road, coarse, sandpaper, smooth, jagged, bumpy, ",0,1086,25129,0,0,,,0.769
657f0b244c7490faace37f69,gxzaa5g1mb,Ex2A_Prolific,1,43,2024-02-28T02:22:58+00:00,4.6649122238159,3,Stim_A.csv,Global.csv,Global,A,,,,,,0,Instruct,User,3,"You will now be presented with a new study list. Click next when you are ready to begin.",,NEXT_LIST,4111,,,-1,-1,,,,,1
657f0b244c7490faace37f69,gxzaa5g1mb,Ex2A_Prolific,1,44,2024-02-28T02:23:01+00:00,2.5760858058929,3,Stim_A.csv,Global.csv,Global,A,rage,,A1,,,26,Study,User,1.25,,Anger,A1,2082,,,-1,-1,,,,,1
657f0b244c7490faace37f69,gxzaa5g1mb,Ex2A_Prolific,1,45,2024-02-28T02:23:07+00:00,5.6004769802094,3,Stim_A.csv,Global.csv,Global,A,mad,,A2,,,27,Study,User,1.25,,Anger,A2,5046,,,-1,-1,,,,,0.28
657f0b244c7490faace37f69,gxzaa5g1mb,Ex2A_Prolific,1,46,2024-02-28T02:23:10+00:00,3.582465171814,3,Stim_A.csv,Global.csv,Global,A,enrage,,A3,,,28,Study,User,1.25,,Anger,A3,3112,,,-1,-1,,,,,1
657f0b244c7490faace37f69,gxzaa5g1mb,Ex2A_Prolific,1,47,2024-02-28T02:23:12+00:00,2.1762778759003,3,Stim_A.csv,Global.csv,Global,A,fury,,A4,,,29,Study,User,1.25,,Anger,A4,1703,,,-1,-1,,,,,1
657f0b244c7490faace37f69,gxzaa5g1mb,Ex2A_Prolific,1,48,2024-02-28T02:23:15+00:00,2.2218410968781,3,Stim_A.csv,Global.csv,Global,A,temper,,A5,,,30,Study,User,1.25,,Anger,A5,1749,,,-1,-1,,,,,1
657f0b244c7490faace37f69,gxzaa5g1mb,Ex2A_Prolific,1,49,2024-02-28T02:23:17+00:00,2.1768748760223,3,Stim_A.csv,Global.csv,Global,A,ire,,A6,,,31,Study,User,1.25,,Anger,A6,1699,,,-1,-1,,,,,1
657f0b244c7490faace37f69,gxzaa5g1mb,Ex2A_Prolific,1,50,2024-02-28T02:23:19+00:00,2.1799740791321,3,Stim_A.csv,Global.csv,Global,A,wrath,,A7,,,32,Study,User,1.25,,Anger,A7,1709,,,-1,-1,,,,,1
657f0b244c7490faace37f69,gxzaa5g1mb,Ex2A_Prolific,1,51,2024-02-28T02:23:21+00:00,2.2746789455414,3,Stim_A.csv,Global.csv,Global,A,mean,,A8,,,33,Study,User,1.25,,Anger,A8,1803,,,-1,-1,,,,,1
657f0b244c7490faace37f69,gxzaa5g1mb,Ex2A_Prolific,1,52,2024-02-28T02:23:23+00:00,2.1930389404297,3,Stim_A.csv,Global.csv,Global,A,hatred,,A9,,,34,Study,User,1.25,,Anger,A9,1729,,,-1,-1,,,,,1
657f0b244c7490faace37f69,gxzaa5g1mb,Ex2A_Prolific,1,53,2024-02-28T02:23:26+00:00,2.1839241981506,3,Stim_A.csv,Global.csv,Global,A,fight,,A10,,,35,Study,User,1.25,,Anger,A10,1711,,,-1,-1,,,,,1
657f0b244c7490faace37f69,gxzaa5g1mb,Ex2A_Prolific,1,54,2024-02-28T02:23:28+00:00,2.1605069637299,3,Stim_A.csv,Global.csv,Global,A,hate,,A11,,,36,Study,User,1.25,,Anger,A11,1692,,,-1,-1,,,,,1
657f0b244c7490faace37f69,gxzaa5g1mb,Ex2A_Prolific,1,55,2024-02-28T02:23:30+00:00,2.2836329936981,3,Stim_A.csv,Global.csv,Global,A,fear,,A12,,,37,Study,User,1.25,,Anger,A12,1813,,,-1,-1,,,,,1
657f0b244c7490faace37f69,gxzaa5g1mb,Ex2A_Prolific,1,56,2024-02-28T02:23:32+00:00,1.9062418937683,3,Stim_A.csv,Global.csv,Global,A,,,,,,0,Instruct,User,-,"You have completed this section and will now be asked to judge your ability to remember the list items you just studied. You will have four seconds to type your rating. Please click next to continue.",,Next_List1,1443,,,-1,-1,,,,,1
657f0b244c7490faace37f69,gxzaa5g1mb,Ex2A_Prolific,1,57,2024-02-28T02:23:37+00:00,5.5635249614716,3,Stim_A.csv,Global.csv,Global,A,,,,,,0,JOL_GLOBAL,5,5,"How likely are you to correctly recall each of the items you just studied?|Type your response on a scale from 0-100 and then press Enter (0 = WILL NOT REMEMBER; 100 = DEFINITELY WILL REMEMBER).",Related,JOL3,5015,,,527,1015,,,,30,1
657f0b244c7490faace37f69,gxzaa5g1mb,Ex2A_Prolific,1,58,2024-02-28T02:23:39+00:00,1.9581980705261,3,Stim_A.csv,Global.csv,Global,A,,,,,,0,Instruct,User,-,"You have completed this section. Please click next.",,Instruct166,1492,,,-1,-1,,,,,1
657f0b244c7490faace37f69,gxzaa5g1mb,Ex2A_Prolific,1,59,2024-02-28T02:24:11+00:00,31.461058139801,3,Stim_A.csv,Global.csv,Global,A,,,,,,0,FreeRecall,30,30,"Please type as many words as you can that begin with the letter ""T"". The computer will automatically advance to the next screen in 30 seconds.",,FILLER,30901,"temper, tempest, ",0,3936,14430,0,0,,,0.986
657f0b244c7490faace37f69,gxzaa5g1mb,Ex2A_Prolific,1,60,2024-02-28T02:24:13+00:00,2.4963989257812,3,Stim_A.csv,Global.csv,Global,A,,,,,,0,Instruct,User,-,"You have completed this section. Please click next.",,Instruct166,2046,,,-1,-1,,,,,0.7
657f0b244c7490faace37f69,gxzaa5g1mb,Ex2A_Prolific,1,61,2024-02-28T02:24:19+00:00,5.3094670772552,3,Stim_A.csv,Global.csv,Global,A,,,,,,0,Instruct,User,4,"You will now complete a memory test for the words you just studied. Please type as many words from the previous list as you can seperated by a comma. Spelling will not count against you and you can recall the words in any order. This test will be timed for one minute, and the computer will automatically advance once time is up. Click next when you are ready to begin.",,Instruct1666,4766,,,-1,-1,,,,,1
657f0b244c7490faace37f69,gxzaa5g1mb,Ex2A_Prolific,1,62,2024-02-28T02:25:19+00:00,60.631208896637,3,Stim_A.csv,Global.csv,Global,A,,,,,,0,FreeRecall,60,60,"Please type as many words as you can from the previous study list in any order. Please separate each word with a comma. Spelling will not count against you. This screen will automatically advance in one minute.",,RECALL_Test,60008,"temper, ire, anger, wrath, hate, hatred, upset, ",0,750,14463,0,0,,,1
657f0b244c7490faace37f69,gxzaa5g1mb,Ex2A_Prolific,1,63,2024-02-28T02:25:35+00:00,15.186800003052,3,Stim_A.csv,Global.csv,Global,A,,,,,,0,Instruct,User,3,"You will now be presented with a new study list. Click next when you are ready to begin.",,NEXT_LIST,14651,,,-1,-1,,,,,1
657f0b244c7490faace37f69,gxzaa5g1mb,Ex2A_Prolific,1,64,2024-02-28T02:25:37+00:00,2.9313690662384,3,Stim_A.csv,Global.csv,Global,A,garbage,,T1,,,38,Study,User,1.25,,Trash,T1,2437,,,-1,-1,,,,,1
657f0b244c7490faace37f69,gxzaa5g1mb,Ex2A_Prolific,1,65,2024-02-28T02:25:43+00:00,5.5464668273926,3,Stim_A.csv,Global.csv,Global,A,rubbish,,T2,,,39,Study,User,1.25,,Trash,T2,5004,,,-1,-1,,,,,0.792
657f0b244c7490faace37f69,gxzaa5g1mb,Ex2A_Prolific,1,66,2024-02-28T02:25:51+00:00,7.8143939971924,3,Stim_A.csv,Global.csv,Global,A,debris,,T3,,,40,Study,User,1.25,,Trash,T3,7243,,,-1,-1,,,,,0.143
657f0b244c7490faace37f69,gxzaa5g1mb,Ex2A_Prolific,1,67,2024-02-28T02:25:53+00:00,2.3093631267548,3,Stim_A.csv,Global.csv,Global,A,dump,,T4,,,41,Study,User,1.25,,Trash,T4,1829,,,-1,-1,,,,,1
657f0b244c7490faace37f69,gxzaa5g1mb,Ex2A_Prolific,1,68,2024-02-28T02:25:59+00:00,6.0779860019684,3,Stim_A.csv,Global.csv,Global,A,litter,,T5,,,42,Study,User,1.25,,Trash,T5,5516,,,-1,-1,,,,,0.407
657f0b244c7490faace37f69,gxzaa5g1mb,Ex2A_Prolific,1,69,2024-02-28T02:26:01+00:00,2.1941170692444,3,Stim_A.csv,Global.csv,Global,A,landfill,,T6,,,43,Study,User,1.25,,Trash,T6,1704,,,-1,-1,,,,,1
657f0b244c7490faace37f69,gxzaa5g1mb,Ex2A_Prolific,1,70,2024-02-28T02:26:04+00:00,2.1905839443207,3,Stim_A.csv,Global.csv,Global,A,junk,,T7,,,44,Study,User,1.25,,Trash,T7,1722,,,-1,-1,,,,,1
657f0b244c7490faace37f69,gxzaa5g1mb,Ex2A_Prolific,1,71,2024-02-28T02:26:10+00:00,5.934592962265,3,Stim_A.csv,Global.csv,Global,A,waste,,T8,,,45,Study,User,1.25,,Trash,T8,5374,,,-1,-1,,,,,0.192
657f0b244c7490faace37f69,gxzaa5g1mb,Ex2A_Prolific,1,72,2024-02-28T02:26:12+00:00,2.1637699604034,3,Stim_A.csv,Global.csv,Global,A,sewage,,T9,,,46,Study,User,1.25,,Trash,T9,1683,,,-1,-1,,,,,1
657f0b244c7490faace37f69,gxzaa5g1mb,Ex2A_Prolific,1,73,2024-02-28T02:26:14+00:00,2.0923669338226,3,Stim_A.csv,Global.csv,Global,A,pile,,T10,,,47,Study,User,1.25,,Trash,T10,1624,,,-1,-1,,,,,1
657f0b244c7490faace37f69,gxzaa5g1mb,Ex2A_Prolific,1,74,2024-02-28T02:26:21+00:00,7.286945104599,3,Stim_A.csv,Global.csv,Global,A,scraps,,T11,,,48,Study,User,1.25,,Trash,T11,6724,,,-1,-1,,,,,0.156
657f0b244c7490faace37f69,gxzaa5g1mb,Ex2A_Prolific,1,75,2024-02-28T02:26:23+00:00,2.1513040065765,3,Stim_A.csv,Global.csv,Global,A,refuse,,T12,,,49,Study,User,1.25,,Trash,T12,1685,,,-1,-1,,,,,1
657f0b244c7490faace37f69,gxzaa5g1mb,Ex2A_Prolific,1,76,2024-02-28T02:26:28+00:00,4.4610738754272,3,Stim_A.csv,Global.csv,Global,A,,,,,,0,Instruct,User,-,"You have completed this section and will now be asked to judge your ability to remember the list items you just studied. You will have four seconds to type your rating. Please click next to continue.",,Next_List1,3908,,,-1,-1,,,,,0.474
657f0b244c7490faace37f69,gxzaa5g1mb,Ex2A_Prolific,1,77,2024-02-28T02:26:33+00:00,5.5775010585785,3,Stim_A.csv,Global.csv,Global,A,,,,,,0,JOL_GLOBAL,5,5,"How likely are you to correctly recall each of the items you just studied?|Type your response on a scale from 0-100 and then press Enter (0 = WILL NOT REMEMBER; 100 = DEFINITELY WILL REMEMBER).",Related,JOL4,5014,,,1411,1595,,,,60,1
657f0b244c7490faace37f69,gxzaa5g1mb,Ex2A_Prolific,1,78,2024-02-28T02:26:39+00:00,5.3512010574341,3,Stim_A.csv,Global.csv,Global,A,,,,,,0,Instruct,User,4,"You have completed this section. Please click next.",,Instruct166,4814,,,-1,-1,,,,,1
657f0b244c7490faace37f69,gxzaa5g1mb,Ex2A_Prolific,1,79,2024-02-28T02:27:09+00:00,30.593105077744,3,Stim_A.csv,Global.csv,Global,A,,,,,,0,FreeRecall,30,30,"Please type as many words as you can that begin with the letter ""M"". The computer will automatically advance to the next screen in 30 seconds.",,FILLER,30027,"I don't remember there being any m words but maybe I'm wrong. ",0,5606,28043,0,0,,,1
657f0b244c7490faace37f69,gxzaa5g1mb,Ex2A_Prolific,1,80,2024-02-28T02:27:15+00:00,5.4335548877716,3,Stim_A.csv,Global.csv,Global,A,,,,,,0,Instruct,User,4,"You have completed this section. Please click next.",,Instruct166,4910,,,-1,-1,,,,,1
657f0b244c7490faace37f69,gxzaa5g1mb,Ex2A_Prolific,1,81,2024-02-28T02:27:21+00:00,6.6721670627594,3,Stim_A.csv,Global.csv,Global,A,,,,,,0,Instruct,User,4,"You will now complete a memory test for the words you just studied. Please type as many words from the previous list as you can seperated by a comma. Spelling will not count against you and you can recall the words in any order. This test will be timed for one minute, and the computer will automatically advance once time is up. Click next when you are ready to begin.",,Instruct1666,6133,,,-1,-1,,,,,1
657f0b244c7490faace37f69,gxzaa5g1mb,Ex2A_Prolific,1,82,2024-02-28T02:28:22+00:00,60.590094089508,3,Stim_A.csv,Global.csv,Global,A,,,,,,0,FreeRecall,60,60,"Please type as many words as you can from the previous study list in any order. Please separate each word with a comma. Spelling will not count against you. This screen will automatically advance in one minute.",,RECALL_Test,60025,"refuse, garbage, rubbish, trash, litter, debris, dump, junk",0,1116,21135,0,0,,,0.455
657f0b244c7490faace37f69,gxzaa5g1mb,Ex2A_Prolific,1,83,2024-02-28T02:28:35+00:00,12.936424970627,3,Stim_A.csv,Global.csv,Global,A,,,,,,0,Instruct,User,3,"You will now be presented with a new study list. Click next when you are ready to begin.",,NEXT_LIST,12377,,,-1,-1,,,,,0.22
657f0b244c7490faace37f69,gxzaa5g1mb,Ex2A_Prolific,1,84,2024-02-28T02:28:37+00:00,2.2201499938965,3,Stim_A.csv,Global.csv,Global,A,physician,,D1,,,50,Study,User,1.25,,Doctor,D1,1718,,,-1,-1,,,,,1
657f0b244c7490faace37f69,gxzaa5g1mb,Ex2A_Prolific,1,85,2024-02-28T02:28:39+00:00,2.2391648292542,3,Stim_A.csv,Global.csv,Global,A,nurse,,D2,,,51,Study,User,1.25,,Doctor,D2,1764,,,-1,-1,,,,,1
657f0b244c7490faace37f69,gxzaa5g1mb,Ex2A_Prolific,1,86,2024-02-28T02:28:42+00:00,2.2430701255798,3,Stim_A.csv,Global.csv,Global,A,stethoscope,,D3,,,52,Study,User,1.25,,Doctor,D3,1772,,,-1,-1,,,,,1
657f0b244c7490faace37f69,gxzaa5g1mb,Ex2A_Prolific,1,87,2024-02-28T02:28:44+00:00,2.3064348697662,3,Stim_A.csv,Global.csv,Global,A,surgeon,,D4,,,53,Study,User,1.25,,Doctor,D4,1808,,,-1,-1,,,,,1
657f0b244c7490faace37f69,gxzaa5g1mb,Ex2A_Prolific,1,88,2024-02-28T02:28:46+00:00,2.3372611999512,3,Stim_A.csv,Global.csv,Global,A,patient,,D5,,,54,Study,User,1.25,,Doctor,D5,1862,,,-1,-1,,,,,1
657f0b244c7490faace37f69,gxzaa5g1mb,Ex2A_Prolific,1,89,2024-02-28T02:28:48+00:00,2.2105360031128,3,Stim_A.csv,Global.csv,Global,A,clinic,,D6,,,55,Study,User,1.25,,Doctor,D6,1755,,,-1,-1,,,,,1
657f0b244c7490faace37f69,gxzaa5g1mb,Ex2A_Prolific,1,90,2024-02-28T02:28:52+00:00,4.0052969455719,3,Stim_A.csv,Global.csv,Global,A,dentist,,D7,,,56,Study,User,1.25,,Doctor,D7,3546,,,-1,-1,,,,,0.588
657f0b244c7490faace37f69,gxzaa5g1mb,Ex2A_Prolific,1,91,2024-02-28T02:28:55+00:00,2.2572338581085,3,Stim_A.csv,Global.csv,Global,A,medicine,,D8,,,57,Study,User,1.25,,Doctor,D8,1783,,,-1,-1,,,,,1
657f0b244c7490faace37f69,gxzaa5g1mb,Ex2A_Prolific,1,92,2024-02-28T02:28:57+00:00,2.6760129928589,3,Stim_A.csv,Global.csv,Global,A,lawyer,,D9,,,58,Study,User,1.25,,Doctor,D9,2223,,,-1,-1,,,,,1
657f0b244c7490faace37f69,gxzaa5g1mb,Ex2A_Prolific,1,93,2024-02-28T02:29:00+00:00,2.4174420833588,3,Stim_A.csv,Global.csv,Global,A,health,,D10,,,59,Study,User,1.25,,Doctor,D10,1929,,,-1,-1,,,,,1
657f0b244c7490faace37f69,gxzaa5g1mb,Ex2A_Prolific,1,94,2024-02-28T02:29:02+00:00,2.196702003479,3,Stim_A.csv,Global.csv,Global,A,sick,,D11,,,60,Study,User,1.25,,Doctor,D11,1710,,,-1,-1,,,,,1
657f0b244c7490faace37f69,gxzaa5g1mb,Ex2A_Prolific,1,95,2024-02-28T02:29:04+00:00,2.1729819774628,3,Stim_A.csv,Global.csv,Global,A,cure,,D12,,,61,Study,User,1.25,,Doctor,D12,1715,,,-1,-1,,,,,1
657f0b244c7490faace37f69,gxzaa5g1mb,Ex2A_Prolific,1,96,2024-02-28T02:29:06+00:00,1.8693330287933,3,Stim_A.csv,Global.csv,Global,A,,,,,,0,Instruct,User,-,"You have completed this section and will now be asked to judge your ability to remember the list items you just studied. You will have four seconds to type your rating. Please click next to continue.",,Next_List1,1410,,,-1,-1,,,,,1
657f0b244c7490faace37f69,gxzaa5g1mb,Ex2A_Prolific,1,97,2024-02-28T02:29:09+00:00,2.9795260429382,3,Stim_A.csv,Global.csv,Global,A,,,,,,0,JOL_GLOBAL,5,1.25,"How likely are you to correctly recall each of the items you just studied?|Type your response on a scale from 0-100 and then press Enter (0 = WILL NOT REMEMBER; 100 = DEFINITELY WILL REMEMBER).",Related,JOL5,2516,,,1168,1294,,,,50,1
657f0b244c7490faace37f69,gxzaa5g1mb,Ex2A_Prolific,1,98,2024-02-28T02:29:14+00:00,5.0843830108643,3,Stim_A.csv,Global.csv,Global,A,,,,,,0,Instruct,User,4,"You have completed this section. Please click next.",,Instruct166,4547,,,-1,-1,,,,,1
657f0b244c7490faace37f69,gxzaa5g1mb,Ex2A_Prolific,1,99,2024-02-28T02:29:45+00:00,30.585315942764,3,Stim_A.csv,Global.csv,Global,A,,,,,,0,FreeRecall,30,30,"Please type as many words as you can that begin with the letter ""S"". The computer will automatically advance to the next screen in 30 seconds.",,FILLER,30026,"surgeon, stethoscope, sickness",0,1776,18401,0,0,,,1
657f0b244c7490faace37f69,gxzaa5g1mb,Ex2A_Prolific,1,100,2024-02-28T02:29:47+00:00,2.3591380119324,3,Stim_A.csv,Global.csv,Global,A,,,,,,0,Instruct,User,-,"You have completed this section. Please click next.",,Instruct166,1882,,,-1,-1,,,,,1
657f0b244c7490faace37f69,gxzaa5g1mb,Ex2A_Prolific,1,101,2024-02-28T02:29:52+00:00,5.1580560207367,3,Stim_A.csv,Global.csv,Global,A,,,,,,0,Instruct,User,4,"You will now complete a memory test for the words you just studied. Please type as many words from the previous list as you can seperated by a comma. Spelling will not count against you and you can recall the words in any order. This test will be timed for one minute, and the computer will automatically advance once time is up. Click next when you are ready to begin.",,Instruct1666,4603,,,-1,-1,,,,,1
657f0b244c7490faace37f69,gxzaa5g1mb,Ex2A_Prolific,1,102,2024-02-28T02:30:53+00:00,60.580239057541,3,Stim_A.csv,Global.csv,Global,A,,,,,,0,FreeRecall,60,60,"Please type as many words as you can from the previous study list in any order. Please separate each word with a comma. Spelling will not count against you. This screen will automatically advance in one minute.",,RECALL_Test,60004,"surgeon, nurse, doctor, surgery, stethoscope, health, sickness, ill, well, patient",0,768,22943,0,0,,,1
657f0b244c7490faace37f69,gxzaa5g1mb,Ex2A_Prolific,1,103,2024-02-28T02:30:58+00:00,5.4137079715729,3,Stim_A.csv,Global.csv,Global,A,,,,,,0,Instruct,User,1.25,"You will now be presented with a new study list. Click next when you are ready to begin.",,NEXT_LIST,4874,,,-1,-1,,,,,1
657f0b244c7490faace37f69,gxzaa5g1mb,Ex2A_Prolific,1,104,2024-02-28T02:31:01+00:00,2.3491380214691,3,Stim_A.csv,Global.csv,Global,A,fast,,S1,,,62,Study,User,1.25,,Slow,S1,1859,,,-1,-1,,,,,1
657f0b244c7490faace37f69,gxzaa5g1mb,Ex2A_Prolific,1,105,2024-02-28T02:31:03+00:00,2.4790728092194,3,Stim_A.csv,Global.csv,Global,A,snail,,S2,,,63,Study,User,1.25,,Slow,S2,2000,,,-1,-1,,,,,1
657f0b244c7490faace37f69,gxzaa5g1mb,Ex2A_Prolific,1,106,2024-02-28T02:31:06+00:00,2.6949100494385,3,Stim_A.csv,Global.csv,Global,A,turtle,,S3,,,64,Study,User,1.25,,Slow,S3,2231,,,-1,-1,,,,,1
657f0b244c7490faace37f69,gxzaa5g1mb,Ex2A_Prolific,1,107,2024-02-28T02:31:08+00:00,2.2920551300049,3,Stim_A.csv,Global.csv,Global,A,sluggish,,S4,,,65,Study,User,1.25,,Slow,S4,1832,,,-1,-1,,,,,1
657f0b244c7490faace37f69,gxzaa5g1mb,Ex2A_Prolific,1,108,2024-02-28T02:31:10+00:00,2.4780688285828,3,Stim_A.csv,Global.csv,Global,A,quick,,S5,,,66,Study,User,1.25,,Slow,S5,2023,,,-1,-1,,,,,1
657f0b244c7490faace37f69,gxzaa5g1mb,Ex2A_Prolific,1,109,2024-02-28T02:31:13+00:00,2.3207330703735,3,Stim_A.csv,Global.csv,Global,A,molasses,,S6,,,67,Study,User,1.25,,Slow,S6,1853,,,-1,-1,,,,,1
657f0b244c7490faace37f69,gxzaa5g1mb,Ex2A_Prolific,1,110,2024-02-28T02:31:15+00:00,2.2039759159088,3,Stim_A.csv,Global.csv,Global,A,lethargic,,S7,,,68,Study,User,1.25,,Slow,S7,1738,,,-1,-1,,,,,1
657f0b244c7490faace37f69,gxzaa5g1mb,Ex2A_Prolific,1,111,2024-02-28T02:31:18+00:00,2.5877912044525,3,Stim_A.csv,Global.csv,Global,A,speed,,S8,,,69,Study,User,1.25,,Slow,S8,2112,,,-1,-1,,,,,1
657f0b244c7490faace37f69,gxzaa5g1mb,Ex2A_Prolific,1,112,2024-02-28T02:31:24+00:00,6.1692388057709,3,Stim_A.csv,Global.csv,Global,A,delay,,S9,,,70,Study,User,1.25,,Slow,S9,5637,,,-1,-1,,,,,0.905
657f0b244c7490faace37f69,gxzaa5g1mb,Ex2A_Prolific,1,113,2024-02-28T02:31:26+00:00,2.2350931167603,3,Stim_A.csv,Global.csv,Global,A,hesitant,,S10,,,71,Study,User,1.25,,Slow,S10,1756,,,-1,-1,,,,,1
657f0b244c7490faace37f69,gxzaa5g1mb,Ex2A_Prolific,1,114,2024-02-28T02:31:39+00:00,12.781004905701,3,Stim_A.csv,Global.csv,Global,A,cautious,,S11,,,72,Study,User,1.25,,Slow,S11,12238,,,-1,-1,,,,,0.186
657f0b244c7490faace37f69,gxzaa5g1mb,Ex2A_Prolific,1,115,2024-02-28T02:31:41+00:00,2.2674250602722,3,Stim_A.csv,Global.csv,Global,A,traffic,,S12,,,73,Study,User,1.25,,Slow,S12,1789,,,-1,-1,,,,,1
657f0b244c7490faace37f69,gxzaa5g1mb,Ex2A_Prolific,1,116,2024-02-28T02:31:46+00:00,5.4473581314087,3,Stim_A.csv,Global.csv,Global,A,,,,,,0,Instruct,User,-,"You have completed this section and will now be asked to judge your ability to remember the list items you just studied. You will have four seconds to type your rating. Please click next to continue.",,Next_List1,4897,,,-1,-1,,,,,0.417
657f0b244c7490faace37f69,gxzaa5g1mb,Ex2A_Prolific,1,117,2024-02-28T02:31:52+00:00,5.5766267776489,3,Stim_A.csv,Global.csv,Global,A,,,,,,0,JOL_GLOBAL,5,5,"How likely are you to correctly recall each of the items you just studied?|Type your response on a scale from 0-100 and then press Enter (0 = WILL NOT REMEMBER; 100 = DEFINITELY WILL REMEMBER).",Related,JOL6,5015,,,868,1277,,,,20,1
657f0b244c7490faace37f69,gxzaa5g1mb,Ex2A_Prolific,1,118,2024-02-28T02:31:57+00:00,5.071084022522,3,Stim_A.csv,Global.csv,Global,A,,,,,,0,Instruct,User,4,"You have completed this section. Please click next.",,Instruct166,4538,,,-1,-1,,,,,1
657f0b244c7490faace37f69,gxzaa5g1mb,Ex2A_Prolific,1,119,2024-02-28T02:32:28+00:00,30.565124034882,3,Stim_A.csv,Global.csv,Global,A,,,,,,0,FreeRecall,30,30,"Please type as many words as you can that begin with the letter ""M"". The computer will automatically advance to the next screen in 30 seconds.",,FILLER,30006,"Sorry, I cannot remember any m words. ",0,8599,15783,0,0,,,1
657f0b244c7490faace37f69,gxzaa5g1mb,Ex2A_Prolific,1,120,2024-02-28T02:32:40+00:00,12.07853102684,3,Stim_A.csv,Global.csv,Global,A,,,,,,0,Instruct,User,-,"You have completed this section. Please click next.",,Instruct166,11541,,,-1,-1,,,,,1
657f0b244c7490faace37f69,gxzaa5g1mb,Ex2A_Prolific,1,121,2024-02-28T02:32:54+00:00,14.478996992111,3,Stim_A.csv,Global.csv,Global,A,,,,,,0,Instruct,User,4,"You will now complete a memory test for the words you just studied. Please type as many words from the previous list as you can seperated by a comma. Spelling will not count against you and you can recall the words in any order. This test will be timed for one minute, and the computer will automatically advance once time is up. Click next when you are ready to begin.",,Instruct1666,13945,,,-1,-1,,,,,1
657f0b244c7490faace37f69,gxzaa5g1mb,Ex2A_Prolific,1,122,2024-02-28T02:33:55+00:00,60.597453117371,3,Stim_A.csv,Global.csv,Global,A,,,,,,0,FreeRecall,60,60,"Please type as many words as you can from the previous study list in any order. Please separate each word with a comma. Spelling will not count against you. This screen will automatically advance in one minute.",,RECALL_Test,60022,"Hesitant, fast, cautious, slow, sluggish, snail, turtle, traffic, quick ",0,1603,24122,0,0,,,1
657f0b244c7490faace37f69,gxzaa5g1mb,Ex2A_Prolific,1,123,2024-02-28T02:34:03+00:00,8.5500218868256,3,Stim_A.csv,Global.csv,Global,A,,,,,,0,Instruct,User,3,"You will now be presented with a new study list. Click next when you are ready to begin.",,NEXT_LIST,8006,,,-1,-1,,,,,1
657f0b244c7490faace37f69,gxzaa5g1mb,Ex2A_Prolific,1,124,2024-02-28T02:34:08+00:00,5.019345998764,3,Stim_A.csv,Global.csv,Global,A,mississippi,,RR1,,,74,Study,User,1.25,,River,RR1,4460,,,-1,-1,,,,,0.455
657f0b244c7490faace37f69,gxzaa5g1mb,Ex2A_Prolific,1,125,2024-02-28T02:34:11+00:00,2.2153189182281,3,Stim_A.csv,Global.csv,Global,A,creek,,RR2,,,75,Study,User,1.25,,River,RR2,1726,,,-1,-1,,,,,1
657f0b244c7490faace37f69,gxzaa5g1mb,Ex2A_Prolific,1,126,2024-02-28T02:34:18+00:00,7.5488021373749,3,Stim_A.csv,Global.csv,Global,A,stream,,RR3,,,76,Study,User,1.25,,River,RR3,7004,,,-1,-1,,,,,0.206
657f0b244c7490faace37f69,gxzaa5g1mb,Ex2A_Prolific,1,127,2024-02-28T02:34:20+00:00,2.2222120761871,3,Stim_A.csv,Global.csv,Global,A,flow,,RR4,,,77,Study,User,1.25,,River,RR4,1735,,,-1,-1,,,,,1
657f0b244c7490faace37f69,gxzaa5g1mb,Ex2A_Prolific,1,128,2024-02-28T02:34:23+00:00,2.1862030029297,3,Stim_A.csv,Global.csv,Global,A,bridge,,RR5,,,78,Study,User,1.25,,River,RR5,1706,,,-1,-1,,,,,1
657f0b244c7490faace37f69,gxzaa5g1mb,Ex2A_Prolific,1,129,2024-02-28T02:34:25+00:00,2.3774328231812,3,Stim_A.csv,Global.csv,Global,A,brook,,RR6,,,79,Study,User,1.25,,River,RR6,1907,,,-1,-1,,,,,1
657f0b244c7490faace37f69,gxzaa5g1mb,Ex2A_Prolific,1,130,2024-02-28T02:34:34+00:00,8.9100050926208,3,Stim_A.csv,Global.csv,Global,A,lake,,RR7,,,80,Study,User,1.25,,River,RR7,8358,,,-1,-1,,,,,0.175
657f0b244c7490faace37f69,gxzaa5g1mb,Ex2A_Prolific,1,131,2024-02-28T02:34:36+00:00,2.1431338787079,3,Stim_A.csv,Global.csv,Global,A,barge,,RR8,,,81,Study,User,1.25,,River,RR8,1666,,,-1,-1,,,,,1
657f0b244c7490faace37f69,gxzaa5g1mb,Ex2A_Prolific,1,132,2024-02-28T02:34:38+00:00,2.2687261104584,3,Stim_A.csv,Global.csv,Global,A,water,,RR9,,,82,Study,User,1.25,,River,RR9,1788,,,-1,-1,,,,,1
657f0b244c7490faace37f69,gxzaa5g1mb,Ex2A_Prolific,1,133,2024-02-28T02:34:47+00:00,8.8985319137573,3,Stim_A.csv,Global.csv,Global,A,boat,,RR10,,,83,Study,User,1.25,,River,RR10,8354,,,-1,-1,,,,,0.4
657f0b244c7490faace37f69,gxzaa5g1mb,Ex2A_Prolific,1,134,2024-02-28T02:34:50+00:00,2.5065340995789,3,Stim_A.csv,Global.csv,Global,A,tide,,RR11,,,84,Study,User,1.25,,River,RR11,2040,,,-1,-1,,,,,1
657f0b244c7490faace37f69,gxzaa5g1mb,Ex2A_Prolific,1,135,2024-02-28T02:34:52+00:00,2.1648769378662,3,Stim_A.csv,Global.csv,Global,A,swim,,RR12,,,85,Study,User,1.25,,River,RR12,1694,,,-1,-1,,,,,1
657f0b244c7490faace37f69,gxzaa5g1mb,Ex2A_Prolific,1,136,2024-02-28T02:34:59+00:00,6.864490032196,3,Stim_A.csv,Global.csv,Global,A,,,,,,0,Instruct,User,1.25,"You have completed this section and will now be asked to judge your ability to remember the list items you just studied. You will have four seconds to type your rating. Please click next to continue.",,Next_List1,6327,,,-1,-1,,,,,0.516
657f0b244c7490faace37f69,gxzaa5g1mb,Ex2A_Prolific,1,137,2024-02-28T02:35:04+00:00,5.5846838951111,3,Stim_A.csv,Global.csv,Global,A,,,,,,0,JOL_GLOBAL,5,5,"How likely are you to correctly recall each of the items you just studied?|Type your response on a scale from 0-100 and then press Enter (0 = WILL NOT REMEMBER; 100 = DEFINITELY WILL REMEMBER).",Related,JOL7,5034,,,1032,1534,,,,70,1
657f0b244c7490faace37f69,gxzaa5g1mb,Ex2A_Prolific,1,138,2024-02-28T02:35:06+00:00,2.0088241100311,3,Stim_A.csv,Global.csv,Global,A,,,,,,0,Instruct,User,-,"You have completed this section. Please click next.",,Instruct166,1529,,,-1,-1,,,,,1
657f0b244c7490faace37f69,gxzaa5g1mb,Ex2A_Prolific,1,139,2024-02-28T02:35:37+00:00,30.592920064926,3,Stim_A.csv,Global.csv,Global,A,,,,,,0,FreeRecall,30,1.25,"Please type as many words as you can that begin with the letter ""N"". The computer will automatically advance to the next screen in 30 seconds.",,FILLER,30023,"I can't remember any words starting with n",0,14117,22621,0,0,,,1
657f0b244c7490faace37f69,gxzaa5g1mb,Ex2A_Prolific,1,140,2024-02-28T02:35:40+00:00,2.9901559352875,3,Stim_A.csv,Global.csv,Global,A,,,,,,0,Instruct,User,1.25,"You have completed this section. Please click next.",,Instruct166,2514,,,-1,-1,,,,,1
657f0b244c7490faace37f69,gxzaa5g1mb,Ex2A_Prolific,1,141,2024-02-28T02:35:46+00:00,5.8147749900818,3,Stim_A.csv,Global.csv,Global,A,,,,,,0,Instruct,User,1.25,"You will now complete a memory test for the words you just studied. Please type as many words from the previous list as you can seperated by a comma. Spelling will not count against you and you can recall the words in any order. This test will be timed for one minute, and the computer will automatically advance once time is up. Click next when you are ready to begin.",,Instruct1666,5244,,,-1,-1,,,,,1
657f0b244c7490faace37f69,gxzaa5g1mb,Ex2A_Prolific,1,142,2024-02-28T02:36:46+00:00,60.570298910141,3,Stim_A.csv,Global.csv,Global,A,,,,,,0,FreeRecall,60,60,"Please type as many words as you can from the previous study list in any order. Please separate each word with a comma. Spelling will not count against you. This screen will automatically advance in one minute.",,RECALL_Test,60009,"Mississippi, bridge, brook, barge, boat, stream, swim ",0,1762,22067,0,0,,,1
657f0b244c7490faace37f69,gxzaa5g1mb,Ex2A_Prolific,1,143,2024-02-28T02:36:53+00:00,6.5619900226593,3,Stim_A.csv,Global.csv,Global,A,,,,,,0,Instruct,User,3,"You will now be presented with a new study list. Click next when you are ready to begin.",,NEXT_LIST,6028,,,-1,-1,,,,,1
657f0b244c7490faace37f69,gxzaa5g1mb,Ex2A_Prolific,1,144,2024-02-28T02:36:58+00:00,4.9309589862823,3,Stim_A.csv,Global.csv,Global,A,rye,,B1,,,86,Study,User,1.25,,Bread,B1,4380,,,-1,-1,,,,,0.667
657f0b244c7490faace37f69,gxzaa5g1mb,Ex2A_Prolific,1,145,2024-02-28T02:37:00+00:00,2.2376480102539,3,Stim_A.csv,Global.csv,Global,A,loaf,,B2,,,87,Study,User,1.25,,Bread,B2,1765,,,-1,-1,,,,,1
657f0b244c7490faace37f69,gxzaa5g1mb,Ex2A_Prolific,1,146,2024-02-28T02:37:08+00:00,7.7896640300751,3,Stim_A.csv,Global.csv,Global,A,butter,,B3,,,88,Study,User,1.25,,Bread,B3,7245,,,-1,-1,,,,,0.229
657f0b244c7490faace37f69,gxzaa5g1mb,Ex2A_Prolific,1,147,2024-02-28T02:37:10+00:00,2.1591279506683,3,Stim_A.csv,Global.csv,Global,A,toast,,B4,,,89,Study,User,1.25,,Bread,B4,1678,,,-1,-1,,,,,1
657f0b244c7490faace37f69,gxzaa5g1mb,Ex2A_Prolific,1,148,2024-02-28T02:37:12+00:00,1.7594780921936,3,Stim_A.csv,Global.csv,Global,A,dough,,B5,,,90,Study,User,1.25,,Bread,B5,1291,,,-1,-1,,,,,1
657f0b244c7490faace37f69,gxzaa5g1mb,Ex2A_Prolific,1,149,2024-02-28T02:37:18+00:00,6.7769639492035,3,Stim_A.csv,Global.csv,Global,A,crust,,B6,,,91,Study,User,1.25,,Bread,B6,6223,,,-1,-1,,,,,0.2
657f0b244c7490faace37f69,gxzaa5g1mb,Ex2A_Prolific,1,150,2024-02-28T02:37:21+00:00,2.1385519504547,3,Stim_A.csv,Global.csv,Global,A,flour,,B7,,,92,Study,User,1.25,,Bread,B7,1665,,,-1,-1,,,,,1
657f0b244c7490faace37f69,gxzaa5g1mb,Ex2A_Prolific,1,151,2024-02-28T02:37:23+00:00,2.2243850231171,3,Stim_A.csv,Global.csv,Global,A,sandwich,,B8,,,93,Study,User,1.25,,Bread,B8,1753,,,-1,-1,,,,,1
657f0b244c7490faace37f69,gxzaa5g1mb,Ex2A_Prolific,1,152,2024-02-28T02:37:29+00:00,6.0503630638123,3,Stim_A.csv,Global.csv,Global,A,jam,,B9,,,94,Study,User,1.25,,Bread,B9,5495,,,-1,-1,,,,,0.259
657f0b244c7490faace37f69,gxzaa5g1mb,Ex2A_Prolific,1,153,2024-02-28T02:37:31+00:00,2.1996800899506,3,Stim_A.csv,Global.csv,Global,A,jelly,,B10,,,95,Study,User,1.25,,Bread,B10,1732,,,-1,-1,,,,,1
657f0b244c7490faace37f69,gxzaa5g1mb,Ex2A_Prolific,1,154,2024-02-28T02:37:33+00:00,1.797600030899,3,Stim_A.csv,Global.csv,Global,A,slice,,B11,,,96,Study,User,1.25,,Bread,B11,1328,,,-1,-1,,,,,1
657f0b244c7490faace37f69,gxzaa5g1mb,Ex2A_Prolific,1,155,2024-02-28T02:37:39+00:00,6.5748789310455,3,Stim_A.csv,Global.csv,Global,A,milk,,B12,,,97,Study,User,1.25,,Bread,B12,6031,,,-1,-1,,,,,0.414
657f0b244c7490faace37f69,gxzaa5g1mb,Ex2A_Prolific,1,156,2024-02-28T02:37:41+00:00,1.7877049446106,3,Stim_A.csv,Global.csv,Global,A,,,,,,0,Instruct,User,-,"You have completed this section and will now be asked to judge your ability to remember the list items you just studied. You will have four seconds to type your rating. Please click next to continue.",,Next_List1,1314,,,-1,-1,,,,,1
657f0b244c7490faace37f69,gxzaa5g1mb,Ex2A_Prolific,1,157,2024-02-28T02:37:47+00:00,5.5522730350494,3,Stim_A.csv,Global.csv,Global,A,,,,,,0,JOL_GLOBAL,5,5,"How likely are you to correctly recall each of the items you just studied?|Type your response on a scale from 0-100 and then press Enter (0 = WILL NOT REMEMBER; 100 = DEFINITELY WILL REMEMBER).",Related,JOL8,5013,,,2875,3039,,,,50,1
657f0b244c7490faace37f69,gxzaa5g1mb,Ex2A_Prolific,1,158,2024-02-28T02:37:52+00:00,5.1034269332886,3,Stim_A.csv,Global.csv,Global,A,,,,,,0,Instruct,User,4,"You have completed this section. Please click next.",,Instruct166,4563,,,-1,-1,,,,,1
657f0b244c7490faace37f69,gxzaa5g1mb,Ex2A_Prolific,1,159,2024-02-28T02:38:22+00:00,30.580851078033,3,Stim_A.csv,Global.csv,Global,A,,,,,,0,FreeRecall,30,30,"Please type as many words as you can that begin with the letter ""C"". The computer will automatically advance to the next screen in 30 seconds.",,FILLER,30016,"crust, crispy",0,5995,18074,0,0,,,1
657f0b244c7490faace37f69,gxzaa5g1mb,Ex2A_Prolific,1,160,2024-02-28T02:38:31+00:00,8.3188560009003,3,Stim_A.csv,Global.csv,Global,A,,,,,,0,Instruct,User,4,"You have completed this section. Please click next.",,Instruct166,7763,,,-1,-1,,,,,1
657f0b244c7490faace37f69,gxzaa5g1mb,Ex2A_Prolific,1,161,2024-02-28T02:38:36+00:00,5.1114358901978,3,Stim_A.csv,Global.csv,Global,A,,,,,,0,Instruct,User,4,"You will now complete a memory test for the words you just studied. Please type as many words from the previous list as you can seperated by a comma. Spelling will not count against you and you can recall the words in any order. This test will be timed for one minute, and the computer will automatically advance once time is up. Click next when you are ready to begin.",,Instruct1666,4547,,,-1,-1,,,,,1
657f0b244c7490faace37f69,gxzaa5g1mb,Ex2A_Prolific,1,162,2024-02-28T02:39:37+00:00,60.57159614563,3,Stim_A.csv,Global.csv,Global,A,,,,,,0,FreeRecall,60,60,"Please type as many words as you can from the previous study list in any order. Please separate each word with a comma. Spelling will not count against you. This screen will automatically advance in one minute.",,RECALL_Test,60002,"dough, crust, bake, flour, sandwich, rye, butter, loaf, milk",0,757,21705,0,0,,,1
657f0b244c7490faace37f69,gxzaa5g1mb,Ex2A_Prolific,1,163,2024-02-28T02:39:54+00:00,17.473564863205,3,Stim_A.csv,Global.csv,Global,A,,,,,,0,Instruct,User,3,"You will now be presented with a new study list. Click next when you are ready to begin.",,NEXT_LIST,16930,,,-1,-1,,,,,1
657f0b244c7490faace37f69,gxzaa5g1mb,Ex2A_Prolific,1,164,2024-02-28T02:39:56+00:00,2.3670489788055,3,Stim_A.csv,Global.csv,Global,A,banner,,F1,,,98,Study,User,1.25,,Flag,F1,1888,,,-1,-1,,,,,1
657f0b244c7490faace37f69,gxzaa5g1mb,Ex2A_Prolific,1,165,2024-02-28T02:39:59+00:00,2.1762421131134,3,Stim_A.csv,Global.csv,Global,A,checkered,,F2,,,99,Study,User,1.25,,Flag,F2,1708,,,-1,-1,,,,,1
657f0b244c7490faace37f69,gxzaa5g1mb,Ex2A_Prolific,1,166,2024-02-28T02:40:01+00:00,2.3627769947052,3,Stim_A.csv,Global.csv,Global,A,american,,F3,,,100,Study,User,1.25,,Flag,F3,1886,,,-1,-1,,,,,1
657f0b244c7490faace37f69,gxzaa5g1mb,Ex2A_Prolific,1,167,2024-02-28T02:40:03+00:00,2.1711349487305,3,Stim_A.csv,Global.csv,Global,A,stripes,,F4,,,101,Study,User,1.25,,Flag,F4,1694,,,-1,-1,,,,,1
657f0b244c7490faace37f69,gxzaa5g1mb,Ex2A_Prolific,1,168,2024-02-28T02:40:05+00:00,2.1908619403839,3,Stim_A.csv,Global.csv,Global,A,pole,,F5,,,102,Study,User,1.25,,Flag,F5,1706,,,-1,-1,,,,,1
657f0b244c7490faace37f69,gxzaa5g1mb,Ex2A_Prolific,1,169,2024-02-28T02:40:07+00:00,2.14297914505,3,Stim_A.csv,Global.csv,Global,A,anthem,,F6,,,103,Study,User,1.25,,Flag,F6,1673,,,-1,-1,,,,,1
657f0b244c7490faace37f69,gxzaa5g1mb,Ex2A_Prolific,1,170,2024-02-28T02:40:10+00:00,2.1392879486084,3,Stim_A.csv,Global.csv,Global,A,emblem,,F7,,,104,Study,User,1.25,,Flag,F7,1677,,,-1,-1,,,,,1
657f0b244c7490faace37f69,gxzaa5g1mb,Ex2A_Prolific,1,171,2024-02-28T02:40:12+00:00,2.077467918396,3,Stim_A.csv,Global.csv,Global,A,national,,F8,,,105,Study,User,1.25,,Flag,F8,1604,,,-1,-1,,,,,1
657f0b244c7490faace37f69,gxzaa5g1mb,Ex2A_Prolific,1,172,2024-02-28T02:40:14+00:00,2.1614441871643,3,Stim_A.csv,Global.csv,Global,A,freedom,,F9,,,106,Study,User,1.25,,Flag,F9,1692,,,-1,-1,,,,,1
657f0b244c7490faace37f69,gxzaa5g1mb,Ex2A_Prolific,1,173,2024-02-28T02:40:16+00:00,2.1891629695892,3,Stim_A.csv,Global.csv,Global,A,symbol,,F10,,,107,Study,User,1.25,,Flag,F10,1717,,,-1,-1,,,,,1
657f0b244c7490faace37f69,gxzaa5g1mb,Ex2A_Prolific,1,174,2024-02-28T02:40:18+00:00,2.168380022049,3,Stim_A.csv,Global.csv,Global,A,wave,,F11,,,108,Study,User,1.25,,Flag,F11,1702,,,-1,-1,,,,,1
657f0b244c7490faace37f69,gxzaa5g1mb,Ex2A_Prolific,1,175,2024-02-28T02:40:20+00:00,2.235456943512,3,Stim_A.csv,Global.csv,Global,A,stars,,F12,,,109,Study,User,1.25,,Flag,F12,1772,,,-1,-1,,,,,1
657f0b244c7490faace37f69,gxzaa5g1mb,Ex2A_Prolific,1,176,2024-02-28T02:40:22+00:00,2.0987820625305,3,Stim_A.csv,Global.csv,Global,A,,,,,,0,Instruct,User,-,"You have completed this section and will now be asked to judge your ability to remember the list items you just studied. You will have four seconds to type your rating. Please click next to continue.",,Next_List1,1643,,,-1,-1,,,,,1
657f0b244c7490faace37f69,gxzaa5g1mb,Ex2A_Prolific,1,177,2024-02-28T02:40:28+00:00,5.579108953476,3,Stim_A.csv,Global.csv,Global,A,,,,,,0,JOL_GLOBAL,5,5,"How likely are you to correctly recall each of the items you just studied?|Type your response on a scale from 0-100 and then press Enter (0 = WILL NOT REMEMBER; 100 = DEFINITELY WILL REMEMBER).",Related,JOL9,5013,,,1058,1717,,,,40,1
657f0b244c7490faace37f69,gxzaa5g1mb,Ex2A_Prolific,1,178,2024-02-28T02:40:30+00:00,2.2198359966278,3,Stim_A.csv,Global.csv,Global,A,,,,,,0,Instruct,User,1.25,"You have completed this section. Please click next.",,Instruct166,1761,,,-1,-1,,,,,1
657f0b244c7490faace37f69,gxzaa5g1mb,Ex2A_Prolific,1,179,2024-02-28T02:41:01+00:00,30.572527885437,3,Stim_A.csv,Global.csv,Global,A,,,,,,0,FreeRecall,30,30,"Please type as many words as you can that begin with the letter ""K"". The computer will automatically advance to the next screen in 30 seconds.",,FILLER,30018,"I don't remember any k words",0,2203,15304,0,0,,,1
657f0b244c7490faace37f69,gxzaa5g1mb,Ex2A_Prolific,1,180,2024-02-28T02:41:07+00:00,5.845057964325,3,Stim_A.csv,Global.csv,Global,A,,,,,,0,Instruct,User,-,"You have completed this section. Please click next.",,Instruct166,5298,,,-1,-1,,,,,1
657f0b244c7490faace37f69,gxzaa5g1mb,Ex2A_Prolific,1,181,2024-02-28T02:41:12+00:00,5.8105070590973,3,Stim_A.csv,Global.csv,Global,A,,,,,,0,Instruct,User,4,"You will now complete a memory test for the words you just studied. Please type as many words from the previous list as you can seperated by a comma. Spelling will not count against you and you can recall the words in any order. This test will be timed for one minute, and the computer will automatically advance once time is up. Click next when you are ready to begin.",,Instruct1666,5229,,,-1,-1,,,,,1
657f0b244c7490faace37f69,gxzaa5g1mb,Ex2A_Prolific,1,182,2024-02-28T02:42:13+00:00,60.589439153671,3,Stim_A.csv,Global.csv,Global,A,,,,,,0,FreeRecall,60,60,"Please type as many words as you can from the previous study list in any order. Please separate each word with a comma. Spelling will not count against you. This screen will automatically advance in one minute.",,RECALL_Test,60026,"flag, emblem, pole, American, patriot, symbol, eagle, stripes, stars, banner",0,1491,20373,0,0,,,1
657f0b244c7490faace37f69,gxzaa5g1mb,Ex2A_Prolific,1,183,2024-02-28T02:42:25+00:00,11.990025997162,3,Stim_A.csv,Global.csv,Global,A,,,,,,0,Instruct,User,3,"You will now be presented with a new study list. Click next when you are ready to begin.",,NEXT_LIST,11442,,,-1,-1,,,,,1
657f0b244c7490faace37f69,gxzaa5g1mb,Ex2A_Prolific,1,184,2024-02-28T02:42:30+00:00,4.8524098396301,3,Stim_A.csv,Global.csv,Global,A,blouse,,SS1,,,110,Study,User,1.25,,Shirt,SS1,4306,,,-1,-1,,,,,1
657f0b244c7490faace37f69,gxzaa5g1mb,Ex2A_Prolific,1,185,2024-02-28T02:42:32+00:00,2.2801539897919,3,Stim_A.csv,Global.csv,Global,A,sleeves,,SS2,,,111,Study,User,1.25,,Shirt,SS2,1790,,,-1,-1,,,,,1
657f0b244c7490faace37f69,gxzaa5g1mb,Ex2A_Prolific,1,186,2024-02-28T02:42:34+00:00,2.2031819820404,3,Stim_A.csv,Global.csv,Global,A,collar,,SS3,,,112,Study,User,1.25,,Shirt,SS3,1728,,,-1,-1,,,,,1
657f0b244c7490faace37f69,gxzaa5g1mb,Ex2A_Prolific,1,187,2024-02-28T02:42:37+00:00,2.1667711734772,3,Stim_A.csv,Global.csv,Global,A,shorts,,SS4,,,113,Study,User,1.25,,Shirt,SS4,1713,,,-1,-1,,,,,1
657f0b244c7490faace37f69,gxzaa5g1mb,Ex2A_Prolific,1,188,2024-02-28T02:42:39+00:00,2.3320188522339,3,Stim_A.csv,Global.csv,Global,A,button,,SS5,,,114,Study,User,1.25,,Shirt,SS5,1872,,,-1,-1,,,,,1
657f0b244c7490faace37f69,gxzaa5g1mb,Ex2A_Prolific,1,189,2024-02-28T02:42:41+00:00,2.3865671157837,3,Stim_A.csv,Global.csv,Global,A,pants,,SS6,,,115,Study,User,1.25,,Shirt,SS6,1924,,,-1,-1,,,,,1
657f0b244c7490faace37f69,gxzaa5g1mb,Ex2A_Prolific,1,190,2024-02-28T02:42:43+00:00,2.1611859798431,3,Stim_A.csv,Global.csv,Global,A,polo,,SS7,,,116,Study,User,1.25,,Shirt,SS7,1692,,,-1,-1,,,,,1
657f0b244c7490faace37f69,gxzaa5g1mb,Ex2A_Prolific,1,191,2024-02-28T02:42:47+00:00,3.1195819377899,3,Stim_A.csv,Global.csv,Global,A,jersey,,SS8,,,117,Study,User,1.25,,Shirt,SS8,2631,,,-1,-1,,,,,1
657f0b244c7490faace37f69,gxzaa5g1mb,Ex2A_Prolific,1,192,2024-02-28T02:43:00+00:00,13.472150087357,3,Stim_A.csv,Global.csv,Global,A,vest,,SS9,,,118,Study,User,1.25,,Shirt,SS9,12939,,,-1,-1,,,,,0.129
657f0b244c7490faace37f69,gxzaa5g1mb,Ex2A_Prolific,1,193,2024-02-28T02:43:02+00:00,2.1697828769684,3,Stim_A.csv,Global.csv,Global,A,cuffs,,SS10,,,119,Study,User,1.25,,Shirt,SS10,1689,,,-1,-1,,,,,1
657f0b244c7490faace37f69,gxzaa5g1mb,Ex2A_Prolific,1,194,2024-02-28T02:43:08+00:00,6.028352022171,3,Stim_A.csv,Global.csv,Global,A,tie,,SS11,,,120,Study,User,1.25,,Shirt,SS11,5479,,,-1,-1,,,,,0.185
657f0b244c7490faace37f69,gxzaa5g1mb,Ex2A_Prolific,1,195,2024-02-28T02:43:10+00:00,2.1839210987091,3,Stim_A.csv,Global.csv,Global,A,pocket,,SS12,,,121,Study,User,1.25,,Shirt,SS12,1705,,,-1,-1,,,,,1
657f0b244c7490faace37f69,gxzaa5g1mb,Ex2A_Prolific,1,196,2024-02-28T02:43:17+00:00,6.7247309684753,3,Stim_A.csv,Global.csv,Global,A,,,,,,0,Instruct,User,-,"You have completed this section and will now be asked to judge your ability to remember the list items you just studied. You will have four seconds to type your rating. Please click next to continue.",,Next_List1,6174,,,-1,-1,,,,,0.533
657f0b244c7490faace37f69,gxzaa5g1mb,Ex2A_Prolific,1,197,2024-02-28T02:43:23+00:00,5.574716091156,3,Stim_A.csv,Global.csv,Global,A,,,,,,0,JOL_GLOBAL,5,5,"How likely are you to correctly recall each of the items you just studied?|Type your response on a scale from 0-100 and then press Enter (0 = WILL NOT REMEMBER; 100 = DEFINITELY WILL REMEMBER).",Related,JOL10,5015,,,711,1316,,,,20,1
657f0b244c7490faace37f69,gxzaa5g1mb,Ex2A_Prolific,1,198,2024-02-28T02:43:28+00:00,5.1955299377441,3,Stim_A.csv,Global.csv,Global,A,,,,,,0,Instruct,User,4,"You have completed this section. Please click next.",,Instruct166,4634,,,-1,-1,,,,,1
657f0b244c7490faace37f69,gxzaa5g1mb,Ex2A_Prolific,1,199,2024-02-28T02:43:58+00:00,30.578448057175,3,Stim_A.csv,Global.csv,Global,A,,,,,,0,FreeRecall,30,30,"Please type as many words as you can that begin with the letter ""W"". The computer will automatically advance to the next screen in 30 seconds.",,FILLER,30025,"Waist, wear",0,3621,10236,0,0,,,1
657f0b244c7490faace37f69,gxzaa5g1mb,Ex2A_Prolific,1,200,2024-02-28T02:44:08+00:00,9.8765048980713,3,Stim_A.csv,Global.csv,Global,A,,,,,,0,Instruct,User,4,"You have completed this section. Please click next.",,Instruct166,9328,,,-1,-1,,,,,1
657f0b244c7490faace37f69,gxzaa5g1mb,Ex2A_Prolific,1,201,2024-02-28T02:44:14+00:00,5.3189558982849,3,Stim_A.csv,Global.csv,Global,A,,,,,,0,Instruct,User,4,"You will now complete a memory test for the words you just studied. Please type as many words from the previous list as you can seperated by a comma. Spelling will not count against you and you can recall the words in any order. This test will be timed for one minute, and the computer will automatically advance once time is up. Click next when you are ready to begin.",,Instruct1666,4782,,,-1,-1,,,,,1
657f0b244c7490faace37f69,gxzaa5g1mb,Ex2A_Prolific,1,202,2024-02-28T02:45:14+00:00,60.588049173355,3,Stim_A.csv,Global.csv,Global,A,,,,,,0,FreeRecall,60,1.25,"Please type as many words as you can from the previous study list in any order. Please separate each word with a comma. Spelling will not count against you. This screen will automatically advance in one minute.",,RECALL_Test,60018,"vest, jersey, polo, cuffs, collar, wear, tie, pockets, pants, shorts",0,709,25501,0,0,,,1
657f0b244c7490faace37f69,gxzaa5g1mb,Ex2A_Prolific,1,203,2024-02-28T02:45:25+00:00,10.614998817444,3,Stim_A.csv,Global.csv,Global,A,,,,,,0,Instruct,User,-,"You have completed this section. Please click next.",,Instruct7,10070,,,-1,-1,,,,,1
657f0b244c7490faace37f69,gxzaa5g1mb,Ex2A_Prolific,1,204,2024-02-28T02:45:28+00:00,3.3603930473328,3,Stim_A.csv,Global.csv,Global,A,,,,,,0,Instruct,User,-,"The following screen will ask you a few questions abour your experience today. You must complete these questions to receive credit.",,Instruct8,2875,,,-1,-1,,,,,1
