Username,ID,ExperimentName,Session,Trial,Date,TimeDif,"Condition Number","Stimuli File","Order File","Condition Description","Condition Notes",Stimuli*Cue,Stimuli*Answer,Stimuli*Shuffle,"Stimuli*Stimuli Notes",Stimuli*Value,Procedure*Item,"Procedure*Trial Type","Procedure*Max Time","Procedure*Min Time",Procedure*Text,"Procedure*Procedure Notes",Procedure*Shuffle,Response*RT,Response*Response,Response*Accuracy,Response*RTfirst,Response*RTlast,Response*strictAcc,Response*lenientAcc,Response*focus,Response*JOL,Response*Focus
648868c355e5b891758c5767,wkevrdugd5,Ex2A_Prolific,1,1,2024-02-28T00:41:55+00:00,8.1102428436279,4,Stim_B.csv,Global.csv,Global,B,,,,,,0,Instruct,-,5,"In this section, you will be presented with a series of words. Please study each word carefully. Your memory will be tested!",Initial_Instruct,Instruct1,7970,,,-1,-1,,,,,1
648868c355e5b891758c5767,wkevrdugd5,Ex2A_Prolific,1,2,2024-02-28T00:42:02+00:00,6.9535281658173,4,Stim_B.csv,Global.csv,Global,B,,,,,,0,Instruct,User,5,"After studying each LIST of words, you will be asked to rate your ability to remember ALL of the words in the list on a later test. You will make these ratings using a scale of 0 to 100. A rating of 0 = WILL NOT REMEMBER, while a rating of 100 = WILL DEFINITELY REMEMBER. Please try to be as accurate as possible with these ratings!",,BLIPBLOOP,6772,,,-1,-1,,,,,1
648868c355e5b891758c5767,wkevrdugd5,Ex2A_Prolific,1,3,2024-02-28T00:42:05+00:00,3.2136318683624,4,Stim_B.csv,Global.csv,Global,B,,,,,,0,Instruct,User,1.25,"You will now begin the study. Click next when you are ready to begin.",,Instruct16,3050,,,-1,-1,,,,,1
648868c355e5b891758c5767,wkevrdugd5,Ex2A_Prolific,1,4,2024-02-28T00:42:09+00:00,3.5895390510559,4,Stim_B.csv,Global.csv,Global,B,aroma,,Win_1,,,2,Study,User,1.25,,Window,Win_1,3447,,,-1,-1,,,,,1
648868c355e5b891758c5767,wkevrdugd5,Ex2A_Prolific,1,5,2024-02-28T00:42:12+00:00,3.1914060115814,4,Stim_B.csv,Global.csv,Global,B,scent,,Win_2,,,3,Study,User,1.25,,Window,Win_2,3043,,,-1,-1,,,,,1
648868c355e5b891758c5767,wkevrdugd5,Ex2A_Prolific,1,6,2024-02-28T00:42:15+00:00,3.2823069095612,4,Stim_B.csv,Global.csv,Global,B,whiff,,Win_3,,,4,Study,User,1.25,,Window,Win_3,3129,,,-1,-1,,,,,1
648868c355e5b891758c5767,wkevrdugd5,Ex2A_Prolific,1,7,2024-02-28T00:42:19+00:00,4.0553870201111,4,Stim_B.csv,Global.csv,Global,B,stench,,Win_4,,,5,Study,User,1.25,,Window,Win_4,3893,,,-1,-1,,,,,1
648868c355e5b891758c5767,wkevrdugd5,Ex2A_Prolific,1,8,2024-02-28T00:42:21+00:00,2.170086145401,4,Stim_B.csv,Global.csv,Global,B,reek,,Win_5,,,6,Study,User,1.25,,Window,Win_5,2005,,,-1,-1,,,,,1
648868c355e5b891758c5767,wkevrdugd5,Ex2A_Prolific,1,9,2024-02-28T00:42:24+00:00,2.4936189651489,4,Stim_B.csv,Global.csv,Global,B,sniff,,Win_6,,,7,Study,User,1.25,,Window,Win_6,2243,,,-1,-1,,,,,1
648868c355e5b891758c5767,wkevrdugd5,Ex2A_Prolific,1,10,2024-02-28T00:42:27+00:00,3.2191209793091,4,Stim_B.csv,Global.csv,Global,B,perfume,,Win_7,,,8,Study,User,1.25,,Window,Win_7,3085,,,-1,-1,,,,,1
648868c355e5b891758c5767,wkevrdugd5,Ex2A_Prolific,1,11,2024-02-28T00:42:29+00:00,2.4325389862061,4,Stim_B.csv,Global.csv,Global,B,fragrance,,Win_8,,,9,Study,User,1.25,,Window,Win_8,2267,,,-1,-1,,,,,1
648868c355e5b891758c5767,wkevrdugd5,Ex2A_Prolific,1,12,2024-02-28T00:42:32+00:00,2.7732839584351,4,Stim_B.csv,Global.csv,Global,B,nose,,Win_9,,,10,Study,User,1.25,,Window,Win_9,2582,,,-1,-1,,,,,1
648868c355e5b891758c5767,wkevrdugd5,Ex2A_Prolific,1,13,2024-02-28T00:42:35+00:00,2.579076051712,4,Stim_B.csv,Global.csv,Global,B,rose,,Win_10,,,11,Study,User,1.25,,Window,Win_10,2434,,,-1,-1,,,,,1
648868c355e5b891758c5767,wkevrdugd5,Ex2A_Prolific,1,14,2024-02-28T00:42:37+00:00,2.6417338848114,4,Stim_B.csv,Global.csv,Global,B,salts,,Win_11,,,12,Study,User,1.25,,Window,Win_11,2487,,,-1,-1,,,,,1
648868c355e5b891758c5767,wkevrdugd5,Ex2A_Prolific,1,15,2024-02-28T00:42:41+00:00,3.1826841831207,4,Stim_B.csv,Global.csv,Global,B,breathe,,Win_12,,,13,Study,User,1.25,,Window,Win_12,2976,,,-1,-1,,,,,1
648868c355e5b891758c5767,wkevrdugd5,Ex2A_Prolific,1,16,2024-02-28T00:42:46+00:00,5.5507199764252,4,Stim_B.csv,Global.csv,Global,B,,,,,,0,Instruct,User,-,"You have completed this section and will now be asked to judge your ability to remember the list items you just studied. You will have four seconds to type your rating. Please click next to continue.",,Next_List1,5410,,,-1,-1,,,,,1
648868c355e5b891758c5767,wkevrdugd5,Ex2A_Prolific,1,17,2024-02-28T00:42:52+00:00,5.4904088973999,4,Stim_B.csv,Global.csv,Global,B,,,,,,0,JOL_GLOBAL,5,5,"How likely are you to correctly recall each of the items you just studied?|Type your response on a scale from 0-100 and then press Enter (0 = WILL NOT REMEMBER; 100 = DEFINITELY WILL REMEMBER).",Related,JOL1,5001,,,-1,-1,,,,,1
648868c355e5b891758c5767,wkevrdugd5,Ex2A_Prolific,1,18,2024-02-28T00:42:55+00:00,3.0758390426636,4,Stim_B.csv,Global.csv,Global,B,,,,,,0,Instruct,User,-,"You have completed this section. Please click next.",,Instruct166,2861,,,-1,-1,,,,,1
648868c355e5b891758c5767,wkevrdugd5,Ex2A_Prolific,1,19,2024-02-28T00:43:25+00:00,30.754613876343,4,Stim_B.csv,Global.csv,Global,B,,,,,,0,FreeRecall,30,30,"Please type as many words as you can that begin with the letter ""W"". The computer will automatically advance to the next screen in 30 seconds.",,FILLER,30001,"winter wonder wise will well welfare wellness white why when where wisdom wonder want wanted ",0,5774,29736,0,0,,,1
648868c355e5b891758c5767,wkevrdugd5,Ex2A_Prolific,1,20,2024-02-28T00:43:31+00:00,5.2129471302032,4,Stim_B.csv,Global.csv,Global,B,,,,,,0,Instruct,User,-,"You have completed this section. Please click next.",,Instruct166,5023,,,-1,-1,,,,,1
648868c355e5b891758c5767,wkevrdugd5,Ex2A_Prolific,1,21,2024-02-28T00:43:40+00:00,9.4783990383148,4,Stim_B.csv,Global.csv,Global,B,,,,,,0,Instruct,User,4,"You will now complete a memory test for the words you just studied. Please type as many words from the previous list as you can seperated by a comma. Spelling will not count against you and you can recall the words in any order. This test will be timed for one minute, and the computer will automatically advance once time is up. Click next when you are ready to begin.",,Instruct1666,9239,,,-1,-1,,,,,1
648868c355e5b891758c5767,wkevrdugd5,Ex2A_Prolific,1,22,2024-02-28T00:44:40+00:00,60.280771970749,4,Stim_B.csv,Global.csv,Global,B,,,,,,0,FreeRecall,60,60,"Please type as many words as you can from the previous study list in any order. Please separate each word with a comma. Spelling will not count against you. This screen will automatically advance in one minute.",,RECALL_Test,60001,"whiff, nose, rose, sniff, breathe, perfume, salts, reek, stench, scent, aroma,",0,1520,43180,0,0,,,1
648868c355e5b891758c5767,wkevrdugd5,Ex2A_Prolific,1,23,2024-02-28T00:44:55+00:00,14.177041053772,4,Stim_B.csv,Global.csv,Global,B,,,,,,0,Instruct,User,3,"You will now be presented with a new study list. Click next when you are ready to begin.",,NEXT_LIST,13961,,,-1,-1,,,,,1
648868c355e5b891758c5767,wkevrdugd5,Ex2A_Prolific,1,24,2024-02-28T00:44:57+00:00,2.4365348815918,4,Stim_B.csv,Global.csv,Global,B,hard,,R1,,,14,Study,User,1.25,,Rough,R1,1975,,,-1,-1,,,,,1
648868c355e5b891758c5767,wkevrdugd5,Ex2A_Prolific,1,25,2024-02-28T00:45:00+00:00,2.7925169467926,4,Stim_B.csv,Global.csv,Global,B,loud,,R2,,,15,Study,User,1.25,,Rough,R2,1919,,,-1,-1,,,,,1
648868c355e5b891758c5767,wkevrdugd5,Ex2A_Prolific,1,26,2024-02-28T00:45:02+00:00,2.2681331634521,4,Stim_B.csv,Global.csv,Global,B,tender,,R3,,,16,Study,User,1.25,,Rough,R3,1825,,,-1,-1,,,,,1
648868c355e5b891758c5767,wkevrdugd5,Ex2A_Prolific,1,27,2024-02-28T00:45:04+00:00,1.7314639091492,4,Stim_B.csv,Global.csv,Global,B,fluffy,,R4,,,17,Study,User,1.25,,Rough,R4,1335,,,-1,-1,,,,,1
648868c355e5b891758c5767,wkevrdugd5,Ex2A_Prolific,1,28,2024-02-28T00:45:06+00:00,2.3584449291229,4,Stim_B.csv,Global.csv,Global,B,pillow,,R5,,,18,Study,User,1.25,,Rough,R5,2043,,,-1,-1,,,,,1
648868c355e5b891758c5767,wkevrdugd5,Ex2A_Prolific,1,29,2024-02-28T00:45:08+00:00,2.1499631404877,4,Stim_B.csv,Global.csv,Global,B,downy,,R6,,,19,Study,User,1.25,,Rough,R6,1826,,,-1,-1,,,,,1
648868c355e5b891758c5767,wkevrdugd5,Ex2A_Prolific,1,30,2024-02-28T00:45:11+00:00,2.4686498641968,4,Stim_B.csv,Global.csv,Global,B,plush,,R7,,,20,Study,User,1.25,,Rough,R7,2037,,,-1,-1,,,,,1
648868c355e5b891758c5767,wkevrdugd5,Ex2A_Prolific,1,31,2024-02-28T00:45:13+00:00,2.1876699924469,4,Stim_B.csv,Global.csv,Global,B,cotton,,R8,,,21,Study,User,1.25,,Rough,R8,1915,,,-1,-1,,,,,1
648868c355e5b891758c5767,wkevrdugd5,Ex2A_Prolific,1,32,2024-02-28T00:45:15+00:00,2.4578111171722,4,Stim_B.csv,Global.csv,Global,B,skin,,R9,,,22,Study,User,1.25,,Rough,R9,1976,,,-1,-1,,,,,1
648868c355e5b891758c5767,wkevrdugd5,Ex2A_Prolific,1,33,2024-02-28T00:45:17+00:00,1.8970890045166,4,Stim_B.csv,Global.csv,Global,B,fur,,R10,,,23,Study,User,1.25,,Rough,R10,1410,,,-1,-1,,,,,1
648868c355e5b891758c5767,wkevrdugd5,Ex2A_Prolific,1,34,2024-02-28T00:45:20+00:00,3.024838924408,4,Stim_B.csv,Global.csv,Global,B,touch,,R11,,,24,Study,User,1.25,,Rough,R11,2494,,,-1,-1,,,,,1
648868c355e5b891758c5767,wkevrdugd5,Ex2A_Prolific,1,35,2024-02-28T00:45:23+00:00,2.1820690631866,4,Stim_B.csv,Global.csv,Global,B,furry,,R12,,,25,Study,User,1.25,,Rough,R12,1962,,,-1,-1,,,,,1
648868c355e5b891758c5767,wkevrdugd5,Ex2A_Prolific,1,36,2024-02-28T00:45:28+00:00,5.0330529212952,4,Stim_B.csv,Global.csv,Global,B,,,,,,0,Instruct,User,1.25,"You have completed this section and will now be asked to judge your ability to remember the list items you just studied. You will have four seconds to type your rating. Please click next to continue.",,Next_List1,4582,,,-1,-1,,,,,1
648868c355e5b891758c5767,wkevrdugd5,Ex2A_Prolific,1,37,2024-02-28T00:45:33+00:00,5.6206631660461,4,Stim_B.csv,Global.csv,Global,B,,,,,,0,JOL_GLOBAL,5,5,"How likely are you to correctly recall each of the items you just studied?|Type your response on a scale from 0-100 and then press Enter (0 = WILL NOT REMEMBER; 100 = DEFINITELY WILL REMEMBER).",Unrelated,JOL2,5002,,,1885,2048,,,,78,1
648868c355e5b891758c5767,wkevrdugd5,Ex2A_Prolific,1,38,2024-02-28T00:45:38+00:00,4.7410538196564,4,Stim_B.csv,Global.csv,Global,B,,,,,,0,Instruct,User,4,"You have completed this section. Please click next.",,Instruct166,4294,,,-1,-1,,,,,1
648868c355e5b891758c5767,wkevrdugd5,Ex2A_Prolific,1,39,2024-02-28T00:46:09+00:00,30.60138297081,4,Stim_B.csv,Global.csv,Global,B,,,,,,0,FreeRecall,30,30,"Please type as many words as you can that begin with the letter ""M"". The computer will automatically advance to the next screen in 30 seconds.",,FILLER,30004,"mouse men mice mean meal mountain mount mormon mortal moral morale most manly man m",0,2454,29697,0,0,,,1
648868c355e5b891758c5767,wkevrdugd5,Ex2A_Prolific,1,40,2024-02-28T00:46:14+00:00,5.9218890666962,4,Stim_B.csv,Global.csv,Global,B,,,,,,0,Instruct,User,4,"You have completed this section. Please click next.",,Instruct166,5700,,,-1,-1,,,,,1
648868c355e5b891758c5767,wkevrdugd5,Ex2A_Prolific,1,41,2024-02-28T00:46:27+00:00,12.978948116302,4,Stim_B.csv,Global.csv,Global,B,,,,,,0,Instruct,User,4,"You will now complete a memory test for the words you just studied. Please type as many words from the previous list as you can seperated by a comma. Spelling will not count against you and you can recall the words in any order. This test will be timed for one minute, and the computer will automatically advance once time is up. Click next when you are ready to begin.",,Instruct1666,12719,,,-1,-1,,,,,1
648868c355e5b891758c5767,wkevrdugd5,Ex2A_Prolific,1,42,2024-02-28T00:47:28+00:00,60.672154903412,4,Stim_B.csv,Global.csv,Global,B,,,,,,0,FreeRecall,60,60,"Please type as many words as you can from the previous study list in any order. Please separate each word with a comma. Spelling will not count against you. This screen will automatically advance in one minute.",,RECALL_Test,60001,"hard, loud, pillow, plush, furry, ",0,969,26852,0,0,,,1
648868c355e5b891758c5767,wkevrdugd5,Ex2A_Prolific,1,43,2024-02-28T00:47:35+00:00,6.7054579257965,4,Stim_B.csv,Global.csv,Global,B,,,,,,0,Instruct,User,1.25,"You will now be presented with a new study list. Click next when you are ready to begin.",,NEXT_LIST,6314,,,-1,-1,,,,,1
648868c355e5b891758c5767,wkevrdugd5,Ex2A_Prolific,1,44,2024-02-28T00:47:37+00:00,2.1921310424805,4,Stim_B.csv,Global.csv,Global,B,honey,,A1,,,26,Study,User,1.25,,Anger,A1,2033,,,-1,-1,,,,,1
648868c355e5b891758c5767,wkevrdugd5,Ex2A_Prolific,1,45,2024-02-28T00:47:40+00:00,3.0617871284485,4,Stim_B.csv,Global.csv,Global,B,bitter,,A2,,,27,Study,User,1.25,,Anger,A2,2710,,,-1,-1,,,,,1
648868c355e5b891758c5767,wkevrdugd5,Ex2A_Prolific,1,46,2024-02-28T00:47:43+00:00,2.8024690151215,4,Stim_B.csv,Global.csv,Global,B,sugar,,A3,,,28,Study,User,1.25,,Anger,A3,2520,,,-1,-1,,,,,1
648868c355e5b891758c5767,wkevrdugd5,Ex2A_Prolific,1,47,2024-02-28T00:47:45+00:00,2.4041028022766,4,Stim_B.csv,Global.csv,Global,B,sour,,A4,,,29,Study,User,1.25,,Anger,A4,1897,,,-1,-1,,,,,1
648868c355e5b891758c5767,wkevrdugd5,Ex2A_Prolific,1,48,2024-02-28T00:47:49+00:00,3.4138071537018,4,Stim_B.csv,Global.csv,Global,B,candy,,A5,,,30,Study,User,1.25,,Anger,A5,2860,,,-1,-1,,,,,1
648868c355e5b891758c5767,wkevrdugd5,Ex2A_Prolific,1,49,2024-02-28T00:47:52+00:00,3.7081558704376,4,Stim_B.csv,Global.csv,Global,B,tart,,A6,,,31,Study,User,1.25,,Anger,A6,3080,,,-1,-1,,,,,1
648868c355e5b891758c5767,wkevrdugd5,Ex2A_Prolific,1,50,2024-02-28T00:47:55+00:00,2.7903070449829,4,Stim_B.csv,Global.csv,Global,B,chocolate,,A7,,,32,Study,User,1.25,,Anger,A7,2246,,,-1,-1,,,,,1
648868c355e5b891758c5767,wkevrdugd5,Ex2A_Prolific,1,51,2024-02-28T00:47:58+00:00,2.5078160762787,4,Stim_B.csv,Global.csv,Global,B,nice,,A8,,,33,Study,User,1.25,,Anger,A8,2024,,,-1,-1,,,,,1
648868c355e5b891758c5767,wkevrdugd5,Ex2A_Prolific,1,52,2024-02-28T00:48:00+00:00,2.5229098796844,4,Stim_B.csv,Global.csv,Global,B,taste,,A9,,,34,Study,User,1.25,,Anger,A9,1978,,,-1,-1,,,,,1
648868c355e5b891758c5767,wkevrdugd5,Ex2A_Prolific,1,53,2024-02-28T00:48:02+00:00,2.2466430664062,4,Stim_B.csv,Global.csv,Global,B,cake,,A10,,,35,Study,User,1.25,,Anger,A10,1839,,,-1,-1,,,,,1
648868c355e5b891758c5767,wkevrdugd5,Ex2A_Prolific,1,54,2024-02-28T00:48:05+00:00,2.3833529949188,4,Stim_B.csv,Global.csv,Global,B,good,,A11,,,36,Study,User,1.25,,Anger,A11,1787,,,-1,-1,,,,,1
648868c355e5b891758c5767,wkevrdugd5,Ex2A_Prolific,1,55,2024-02-28T00:48:07+00:00,2.2768189907074,4,Stim_B.csv,Global.csv,Global,B,tooth,,A12,,,37,Study,User,1.25,,Anger,A12,1944,,,-1,-1,,,,,1
648868c355e5b891758c5767,wkevrdugd5,Ex2A_Prolific,1,56,2024-02-28T00:48:10+00:00,3.1363089084625,4,Stim_B.csv,Global.csv,Global,B,,,,,,0,Instruct,User,-,"You have completed this section and will now be asked to judge your ability to remember the list items you just studied. You will have four seconds to type your rating. Please click next to continue.",,Next_List1,2818,,,-1,-1,,,,,1
648868c355e5b891758c5767,wkevrdugd5,Ex2A_Prolific,1,57,2024-02-28T00:48:16+00:00,5.4615931510925,4,Stim_B.csv,Global.csv,Global,B,,,,,,0,JOL_GLOBAL,5,5,"How likely are you to correctly recall each of the items you just studied?|Type your response on a scale from 0-100 and then press Enter (0 = WILL NOT REMEMBER; 100 = DEFINITELY WILL REMEMBER).",Related,JOL3,5001,,,1469,1618,,,,65,1
648868c355e5b891758c5767,wkevrdugd5,Ex2A_Prolific,1,58,2024-02-28T00:48:20+00:00,4.4315209388733,4,Stim_B.csv,Global.csv,Global,B,,,,,,0,Instruct,User,1.25,"You have completed this section. Please click next.",,Instruct166,3924,,,-1,-1,,,,,1
648868c355e5b891758c5767,wkevrdugd5,Ex2A_Prolific,1,59,2024-02-28T00:48:50+00:00,30.310189008713,4,Stim_B.csv,Global.csv,Global,B,,,,,,0,FreeRecall,30,30,"Please type as many words as you can that begin with the letter ""R"". The computer will automatically advance to the next screen in 30 seconds.",,FILLER,30005,"rice ranch reach real relish relic rent renal require requirement rinse restaurant re",0,1600,29800,0,0,,,1
648868c355e5b891758c5767,wkevrdugd5,Ex2A_Prolific,1,60,2024-02-28T00:48:54+00:00,3.8050310611725,4,Stim_B.csv,Global.csv,Global,B,,,,,,0,Instruct,User,-,"You have completed this section. Please click next.",,Instruct166,3513,,,-1,-1,,,,,1
648868c355e5b891758c5767,wkevrdugd5,Ex2A_Prolific,1,61,2024-02-28T00:49:01+00:00,6.8186750411987,4,Stim_B.csv,Global.csv,Global,B,,,,,,0,Instruct,User,4,"You will now complete a memory test for the words you just studied. Please type as many words from the previous list as you can seperated by a comma. Spelling will not count against you and you can recall the words in any order. This test will be timed for one minute, and the computer will automatically advance once time is up. Click next when you are ready to begin.",,Instruct1666,6279,,,-1,-1,,,,,1
648868c355e5b891758c5767,wkevrdugd5,Ex2A_Prolific,1,62,2024-02-28T00:50:01+00:00,60.280705928802,4,Stim_B.csv,Global.csv,Global,B,,,,,,0,FreeRecall,60,60,"Please type as many words as you can from the previous study list in any order. Please separate each word with a comma. Spelling will not count against you. This screen will automatically advance in one minute.",,RECALL_Test,60006,"honey, sweet, tart, bitter, sugar, candy, chocolate, cake",0,1644,38170,0,0,,,1
648868c355e5b891758c5767,wkevrdugd5,Ex2A_Prolific,1,63,2024-02-28T00:51:14+00:00,72.725338935852,4,Stim_B.csv,Global.csv,Global,B,,,,,,0,Instruct,User,3,"You will now be presented with a new study list. Click next when you are ready to begin.",,NEXT_LIST,71422,,,-1,-1,,,,,1
648868c355e5b891758c5767,wkevrdugd5,Ex2A_Prolific,1,64,2024-02-28T00:51:17+00:00,2.5525529384613,4,Stim_B.csv,Global.csv,Global,B,table,,T1,,,38,Study,User,1.25,,Trash,T1,2221,,,-1,-1,,,,,1
648868c355e5b891758c5767,wkevrdugd5,Ex2A_Prolific,1,65,2024-02-28T00:51:19+00:00,2.1969830989838,4,Stim_B.csv,Global.csv,Global,B,swivel,,T2,,,39,Study,User,1.25,,Trash,T2,1796,,,-1,-1,,,,,1
648868c355e5b891758c5767,wkevrdugd5,Ex2A_Prolific,1,66,2024-02-28T00:51:21+00:00,2.5515420436859,4,Stim_B.csv,Global.csv,Global,B,rocking,,T3,,,40,Study,User,1.25,,Trash,T3,2219,,,-1,-1,,,,,1
648868c355e5b891758c5767,wkevrdugd5,Ex2A_Prolific,1,67,2024-02-28T00:51:24+00:00,2.6194479465485,4,Stim_B.csv,Global.csv,Global,B,recliner,,T4,,,41,Study,User,1.25,,Trash,T4,2059,,,-1,-1,,,,,1
648868c355e5b891758c5767,wkevrdugd5,Ex2A_Prolific,1,68,2024-02-28T00:51:27+00:00,2.9731650352478,4,Stim_B.csv,Global.csv,Global,B,seat,,T5,,,42,Study,User,1.25,,Trash,T5,2209,,,-1,-1,,,,,1
648868c355e5b891758c5767,wkevrdugd5,Ex2A_Prolific,1,69,2024-02-28T00:51:29+00:00,2.1660408973694,4,Stim_B.csv,Global.csv,Global,B,stool,,T6,,,43,Study,User,1.25,,Trash,T6,1939,,,-1,-1,,,,,1
648868c355e5b891758c5767,wkevrdugd5,Ex2A_Prolific,1,70,2024-02-28T00:51:32+00:00,2.4447190761566,4,Stim_B.csv,Global.csv,Global,B,desk,,T7,,,44,Study,User,1.25,,Trash,T7,1895,,,-1,-1,,,,,1
648868c355e5b891758c5767,wkevrdugd5,Ex2A_Prolific,1,71,2024-02-28T00:51:34+00:00,2.2075440883636,4,Stim_B.csv,Global.csv,Global,B,couch,,T8,,,45,Study,User,1.25,,Trash,T8,1753,,,-1,-1,,,,,1
648868c355e5b891758c5767,wkevrdugd5,Ex2A_Prolific,1,72,2024-02-28T00:51:36+00:00,2.4099259376526,4,Stim_B.csv,Global.csv,Global,B,sit,,T9,,,46,Study,User,1.25,,Trash,T9,1889,,,-1,-1,,,,,1
648868c355e5b891758c5767,wkevrdugd5,Ex2A_Prolific,1,73,2024-02-28T00:51:39+00:00,2.3223888874054,4,Stim_B.csv,Global.csv,Global,B,sofa,,T10,,,47,Study,User,1.25,,Trash,T10,1728,,,-1,-1,,,,,1
648868c355e5b891758c5767,wkevrdugd5,Ex2A_Prolific,1,74,2024-02-28T00:51:41+00:00,2.452171087265,4,Stim_B.csv,Global.csv,Global,B,bench,,T11,,,48,Study,User,1.25,,Trash,T11,1771,,,-1,-1,,,,,1
648868c355e5b891758c5767,wkevrdugd5,Ex2A_Prolific,1,75,2024-02-28T00:51:43+00:00,2.1434080600739,4,Stim_B.csv,Global.csv,Global,B,sitting,,T12,,,49,Study,User,1.25,,Trash,T12,1567,,,-1,-1,,,,,1
648868c355e5b891758c5767,wkevrdugd5,Ex2A_Prolific,1,76,2024-02-28T00:51:45+00:00,2.1832668781281,4,Stim_B.csv,Global.csv,Global,B,,,,,,0,Instruct,User,-,"You have completed this section and will now be asked to judge your ability to remember the list items you just studied. You will have four seconds to type your rating. Please click next to continue.",,Next_List1,1873,,,-1,-1,,,,,1
648868c355e5b891758c5767,wkevrdugd5,Ex2A_Prolific,1,77,2024-02-28T00:51:51+00:00,5.3321471214294,4,Stim_B.csv,Global.csv,Global,B,,,,,,0,JOL_GLOBAL,5,5,"How likely are you to correctly recall each of the items you just studied?|Type your response on a scale from 0-100 and then press Enter (0 = WILL NOT REMEMBER; 100 = DEFINITELY WILL REMEMBER).",Related,JOL4,5006,,,1936,2554,,,,72,1
648868c355e5b891758c5767,wkevrdugd5,Ex2A_Prolific,1,78,2024-02-28T00:51:55+00:00,4.7017829418182,4,Stim_B.csv,Global.csv,Global,B,,,,,,0,Instruct,User,-,"You have completed this section. Please click next.",,Instruct166,4158,,,-1,-1,,,,,1
648868c355e5b891758c5767,wkevrdugd5,Ex2A_Prolific,1,79,2024-02-28T00:52:26+00:00,30.369942903519,4,Stim_B.csv,Global.csv,Global,B,,,,,,0,FreeRecall,30,30,"Please type as many words as you can that begin with the letter ""T"". The computer will automatically advance to the next screen in 30 seconds.",,FILLER,30001,"ten tent trance trend tired tree triplet twin twins twinkle two tore torn ",0,2052,29720,0,0,,,1
648868c355e5b891758c5767,wkevrdugd5,Ex2A_Prolific,1,80,2024-02-28T00:52:31+00:00,5.4673562049866,4,Stim_B.csv,Global.csv,Global,B,,,,,,0,Instruct,User,4,"You have completed this section. Please click next.",,Instruct166,5192,,,-1,-1,,,,,1
648868c355e5b891758c5767,wkevrdugd5,Ex2A_Prolific,1,81,2024-02-28T00:52:38+00:00,6.5459339618683,4,Stim_B.csv,Global.csv,Global,B,,,,,,0,Instruct,User,4,"You will now complete a memory test for the words you just studied. Please type as many words from the previous list as you can seperated by a comma. Spelling will not count against you and you can recall the words in any order. This test will be timed for one minute, and the computer will automatically advance once time is up. Click next when you are ready to begin.",,Instruct1666,5834,,,-1,-1,,,,,1
648868c355e5b891758c5767,wkevrdugd5,Ex2A_Prolific,1,82,2024-02-28T00:53:38+00:00,60.536005973816,4,Stim_B.csv,Global.csv,Global,B,,,,,,0,FreeRecall,60,60,"Please type as many words as you can from the previous study list in any order. Please separate each word with a comma. Spelling will not count against you. This screen will automatically advance in one minute.",,RECALL_Test,60004,"chair, bench, seat, stool, rocking, table, couch sitting,",0,1344,27564,0,0,,,1
648868c355e5b891758c5767,wkevrdugd5,Ex2A_Prolific,1,83,2024-02-28T00:54:43+00:00,64.3319439888,4,Stim_B.csv,Global.csv,Global,B,,,,,,0,Instruct,User,3,"You will now be presented with a new study list. Click next when you are ready to begin.",,NEXT_LIST,63758,,,-1,-1,,,,,1
648868c355e5b891758c5767,wkevrdugd5,Ex2A_Prolific,1,84,2024-02-28T00:54:46+00:00,3.3027360439301,4,Stim_B.csv,Global.csv,Global,B,climber,,D1,,,50,Study,User,1.25,,Doctor,D1,3110,,,-1,-1,,,,,1
648868c355e5b891758c5767,wkevrdugd5,Ex2A_Prolific,1,85,2024-02-28T00:54:49+00:00,2.6675238609314,4,Stim_B.csv,Global.csv,Global,B,hill,,D2,,,51,Study,User,1.25,,Doctor,D2,1977,,,-1,-1,,,,,1
648868c355e5b891758c5767,wkevrdugd5,Ex2A_Prolific,1,86,2024-02-28T00:54:51+00:00,2.8062071800232,4,Stim_B.csv,Global.csv,Global,B,climb,,D3,,,52,Study,User,1.25,,Doctor,D3,2513,,,-1,-1,,,,,1
648868c355e5b891758c5767,wkevrdugd5,Ex2A_Prolific,1,87,2024-02-28T00:54:54+00:00,2.623753786087,4,Stim_B.csv,Global.csv,Global,B,molehill,,D4,,,53,Study,User,1.25,,Doctor,D4,1858,,,-1,-1,,,,,1
648868c355e5b891758c5767,wkevrdugd5,Ex2A_Prolific,1,88,2024-02-28T00:54:56+00:00,2.1234700679779,4,Stim_B.csv,Global.csv,Global,B,peak,,D5,,,54,Study,User,1.25,,Doctor,D5,1732,,,-1,-1,,,,,1
648868c355e5b891758c5767,wkevrdugd5,Ex2A_Prolific,1,89,2024-02-28T00:54:58+00:00,2.2629389762878,4,Stim_B.csv,Global.csv,Global,B,valley,,D6,,,55,Study,User,1.25,,Doctor,D6,1779,,,-1,-1,,,,,1
648868c355e5b891758c5767,wkevrdugd5,Ex2A_Prolific,1,90,2024-02-28T00:55:01+00:00,2.2698521614075,4,Stim_B.csv,Global.csv,Global,B,summit,,D7,,,56,Study,User,1.25,,Doctor,D7,1787,,,-1,-1,,,,,1
648868c355e5b891758c5767,wkevrdugd5,Ex2A_Prolific,1,91,2024-02-28T00:55:03+00:00,2.15678191185,4,Stim_B.csv,Global.csv,Global,B,steep,,D8,,,57,Study,User,1.25,,Doctor,D8,1732,,,-1,-1,,,,,1
648868c355e5b891758c5767,wkevrdugd5,Ex2A_Prolific,1,92,2024-02-28T00:55:05+00:00,1.95281291008,4,Stim_B.csv,Global.csv,Global,B,ski,,D9,,,58,Study,User,1.25,,Doctor,D9,1674,,,-1,-1,,,,,1
648868c355e5b891758c5767,wkevrdugd5,Ex2A_Prolific,1,93,2024-02-28T00:55:07+00:00,2.032998085022,4,Stim_B.csv,Global.csv,Global,B,bike,,D10,,,59,Study,User,1.25,,Doctor,D10,1726,,,-1,-1,,,,,1
648868c355e5b891758c5767,wkevrdugd5,Ex2A_Prolific,1,94,2024-02-28T00:55:09+00:00,2.0662999153137,4,Stim_B.csv,Global.csv,Global,B,goat,,D11,,,60,Study,User,1.25,,Doctor,D11,1576,,,-1,-1,,,,,1
648868c355e5b891758c5767,wkevrdugd5,Ex2A_Prolific,1,95,2024-02-28T00:55:12+00:00,2.948911190033,4,Stim_B.csv,Global.csv,Global,B,glacier,,D12,,,61,Study,User,1.25,,Doctor,D12,1747,,,-1,-1,,,,,1
648868c355e5b891758c5767,wkevrdugd5,Ex2A_Prolific,1,96,2024-02-28T00:55:17+00:00,5.2573208808899,4,Stim_B.csv,Global.csv,Global,B,,,,,,0,Instruct,User,-,"You have completed this section and will now be asked to judge your ability to remember the list items you just studied. You will have four seconds to type your rating. Please click next to continue.",,Next_List1,5078,,,-1,-1,,,,,1
648868c355e5b891758c5767,wkevrdugd5,Ex2A_Prolific,1,97,2024-02-28T00:55:22+00:00,4.6570880413055,4,Stim_B.csv,Global.csv,Global,B,,,,,,0,JOL_GLOBAL,5,1.25,"How likely are you to correctly recall each of the items you just studied?|Type your response on a scale from 0-100 and then press Enter (0 = WILL NOT REMEMBER; 100 = DEFINITELY WILL REMEMBER).",Related,JOL5,4243,,,1316,1582,,,,50,1
648868c355e5b891758c5767,wkevrdugd5,Ex2A_Prolific,1,98,2024-02-28T00:55:27+00:00,4.9061999320984,4,Stim_B.csv,Global.csv,Global,B,,,,,,0,Instruct,User,4,"You have completed this section. Please click next.",,Instruct166,4626,,,-1,-1,,,,,1
648868c355e5b891758c5767,wkevrdugd5,Ex2A_Prolific,1,99,2024-02-28T00:55:57+00:00,30.640676021576,4,Stim_B.csv,Global.csv,Global,B,,,,,,0,FreeRecall,30,1.25,"Please type as many words as you can that begin with the letter ""N"". The computer will automatically advance to the next screen in 30 seconds.",,FILLER,30005,"nice neat near net next nest noun nonsense no nose now ",0,1361,28421,0,0,,,1
648868c355e5b891758c5767,wkevrdugd5,Ex2A_Prolific,1,100,2024-02-28T00:56:10+00:00,12.811026096344,4,Stim_B.csv,Global.csv,Global,B,,,,,,0,Instruct,User,1.25,"You have completed this section. Please click next.",,Instruct166,12566,,,-1,-1,,,,,1
648868c355e5b891758c5767,wkevrdugd5,Ex2A_Prolific,1,101,2024-02-28T00:56:18+00:00,8.0969598293304,4,Stim_B.csv,Global.csv,Global,B,,,,,,0,Instruct,User,4,"You will now complete a memory test for the words you just studied. Please type as many words from the previous list as you can seperated by a comma. Spelling will not count against you and you can recall the words in any order. This test will be timed for one minute, and the computer will automatically advance once time is up. Click next when you are ready to begin.",,Instruct1666,7642,,,-1,-1,,,,,1
648868c355e5b891758c5767,wkevrdugd5,Ex2A_Prolific,1,102,2024-02-28T00:57:19+00:00,60.511449098587,4,Stim_B.csv,Global.csv,Global,B,,,,,,0,FreeRecall,60,60,"Please type as many words as you can from the previous study list in any order. Please separate each word with a comma. Spelling will not count against you. This screen will automatically advance in one minute.",,RECALL_Test,60001,"climbing, glacier, climber, peak, ski,",0,772,29040,0,0,,,1
648868c355e5b891758c5767,wkevrdugd5,Ex2A_Prolific,1,103,2024-02-28T00:57:38+00:00,19.784027099609,4,Stim_B.csv,Global.csv,Global,B,,,,,,0,Instruct,User,3,"You will now be presented with a new study list. Click next when you are ready to begin.",,NEXT_LIST,19594,,,-1,-1,,,,,0.434
648868c355e5b891758c5767,wkevrdugd5,Ex2A_Prolific,1,104,2024-02-28T00:57:46+00:00,7.5632638931274,4,Stim_B.csv,Global.csv,Global,B,band,,S1,,,62,Study,User,1.25,,Slow,S1,6803,,,-1,-1,,,,,1
648868c355e5b891758c5767,wkevrdugd5,Ex2A_Prolific,1,105,2024-02-28T00:57:49+00:00,2.8679249286652,4,Stim_B.csv,Global.csv,Global,B,concert,,S2,,,63,Study,User,1.25,,Slow,S2,1851,,,-1,-1,,,,,1
648868c355e5b891758c5767,wkevrdugd5,Ex2A_Prolific,1,106,2024-02-28T00:57:51+00:00,2.1851780414581,4,Stim_B.csv,Global.csv,Global,B,jazz,,S3,,,64,Study,User,1.25,,Slow,S3,1823,,,-1,-1,,,,,1
648868c355e5b891758c5767,wkevrdugd5,Ex2A_Prolific,1,107,2024-02-28T00:57:53+00:00,2.1817009449005,4,Stim_B.csv,Global.csv,Global,B,symphony,,S4,,,65,Study,User,1.25,,Slow,S4,1716,,,-1,-1,,,,,1
648868c355e5b891758c5767,wkevrdugd5,Ex2A_Prolific,1,108,2024-02-28T00:57:56+00:00,2.318528175354,4,Stim_B.csv,Global.csv,Global,B,orchestra,,S5,,,66,Study,User,1.25,,Slow,S5,1598,,,-1,-1,,,,,1
648868c355e5b891758c5767,wkevrdugd5,Ex2A_Prolific,1,109,2024-02-28T00:57:58+00:00,2.583860874176,4,Stim_B.csv,Global.csv,Global,B,rhythm,,S6,,,67,Study,User,1.25,,Slow,S6,1822,,,-1,-1,,,,,1
648868c355e5b891758c5767,wkevrdugd5,Ex2A_Prolific,1,110,2024-02-28T00:58:01+00:00,2.4510819911957,4,Stim_B.csv,Global.csv,Global,B,radio,,S7,,,68,Study,User,1.25,,Slow,S7,1620,,,-1,-1,,,,,1
648868c355e5b891758c5767,wkevrdugd5,Ex2A_Prolific,1,111,2024-02-28T00:58:03+00:00,2.1956329345703,4,Stim_B.csv,Global.csv,Global,B,melody,,S8,,,69,Study,User,1.25,,Slow,S8,1559,,,-1,-1,,,,,1
648868c355e5b891758c5767,wkevrdugd5,Ex2A_Prolific,1,112,2024-02-28T00:58:05+00:00,2.3275620937347,4,Stim_B.csv,Global.csv,Global,B,piano,,S9,,,70,Study,User,1.25,,Slow,S9,1813,,,-1,-1,,,,,1
648868c355e5b891758c5767,wkevrdugd5,Ex2A_Prolific,1,113,2024-02-28T00:58:07+00:00,2.1706418991089,4,Stim_B.csv,Global.csv,Global,B,sound,,S10,,,71,Study,User,1.25,,Slow,S10,1883,,,-1,-1,,,,,1
648868c355e5b891758c5767,wkevrdugd5,Ex2A_Prolific,1,114,2024-02-28T00:58:10+00:00,2.4061560630798,4,Stim_B.csv,Global.csv,Global,B,instrument,,S11,,,72,Study,User,1.25,,Slow,S11,1785,,,-1,-1,,,,,1
648868c355e5b891758c5767,wkevrdugd5,Ex2A_Prolific,1,115,2024-02-28T00:58:12+00:00,1.8676879405975,4,Stim_B.csv,Global.csv,Global,B,note,,S12,,,73,Study,User,1.25,,Slow,S12,1473,,,-1,-1,,,,,1
648868c355e5b891758c5767,wkevrdugd5,Ex2A_Prolific,1,116,2024-02-28T00:58:14+00:00,2.411808013916,4,Stim_B.csv,Global.csv,Global,B,,,,,,0,Instruct,User,-,"You have completed this section and will now be asked to judge your ability to remember the list items you just studied. You will have four seconds to type your rating. Please click next to continue.",,Next_List1,1975,,,-1,-1,,,,,1
648868c355e5b891758c5767,wkevrdugd5,Ex2A_Prolific,1,117,2024-02-28T00:58:20+00:00,5.4925310611725,4,Stim_B.csv,Global.csv,Global,B,,,,,,0,JOL_GLOBAL,5,5,"How likely are you to correctly recall each of the items you just studied?|Type your response on a scale from 0-100 and then press Enter (0 = WILL NOT REMEMBER; 100 = DEFINITELY WILL REMEMBER).",Related,JOL6,5001,,,1575,1697,,,,70,1
648868c355e5b891758c5767,wkevrdugd5,Ex2A_Prolific,1,118,2024-02-28T00:58:21+00:00,1.4714961051941,4,Stim_B.csv,Global.csv,Global,B,,,,,,0,Instruct,User,-,"You have completed this section. Please click next.",,Instruct166,1085,,,-1,-1,,,,,1
648868c355e5b891758c5767,wkevrdugd5,Ex2A_Prolific,1,119,2024-02-28T00:58:52+00:00,30.529592037201,4,Stim_B.csv,Global.csv,Global,B,,,,,,0,FreeRecall,30,30,"Please type as many words as you can that begin with the letter ""M"". The computer will automatically advance to the next screen in 30 seconds.",,FILLER,30000,"mice mountain mean meat meal milk microphone mince minute month may mother mom molar mole ",0,1714,28500,0,0,,,1
648868c355e5b891758c5767,wkevrdugd5,Ex2A_Prolific,1,120,2024-02-28T00:59:00+00:00,8.2072808742523,4,Stim_B.csv,Global.csv,Global,B,,,,,,0,Instruct,User,4,"You have completed this section. Please click next.",,Instruct166,7896,,,-1,-1,,,,,1
648868c355e5b891758c5767,wkevrdugd5,Ex2A_Prolific,1,121,2024-02-28T00:59:05+00:00,4.8522009849548,4,Stim_B.csv,Global.csv,Global,B,,,,,,0,Instruct,User,4,"You will now complete a memory test for the words you just studied. Please type as many words from the previous list as you can seperated by a comma. Spelling will not count against you and you can recall the words in any order. This test will be timed for one minute, and the computer will automatically advance once time is up. Click next when you are ready to begin.",,Instruct1666,4567,,,-1,-1,,,,,1
648868c355e5b891758c5767,wkevrdugd5,Ex2A_Prolific,1,122,2024-02-28T01:00:05+00:00,60.409570932388,4,Stim_B.csv,Global.csv,Global,B,,,,,,0,FreeRecall,60,60,"Please type as many words as you can from the previous study list in any order. Please separate each word with a comma. Spelling will not count against you. This screen will automatically advance in one minute.",,RECALL_Test,60002,"jazz, concert, symphony, rhythm, band, concert, melody, orchestra ",0,1179,28691,0,0,,,1
648868c355e5b891758c5767,wkevrdugd5,Ex2A_Prolific,1,123,2024-02-28T01:00:13+00:00,8.414186000824,4,Stim_B.csv,Global.csv,Global,B,,,,,,0,Instruct,User,3,"You will now be presented with a new study list. Click next when you are ready to begin.",,NEXT_LIST,8203,,,-1,-1,,,,,1
648868c355e5b891758c5767,wkevrdugd5,Ex2A_Prolific,1,124,2024-02-28T01:00:18+00:00,4.1485280990601,4,Stim_B.csv,Global.csv,Global,B,foam,,RR1,,,74,Study,User,1.25,,River,RR1,3805,,,-1,-1,,,,,1
648868c355e5b891758c5767,wkevrdugd5,Ex2A_Prolific,1,125,2024-02-28T01:00:20+00:00,2.4857530593872,4,Stim_B.csv,Global.csv,Global,B,latex,,RR2,,,75,Study,User,1.25,,River,RR2,1917,,,-1,-1,,,,,1
648868c355e5b891758c5767,wkevrdugd5,Ex2A_Prolific,1,126,2024-02-28T01:00:22+00:00,2.0724709033966,4,Stim_B.csv,Global.csv,Global,B,galoshes,,RR3,,,76,Study,User,1.25,,River,RR3,1905,,,-1,-1,,,,,1
648868c355e5b891758c5767,wkevrdugd5,Ex2A_Prolific,1,127,2024-02-28T01:00:24+00:00,2.2458310127258,4,Stim_B.csv,Global.csv,Global,B,tire,,RR4,,,77,Study,User,1.25,,River,RR4,1486,,,-1,-1,,,,,1
648868c355e5b891758c5767,wkevrdugd5,Ex2A_Prolific,1,128,2024-02-28T01:00:27+00:00,2.4489729404449,4,Stim_B.csv,Global.csv,Global,B,flexible,,RR5,,,78,Study,User,1.25,,River,RR5,2046,,,-1,-1,,,,,1
648868c355e5b891758c5767,wkevrdugd5,Ex2A_Prolific,1,129,2024-02-28T01:00:29+00:00,2.0900700092316,4,Stim_B.csv,Global.csv,Global,B,elastic,,RR6,,,79,Study,User,1.25,,River,RR6,1376,,,-1,-1,,,,,1
648868c355e5b891758c5767,wkevrdugd5,Ex2A_Prolific,1,130,2024-02-28T01:00:30+00:00,1.5799560546875,4,Stim_B.csv,Global.csv,Global,B,gloves,,RR7,,,80,Study,User,1.25,,River,RR7,1314,,,-1,-1,,,,,1
648868c355e5b891758c5767,wkevrdugd5,Ex2A_Prolific,1,131,2024-02-28T01:00:33+00:00,2.0820009708405,4,Stim_B.csv,Global.csv,Global,B,eraser,,RR8,,,81,Study,User,1.25,,River,RR8,1716,,,-1,-1,,,,,1
648868c355e5b891758c5767,wkevrdugd5,Ex2A_Prolific,1,132,2024-02-28T01:00:35+00:00,2.1839900016785,4,Stim_B.csv,Global.csv,Global,B,bounce,,RR9,,,82,Study,User,1.25,,River,RR9,1723,,,-1,-1,,,,,1
648868c355e5b891758c5767,wkevrdugd5,Ex2A_Prolific,1,133,2024-02-28T01:00:37+00:00,2.0583801269531,4,Stim_B.csv,Global.csv,Global,B,ball,,RR10,,,83,Study,User,1.25,,River,RR10,1550,,,-1,-1,,,,,1
648868c355e5b891758c5767,wkevrdugd5,Ex2A_Prolific,1,134,2024-02-28T01:00:39+00:00,2.3587110042572,4,Stim_B.csv,Global.csv,Global,B,soles,,RR11,,,84,Study,User,1.25,,River,RR11,1700,,,-1,-1,,,,,1
648868c355e5b891758c5767,wkevrdugd5,Ex2A_Prolific,1,135,2024-02-28T01:00:41+00:00,1.6600439548492,4,Stim_B.csv,Global.csv,Global,B,springy,,RR12,,,85,Study,User,1.25,,River,RR12,1337,,,-1,-1,,,,,1
648868c355e5b891758c5767,wkevrdugd5,Ex2A_Prolific,1,136,2024-02-28T01:00:43+00:00,2.4983580112457,4,Stim_B.csv,Global.csv,Global,B,,,,,,0,Instruct,User,-,"You have completed this section and will now be asked to judge your ability to remember the list items you just studied. You will have four seconds to type your rating. Please click next to continue.",,Next_List1,2001,,,-1,-1,,,,,1
648868c355e5b891758c5767,wkevrdugd5,Ex2A_Prolific,1,137,2024-02-28T01:00:49+00:00,5.6481578350067,4,Stim_B.csv,Global.csv,Global,B,,,,,,0,JOL_GLOBAL,5,5,"How likely are you to correctly recall each of the items you just studied?|Type your response on a scale from 0-100 and then press Enter (0 = WILL NOT REMEMBER; 100 = DEFINITELY WILL REMEMBER).",Related,JOL7,5004,,,-1,-1,,,,,1
648868c355e5b891758c5767,wkevrdugd5,Ex2A_Prolific,1,138,2024-02-28T01:00:55+00:00,6.1506550312042,4,Stim_B.csv,Global.csv,Global,B,,,,,,0,Instruct,User,4,"You have completed this section. Please click next.",,Instruct166,5769,,,-1,-1,,,,,1
648868c355e5b891758c5767,wkevrdugd5,Ex2A_Prolific,1,139,2024-02-28T01:01:26+00:00,30.591953039169,4,Stim_B.csv,Global.csv,Global,B,,,,,,0,FreeRecall,30,30,"Please type as many words as you can that begin with the letter ""C"". The computer will automatically advance to the next screen in 30 seconds.",,FILLER,30003,"car cat can cancer cell cellular cello can cancel coil crown ",0,1552,29510,0,0,,,1
648868c355e5b891758c5767,wkevrdugd5,Ex2A_Prolific,1,140,2024-02-28T01:01:27+00:00,1.5173590183258,4,Stim_B.csv,Global.csv,Global,B,,,,,,0,Instruct,User,-,"You have completed this section. Please click next.",,Instruct166,1162,,,-1,-1,,,,,1
648868c355e5b891758c5767,wkevrdugd5,Ex2A_Prolific,1,141,2024-02-28T01:01:36+00:00,8.3468699455261,4,Stim_B.csv,Global.csv,Global,B,,,,,,0,Instruct,User,4,"You will now complete a memory test for the words you just studied. Please type as many words from the previous list as you can seperated by a comma. Spelling will not count against you and you can recall the words in any order. This test will be timed for one minute, and the computer will automatically advance once time is up. Click next when you are ready to begin.",,Instruct1666,7519,,,-1,-1,,,,,1
648868c355e5b891758c5767,wkevrdugd5,Ex2A_Prolific,1,142,2024-02-28T01:02:36+00:00,60.454091072083,4,Stim_B.csv,Global.csv,Global,B,,,,,,0,FreeRecall,60,1.25,"Please type as many words as you can from the previous study list in any order. Please separate each word with a comma. Spelling will not count against you. This screen will automatically advance in one minute.",,RECALL_Test,60002,"foam, tire, gloves, bounce, ball, springy",0,895,24698,0,0,,,1
648868c355e5b891758c5767,wkevrdugd5,Ex2A_Prolific,1,143,2024-02-28T01:02:40+00:00,4.2252631187439,4,Stim_B.csv,Global.csv,Global,B,,,,,,0,Instruct,User,3,"You will now be presented with a new study list. Click next when you are ready to begin.",,NEXT_LIST,3856,,,-1,-1,,,,,1
648868c355e5b891758c5767,wkevrdugd5,Ex2A_Prolific,1,144,2024-02-28T01:02:49+00:00,9.0561988353729,4,Stim_B.csv,Global.csv,Global,B,toe,,B1,,,86,Study,User,1.25,,Bread,B1,8594,,,-1,-1,,,,,1
648868c355e5b891758c5767,wkevrdugd5,Ex2A_Prolific,1,145,2024-02-28T01:02:52+00:00,2.4063141345978,4,Stim_B.csv,Global.csv,Global,B,inch,,B2,,,87,Study,User,1.25,,Bread,B2,1920,,,-1,-1,,,,,1
648868c355e5b891758c5767,wkevrdugd5,Ex2A_Prolific,1,146,2024-02-28T01:02:54+00:00,1.9326519966125,4,Stim_B.csv,Global.csv,Global,B,ankle,,B3,,,88,Study,User,1.25,,Bread,B3,1761,,,-1,-1,,,,,1
648868c355e5b891758c5767,wkevrdugd5,Ex2A_Prolific,1,147,2024-02-28T01:02:55+00:00,1.7660319805145,4,Stim_B.csv,Global.csv,Global,B,shoe,,B4,,,89,Study,User,1.25,,Bread,B4,1340,,,-1,-1,,,,,1
648868c355e5b891758c5767,wkevrdugd5,Ex2A_Prolific,1,148,2024-02-28T01:02:58+00:00,2.1991579532623,4,Stim_B.csv,Global.csv,Global,B,sandals,,B5,,,90,Study,User,1.25,,Bread,B5,1603,,,-1,-1,,,,,1
648868c355e5b891758c5767,wkevrdugd5,Ex2A_Prolific,1,149,2024-02-28T01:03:00+00:00,1.945937871933,4,Stim_B.csv,Global.csv,Global,B,sock,,B6,,,91,Study,User,1.25,,Bread,B6,1392,,,-1,-1,,,,,1
648868c355e5b891758c5767,wkevrdugd5,Ex2A_Prolific,1,150,2024-02-28T01:03:02+00:00,2.4367542266846,4,Stim_B.csv,Global.csv,Global,B,hand,,B7,,,92,Study,User,1.25,,Bread,B7,1755,,,-1,-1,,,,,1
648868c355e5b891758c5767,wkevrdugd5,Ex2A_Prolific,1,151,2024-02-28T01:03:04+00:00,1.9257497787476,4,Stim_B.csv,Global.csv,Global,B,boot,,B8,,,93,Study,User,1.25,,Bread,B8,1563,,,-1,-1,,,,,1
648868c355e5b891758c5767,wkevrdugd5,Ex2A_Prolific,1,152,2024-02-28T01:03:07+00:00,3.1877470016479,4,Stim_B.csv,Global.csv,Global,B,yard,,B9,,,94,Study,User,1.25,,Bread,B9,2692,,,-1,-1,,,,,1
648868c355e5b891758c5767,wkevrdugd5,Ex2A_Prolific,1,153,2024-02-28T01:03:09+00:00,1.9878311157227,4,Stim_B.csv,Global.csv,Global,B,kick,,B10,,,95,Study,User,1.25,,Bread,B10,1709,,,-1,-1,,,,,1
648868c355e5b891758c5767,wkevrdugd5,Ex2A_Prolific,1,154,2024-02-28T01:03:11+00:00,1.9910209178925,4,Stim_B.csv,Global.csv,Global,B,knee,,B11,,,96,Study,User,1.25,,Bread,B11,1551,,,-1,-1,,,,,1
648868c355e5b891758c5767,wkevrdugd5,Ex2A_Prolific,1,155,2024-02-28T01:03:13+00:00,1.8609011173248,4,Stim_B.csv,Global.csv,Global,B,walk,,B12,,,97,Study,User,1.25,,Bread,B12,1354,,,-1,-1,,,,,1
648868c355e5b891758c5767,wkevrdugd5,Ex2A_Prolific,1,156,2024-02-28T01:03:17+00:00,3.9225919246674,4,Stim_B.csv,Global.csv,Global,B,,,,,,0,Instruct,User,-,"You have completed this section and will now be asked to judge your ability to remember the list items you just studied. You will have four seconds to type your rating. Please click next to continue.",,Next_List1,3516,,,-1,-1,,,,,1
648868c355e5b891758c5767,wkevrdugd5,Ex2A_Prolific,1,157,2024-02-28T01:03:22+00:00,5.5468509197235,4,Stim_B.csv,Global.csv,Global,B,,,,,,0,JOL_GLOBAL,5,5,"How likely are you to correctly recall each of the items you just studied?|Type your response on a scale from 0-100 and then press Enter (0 = WILL NOT REMEMBER; 100 = DEFINITELY WILL REMEMBER).",Related,JOL8,5002,,,1614,2435,,,,59,1
648868c355e5b891758c5767,wkevrdugd5,Ex2A_Prolific,1,158,2024-02-28T01:03:26+00:00,3.9432752132416,4,Stim_B.csv,Global.csv,Global,B,,,,,,0,Instruct,User,-,"You have completed this section. Please click next.",,Instruct166,3615,,,-1,-1,,,,,1
648868c355e5b891758c5767,wkevrdugd5,Ex2A_Prolific,1,159,2024-02-28T01:03:57+00:00,30.59042596817,4,Stim_B.csv,Global.csv,Global,B,,,,,,0,FreeRecall,30,30,"Please type as many words as you can that begin with the letter ""K"". The computer will automatically advance to the next screen in 30 seconds.",,FILLER,30001,"kite kangaroo korea knife kneel kind ",0,1207,28935,0,0,,,1
648868c355e5b891758c5767,wkevrdugd5,Ex2A_Prolific,1,160,2024-02-28T01:04:03+00:00,5.8946900367737,4,Stim_B.csv,Global.csv,Global,B,,,,,,0,Instruct,User,4,"You have completed this section. Please click next.",,Instruct166,5179,,,-1,-1,,,,,1
648868c355e5b891758c5767,wkevrdugd5,Ex2A_Prolific,1,161,2024-02-28T01:04:08+00:00,5.2655639648438,4,Stim_B.csv,Global.csv,Global,B,,,,,,0,Instruct,User,4,"You will now complete a memory test for the words you just studied. Please type as many words from the previous list as you can seperated by a comma. Spelling will not count against you and you can recall the words in any order. This test will be timed for one minute, and the computer will automatically advance once time is up. Click next when you are ready to begin.",,Instruct1666,4693,,,-1,-1,,,,,1
648868c355e5b891758c5767,wkevrdugd5,Ex2A_Prolific,1,162,2024-02-28T01:05:09+00:00,60.536021947861,4,Stim_B.csv,Global.csv,Global,B,,,,,,0,FreeRecall,60,60,"Please type as many words as you can from the previous study list in any order. Please separate each word with a comma. Spelling will not count against you. This screen will automatically advance in one minute.",,RECALL_Test,60000,"toe, ankle, foot, walking, inch, grow, shoe, sandals, knee",0,627,34053,0,0,,,1
648868c355e5b891758c5767,wkevrdugd5,Ex2A_Prolific,1,163,2024-02-28T01:06:05+00:00,56.839179992676,4,Stim_B.csv,Global.csv,Global,B,,,,,,0,Instruct,User,3,"You will now be presented with a new study list. Click next when you are ready to begin.",,NEXT_LIST,56658,,,-1,-1,,,,,1
648868c355e5b891758c5767,wkevrdugd5,Ex2A_Prolific,1,164,2024-02-28T01:06:08+00:00,2.178200006485,4,Stim_B.csv,Global.csv,Global,B,boy,,F1,,,98,Study,User,1.25,,Flag,F1,1837,,,-1,-1,,,,,1
648868c355e5b891758c5767,wkevrdugd5,Ex2A_Prolific,1,165,2024-02-28T01:06:09+00:00,1.8441119194031,4,Stim_B.csv,Global.csv,Global,B,dolls,,F2,,,99,Study,User,1.25,,Flag,F2,1676,,,-1,-1,,,,,1
648868c355e5b891758c5767,wkevrdugd5,Ex2A_Prolific,1,166,2024-02-28T01:06:11+00:00,1.7499489784241,4,Stim_B.csv,Global.csv,Global,B,pretty,,F3,,,100,Study,User,1.25,,Flag,F3,1357,,,-1,-1,,,,,1
648868c355e5b891758c5767,wkevrdugd5,Ex2A_Prolific,1,167,2024-02-28T01:06:13+00:00,2.2416269779205,4,Stim_B.csv,Global.csv,Global,B,female,,F4,,,101,Study,User,1.25,,Flag,F4,1729,,,-1,-1,,,,,1
648868c355e5b891758c5767,wkevrdugd5,Ex2A_Prolific,1,168,2024-02-28T01:06:16+00:00,2.5997431278229,4,Stim_B.csv,Global.csv,Global,B,dress,,F5,,,102,Study,User,1.25,,Flag,F5,1894,,,-1,-1,,,,,1
648868c355e5b891758c5767,wkevrdugd5,Ex2A_Prolific,1,169,2024-02-28T01:06:18+00:00,1.9756848812103,4,Stim_B.csv,Global.csv,Global,B,date,,F6,,,103,Study,User,1.25,,Flag,F6,1261,,,-1,-1,,,,,1
648868c355e5b891758c5767,wkevrdugd5,Ex2A_Prolific,1,170,2024-02-28T01:06:20+00:00,2.3988749980927,4,Stim_B.csv,Global.csv,Global,B,beautiful,,F7,,,104,Study,User,1.25,,Flag,F7,1925,,,-1,-1,,,,,1
648868c355e5b891758c5767,wkevrdugd5,Ex2A_Prolific,1,171,2024-02-28T01:06:22+00:00,1.8787360191345,4,Stim_B.csv,Global.csv,Global,B,daughter,,F8,,,105,Study,User,1.25,,Flag,F8,1533,,,-1,-1,,,,,1
648868c355e5b891758c5767,wkevrdugd5,Ex2A_Prolific,1,172,2024-02-28T01:06:25+00:00,2.2542161941528,4,Stim_B.csv,Global.csv,Global,B,sister,,F9,,,106,Study,User,1.25,,Flag,F9,1632,,,-1,-1,,,,,1
648868c355e5b891758c5767,wkevrdugd5,Ex2A_Prolific,1,173,2024-02-28T01:06:27+00:00,1.9812278747559,4,Stim_B.csv,Global.csv,Global,B,cute,,F10,,,107,Study,User,1.25,,Flag,F10,1572,,,-1,-1,,,,,1
648868c355e5b891758c5767,wkevrdugd5,Ex2A_Prolific,1,174,2024-02-28T01:06:29+00:00,2.2391819953918,4,Stim_B.csv,Global.csv,Global,B,niece,,F11,,,108,Study,User,1.25,,Flag,F11,1673,,,-1,-1,,,,,1
648868c355e5b891758c5767,wkevrdugd5,Ex2A_Prolific,1,175,2024-02-28T01:06:31+00:00,2.2142000198364,4,Stim_B.csv,Global.csv,Global,B,young,,F12,,,109,Study,User,1.25,,Flag,F12,1827,,,-1,-1,,,,,1
648868c355e5b891758c5767,wkevrdugd5,Ex2A_Prolific,1,176,2024-02-28T01:06:33+00:00,1.9425940513611,4,Stim_B.csv,Global.csv,Global,B,,,,,,0,Instruct,User,-,"You have completed this section and will now be asked to judge your ability to remember the list items you just studied. You will have four seconds to type your rating. Please click next to continue.",,Next_List1,1522,,,-1,-1,,,,,1
648868c355e5b891758c5767,wkevrdugd5,Ex2A_Prolific,1,177,2024-02-28T01:06:38+00:00,5.331151008606,4,Stim_B.csv,Global.csv,Global,B,,,,,,0,JOL_GLOBAL,5,5,"How likely are you to correctly recall each of the items you just studied?|Type your response on a scale from 0-100 and then press Enter (0 = WILL NOT REMEMBER; 100 = DEFINITELY WILL REMEMBER).",Related,JOL9,5001,,,2869,3076,,,,76,1
648868c355e5b891758c5767,wkevrdugd5,Ex2A_Prolific,1,178,2024-02-28T01:06:40+00:00,1.5520639419556,4,Stim_B.csv,Global.csv,Global,B,,,,,,0,Instruct,User,-,"You have completed this section. Please click next.",,Instruct166,1218,,,-1,-1,,,,,1
648868c355e5b891758c5767,wkevrdugd5,Ex2A_Prolific,1,179,2024-02-28T01:07:11+00:00,30.731159925461,4,Stim_B.csv,Global.csv,Global,B,,,,,,0,FreeRecall,30,30,"Please type as many words as you can that begin with the letter ""S"". The computer will automatically advance to the next screen in 30 seconds.",,FILLER,30000,"star south shoe she shout surrender soul starry space sky since sound size see ",0,1481,29654,0,0,,,1
648868c355e5b891758c5767,wkevrdugd5,Ex2A_Prolific,1,180,2024-02-28T01:07:12+00:00,1.7789101600647,4,Stim_B.csv,Global.csv,Global,B,,,,,,0,Instruct,User,-,"You have completed this section. Please click next.",,Instruct166,1384,,,-1,-1,,,,,1
648868c355e5b891758c5767,wkevrdugd5,Ex2A_Prolific,1,181,2024-02-28T01:07:15+00:00,2.8825109004974,4,Stim_B.csv,Global.csv,Global,B,,,,,,0,Instruct,User,1.25,"You will now complete a memory test for the words you just studied. Please type as many words from the previous list as you can seperated by a comma. Spelling will not count against you and you can recall the words in any order. This test will be timed for one minute, and the computer will automatically advance once time is up. Click next when you are ready to begin.",,Instruct1666,2548,,,-1,-1,,,,,1
648868c355e5b891758c5767,wkevrdugd5,Ex2A_Prolific,1,182,2024-02-28T01:08:16+00:00,60.61571097374,4,Stim_B.csv,Global.csv,Global,B,,,,,,0,FreeRecall,60,60,"Please type as many words as you can from the previous study list in any order. Please separate each word with a comma. Spelling will not count against you. This screen will automatically advance in one minute.",,RECALL_Test,60001,"boy, beautiful, niece, cute, daughter, pretty, dolls, sister, nice",0,633,23458,0,0,,,0.979
648868c355e5b891758c5767,wkevrdugd5,Ex2A_Prolific,1,183,2024-02-28T01:08:50+00:00,34.240193128586,4,Stim_B.csv,Global.csv,Global,B,,,,,,0,Instruct,User,3,"You will now be presented with a new study list. Click next when you are ready to begin.",,NEXT_LIST,33937,,,-1,-1,,,,,1
648868c355e5b891758c5767,wkevrdugd5,Ex2A_Prolific,1,184,2024-02-28T01:08:53+00:00,2.5012810230255,4,Stim_B.csv,Global.csv,Global,B,white,,SS1,,,110,Study,User,1.25,,Shirt,SS1,2025,,,-1,-1,,,,,1
648868c355e5b891758c5767,wkevrdugd5,Ex2A_Prolific,1,185,2024-02-28T01:08:54+00:00,1.6421887874603,4,Stim_B.csv,Global.csv,Global,B,gray,,SS2,,,111,Study,User,1.25,,Shirt,SS2,1277,,,-1,-1,,,,,1
648868c355e5b891758c5767,wkevrdugd5,Ex2A_Prolific,1,186,2024-02-28T01:08:56+00:00,2.1921651363373,4,Stim_B.csv,Global.csv,Global,B,brown,,SS3,,,112,Study,User,1.25,,Shirt,SS3,1568,,,-1,-1,,,,,1
648868c355e5b891758c5767,wkevrdugd5,Ex2A_Prolific,1,187,2024-02-28T01:08:58+00:00,1.7594320774078,4,Stim_B.csv,Global.csv,Global,B,coal,,SS4,,,113,Study,User,1.25,,Shirt,SS4,1333,,,-1,-1,,,,,1
648868c355e5b891758c5767,wkevrdugd5,Ex2A_Prolific,1,188,2024-02-28T01:09:01+00:00,2.3404989242554,4,Stim_B.csv,Global.csv,Global,B,dark,,SS5,,,114,Study,User,1.25,,Shirt,SS5,1933,,,-1,-1,,,,,1
648868c355e5b891758c5767,wkevrdugd5,Ex2A_Prolific,1,189,2024-02-28T01:09:03+00:00,1.9925789833069,4,Stim_B.csv,Global.csv,Global,B,color,,SS6,,,115,Study,User,1.25,,Shirt,SS6,1262,,,-1,-1,,,,,1
648868c355e5b891758c5767,wkevrdugd5,Ex2A_Prolific,1,190,2024-02-28T01:09:05+00:00,2.3948600292206,4,Stim_B.csv,Global.csv,Global,B,funeral,,SS7,,,116,Study,User,1.25,,Shirt,SS7,1825,,,-1,-1,,,,,1
648868c355e5b891758c5767,wkevrdugd5,Ex2A_Prolific,1,191,2024-02-28T01:09:07+00:00,1.9802398681641,4,Stim_B.csv,Global.csv,Global,B,blue,,SS8,,,117,Study,User,1.25,,Shirt,SS8,1451,,,-1,-1,,,,,1
648868c355e5b891758c5767,wkevrdugd5,Ex2A_Prolific,1,192,2024-02-28T01:09:10+00:00,3.5190031528473,4,Stim_B.csv,Global.csv,Global,B,charred,,SS9,,,118,Study,User,1.25,,Shirt,SS9,3107,,,-1,-1,,,,,1
648868c355e5b891758c5767,wkevrdugd5,Ex2A_Prolific,1,193,2024-02-28T01:09:12+00:00,1.9848799705505,4,Stim_B.csv,Global.csv,Global,B,ink,,SS10,,,119,Study,User,1.25,,Shirt,SS10,1809,,,-1,-1,,,,,1
648868c355e5b891758c5767,wkevrdugd5,Ex2A_Prolific,1,194,2024-02-28T01:09:15+00:00,2.1314308643341,4,Stim_B.csv,Global.csv,Global,B,death,,SS11,,,120,Study,User,1.25,,Shirt,SS11,1611,,,-1,-1,,,,,1
648868c355e5b891758c5767,wkevrdugd5,Ex2A_Prolific,1,195,2024-02-28T01:09:17+00:00,1.9680349826813,4,Stim_B.csv,Global.csv,Global,B,cat,,SS12,,,121,Study,User,1.25,,Shirt,SS12,1406,,,-1,-1,,,,,1
648868c355e5b891758c5767,wkevrdugd5,Ex2A_Prolific,1,196,2024-02-28T01:09:18+00:00,1.8014330863953,4,Stim_B.csv,Global.csv,Global,B,,,,,,0,Instruct,User,-,"You have completed this section and will now be asked to judge your ability to remember the list items you just studied. You will have four seconds to type your rating. Please click next to continue.",,Next_List1,1542,,,-1,-1,,,,,1
648868c355e5b891758c5767,wkevrdugd5,Ex2A_Prolific,1,197,2024-02-28T01:09:24+00:00,5.2930850982666,4,Stim_B.csv,Global.csv,Global,B,,,,,,0,JOL_GLOBAL,5,5,"How likely are you to correctly recall each of the items you just studied?|Type your response on a scale from 0-100 and then press Enter (0 = WILL NOT REMEMBER; 100 = DEFINITELY WILL REMEMBER).",Related,JOL10,5001,,,2042,2282,,,,77,1
648868c355e5b891758c5767,wkevrdugd5,Ex2A_Prolific,1,198,2024-02-28T01:09:29+00:00,4.9082498550415,4,Stim_B.csv,Global.csv,Global,B,,,,,,0,Instruct,User,4,"You have completed this section. Please click next.",,Instruct166,4642,,,-1,-1,,,,,1
648868c355e5b891758c5767,wkevrdugd5,Ex2A_Prolific,1,199,2024-02-28T01:09:59+00:00,30.523509025574,4,Stim_B.csv,Global.csv,Global,B,,,,,,0,FreeRecall,30,30,"Please type as many words as you can that begin with the letter ""L"". The computer will automatically advance to the next screen in 30 seconds.",,FILLER,30003,"lice lie life lend let least loud less lesbian lest lint lunch low ",0,1446,29366,0,0,,,1
648868c355e5b891758c5767,wkevrdugd5,Ex2A_Prolific,1,200,2024-02-28T01:10:04+00:00,5.3142671585083,4,Stim_B.csv,Global.csv,Global,B,,,,,,0,Instruct,User,4,"You have completed this section. Please click next.",,Instruct166,4713,,,-1,-1,,,,,1
648868c355e5b891758c5767,wkevrdugd5,Ex2A_Prolific,1,201,2024-02-28T01:10:09+00:00,4.920706987381,4,Stim_B.csv,Global.csv,Global,B,,,,,,0,Instruct,User,4,"You will now complete a memory test for the words you just studied. Please type as many words from the previous list as you can seperated by a comma. Spelling will not count against you and you can recall the words in any order. This test will be timed for one minute, and the computer will automatically advance once time is up. Click next when you are ready to begin.",,Instruct1666,4427,,,-1,-1,,,,,1
648868c355e5b891758c5767,wkevrdugd5,Ex2A_Prolific,1,202,2024-02-28T01:11:10+00:00,60.74255490303,4,Stim_B.csv,Global.csv,Global,B,,,,,,0,FreeRecall,60,60,"Please type as many words as you can from the previous study list in any order. Please separate each word with a comma. Spelling will not count against you. This screen will automatically advance in one minute.",,RECALL_Test,60001,"white, grey, funeral, coal, blue, colour, brown",0,1671,30089,0,0,,,0.923
648868c355e5b891758c5767,wkevrdugd5,Ex2A_Prolific,1,203,2024-02-28T01:11:17+00:00,6.7726030349731,4,Stim_B.csv,Global.csv,Global,B,,,,,,0,Instruct,User,-,"You have completed this section. Please click next.",,Instruct7,6585,,,-1,-1,,,,,1
648868c355e5b891758c5767,wkevrdugd5,Ex2A_Prolific,1,204,2024-02-28T01:11:19+00:00,2.7043828964233,4,Stim_B.csv,Global.csv,Global,B,,,,,,0,Instruct,User,-,"The following screen will ask you a few questions abour your experience today. You must complete these questions to receive credit.",,Instruct8,1986,,,-1,-1,,,,,1
