Username,ID,ExperimentName,Session,Trial,Date,TimeDif,"Condition Number","Stimuli File","Order File","Condition Description","Condition Notes",Stimuli*Cue,Stimuli*Answer,Stimuli*Shuffle,"Stimuli*Stimuli Notes",Stimuli*Value,Procedure*Item,"Procedure*Trial Type","Procedure*Max Time","Procedure*Min Time",Procedure*Text,"Procedure*Procedure Notes",Procedure*Shuffle,Response*RT,Response*Response,Response*Accuracy,Response*RTfirst,Response*RTlast,Response*strictAcc,Response*lenientAcc,Response*focus,Response*JOL,Response*Focus
652fe1a6263f72bba81f4247,2ztwi190ic,Ex2A_Prolific,1,1,2024-02-28T22:28:07+00:00,21.31015586853,4,Stim_B.csv,Global.csv,Global,B,,,,,,0,Instruct,-,5,"In this section, you will be presented with a series of words. Please study each word carefully. Your memory will be tested!",Initial_Instruct,Instruct1,19846,,,-1,-1,,,,,1
652fe1a6263f72bba81f4247,2ztwi190ic,Ex2A_Prolific,1,2,2024-02-28T22:28:35+00:00,27.282836914062,4,Stim_B.csv,Global.csv,Global,B,,,,,,0,Instruct,User,5,"After studying each LIST of words, you will be asked to rate your ability to remember ALL of the words in the list on a later test. You will make these ratings using a scale of 0 to 100. A rating of 0 = WILL NOT REMEMBER, while a rating of 100 = WILL DEFINITELY REMEMBER. Please try to be as accurate as possible with these ratings!",,BLIPBLOOP,25941,,,-1,-1,,,,,0.895
652fe1a6263f72bba81f4247,2ztwi190ic,Ex2A_Prolific,1,3,2024-02-28T22:28:40+00:00,5.3615891933441,4,Stim_B.csv,Global.csv,Global,B,,,,,,0,Instruct,User,1.25,"You will now begin the study. Click next when you are ready to begin.",,Instruct16,4261,,,-1,-1,,,,,1
652fe1a6263f72bba81f4247,2ztwi190ic,Ex2A_Prolific,1,4,2024-02-28T22:29:08+00:00,28.025141000748,4,Stim_B.csv,Global.csv,Global,B,aroma,,Win_1,,,2,Study,User,1.25,,Window,Win_1,16998,,,-1,-1,,,,,1
652fe1a6263f72bba81f4247,2ztwi190ic,Ex2A_Prolific,1,5,2024-02-28T22:29:15+00:00,6.5911660194397,4,Stim_B.csv,Global.csv,Global,B,scent,,Win_2,,,3,Study,User,1.25,,Window,Win_2,5297,,,-1,-1,,,,,1
652fe1a6263f72bba81f4247,2ztwi190ic,Ex2A_Prolific,1,6,2024-02-28T22:29:18+00:00,3.3382699489594,4,Stim_B.csv,Global.csv,Global,B,whiff,,Win_3,,,4,Study,User,1.25,,Window,Win_3,2339,,,-1,-1,,,,,1
652fe1a6263f72bba81f4247,2ztwi190ic,Ex2A_Prolific,1,7,2024-02-28T22:29:22+00:00,4.4500079154968,4,Stim_B.csv,Global.csv,Global,B,stench,,Win_4,,,5,Study,User,1.25,,Window,Win_4,2544,,,-1,-1,,,,,1
652fe1a6263f72bba81f4247,2ztwi190ic,Ex2A_Prolific,1,8,2024-02-28T22:29:26+00:00,3.5296320915222,4,Stim_B.csv,Global.csv,Global,B,reek,,Win_5,,,6,Study,User,1.25,,Window,Win_5,2261,,,-1,-1,,,,,1
652fe1a6263f72bba81f4247,2ztwi190ic,Ex2A_Prolific,1,9,2024-02-28T22:29:31+00:00,4.8145170211792,4,Stim_B.csv,Global.csv,Global,B,sniff,,Win_6,,,7,Study,User,1.25,,Window,Win_6,3541,,,-1,-1,,,,,1
652fe1a6263f72bba81f4247,2ztwi190ic,Ex2A_Prolific,1,10,2024-02-28T22:29:34+00:00,3.1660478115082,4,Stim_B.csv,Global.csv,Global,B,perfume,,Win_7,,,8,Study,User,1.25,,Window,Win_7,1964,,,-1,-1,,,,,1
652fe1a6263f72bba81f4247,2ztwi190ic,Ex2A_Prolific,1,11,2024-02-28T22:29:37+00:00,3.2806711196899,4,Stim_B.csv,Global.csv,Global,B,fragrance,,Win_8,,,9,Study,User,1.25,,Window,Win_8,2454,,,-1,-1,,,,,1
652fe1a6263f72bba81f4247,2ztwi190ic,Ex2A_Prolific,1,12,2024-02-28T22:29:40+00:00,3.1960489749908,4,Stim_B.csv,Global.csv,Global,B,nose,,Win_9,,,10,Study,User,1.25,,Window,Win_9,2258,,,-1,-1,,,,,1
652fe1a6263f72bba81f4247,2ztwi190ic,Ex2A_Prolific,1,13,2024-02-28T22:29:44+00:00,3.9317190647125,4,Stim_B.csv,Global.csv,Global,B,rose,,Win_10,,,11,Study,User,1.25,,Window,Win_10,2336,,,-1,-1,,,,,1
652fe1a6263f72bba81f4247,2ztwi190ic,Ex2A_Prolific,1,14,2024-02-28T22:29:48+00:00,3.8070290088654,4,Stim_B.csv,Global.csv,Global,B,salts,,Win_11,,,12,Study,User,1.25,,Window,Win_11,2372,,,-1,-1,,,,,1
652fe1a6263f72bba81f4247,2ztwi190ic,Ex2A_Prolific,1,15,2024-02-28T22:29:53+00:00,4.49276304245,4,Stim_B.csv,Global.csv,Global,B,breathe,,Win_12,,,13,Study,User,1.25,,Window,Win_12,1959,,,-1,-1,,,,,1
652fe1a6263f72bba81f4247,2ztwi190ic,Ex2A_Prolific,1,16,2024-02-28T22:29:59+00:00,6.6206238269806,4,Stim_B.csv,Global.csv,Global,B,,,,,,0,Instruct,User,-,"You have completed this section and will now be asked to judge your ability to remember the list items you just studied. You will have four seconds to type your rating. Please click next to continue.",,Next_List1,5586,,,-1,-1,,,,,1
652fe1a6263f72bba81f4247,2ztwi190ic,Ex2A_Prolific,1,17,2024-02-28T22:30:06+00:00,6.3667540550232,4,Stim_B.csv,Global.csv,Global,B,,,,,,0,JOL_GLOBAL,5,5,"How likely are you to correctly recall each of the items you just studied?|Type your response on a scale from 0-100 and then press Enter (0 = WILL NOT REMEMBER; 100 = DEFINITELY WILL REMEMBER).",Related,JOL1,5006,,,-1,-1,,,,,1
652fe1a6263f72bba81f4247,2ztwi190ic,Ex2A_Prolific,1,18,2024-02-28T22:30:13+00:00,7.2582490444183,4,Stim_B.csv,Global.csv,Global,B,,,,,,0,Instruct,User,4,"You have completed this section. Please click next.",,Instruct166,5757,,,-1,-1,,,,,1
652fe1a6263f72bba81f4247,2ztwi190ic,Ex2A_Prolific,1,19,2024-02-28T22:30:45+00:00,31.722066879272,4,Stim_B.csv,Global.csv,Global,B,,,,,,0,FreeRecall,30,30,"Please type as many words as you can that begin with the letter ""S"". The computer will automatically advance to the next screen in 30 seconds.",,FILLER,30006,"breathe salts rose nose fragra",0,9868,29631,0,0,,,1
652fe1a6263f72bba81f4247,2ztwi190ic,Ex2A_Prolific,1,20,2024-02-28T22:30:51+00:00,6.485139131546,4,Stim_B.csv,Global.csv,Global,B,,,,,,0,Instruct,User,4,"You have completed this section. Please click next.",,Instruct166,5463,,,-1,-1,,,,,1
652fe1a6263f72bba81f4247,2ztwi190ic,Ex2A_Prolific,1,21,2024-02-28T22:31:17+00:00,25.555521965027,4,Stim_B.csv,Global.csv,Global,B,,,,,,0,Instruct,User,4,"You will now complete a memory test for the words you just studied. Please type as many words from the previous list as you can seperated by a comma. Spelling will not count against you and you can recall the words in any order. This test will be timed for one minute, and the computer will automatically advance once time is up. Click next when you are ready to begin.",,Instruct1666,24284,,,-1,-1,,,,,1
652fe1a6263f72bba81f4247,2ztwi190ic,Ex2A_Prolific,1,22,2024-02-28T22:32:18+00:00,61.620827913284,4,Stim_B.csv,Global.csv,Global,B,,,,,,0,FreeRecall,60,60,"Please type as many words as you can from the previous study list in any order. Please separate each word with a comma. Spelling will not count against you. This screen will automatically advance in one minute.",,RECALL_Test,60003,"salts, breathe, nose, rose, fragrance, perfume, sniff, reek, stench, ",0,1325,58238,0,0,,,1
652fe1a6263f72bba81f4247,2ztwi190ic,Ex2A_Prolific,1,23,2024-02-28T22:32:32+00:00,13.803699970245,4,Stim_B.csv,Global.csv,Global,B,,,,,,0,Instruct,User,1.25,"You will now be presented with a new study list. Click next when you are ready to begin.",,NEXT_LIST,12141,,,-1,-1,,,,,1
652fe1a6263f72bba81f4247,2ztwi190ic,Ex2A_Prolific,1,24,2024-02-28T22:32:50+00:00,17.874905109406,4,Stim_B.csv,Global.csv,Global,B,hard,,R1,,,14,Study,User,1.25,,Rough,R1,16348,,,-1,-1,,,,,1
652fe1a6263f72bba81f4247,2ztwi190ic,Ex2A_Prolific,1,25,2024-02-28T22:32:54+00:00,4.17990899086,4,Stim_B.csv,Global.csv,Global,B,loud,,R2,,,15,Study,User,1.25,,Rough,R2,2503,,,-1,-1,,,,,1
652fe1a6263f72bba81f4247,2ztwi190ic,Ex2A_Prolific,1,26,2024-02-28T22:32:58+00:00,3.7007029056549,4,Stim_B.csv,Global.csv,Global,B,tender,,R3,,,16,Study,User,1.25,,Rough,R3,2474,,,-1,-1,,,,,1
652fe1a6263f72bba81f4247,2ztwi190ic,Ex2A_Prolific,1,27,2024-02-28T22:33:02+00:00,4.018107175827,4,Stim_B.csv,Global.csv,Global,B,fluffy,,R4,,,17,Study,User,1.25,,Rough,R4,2944,,,-1,-1,,,,,1
652fe1a6263f72bba81f4247,2ztwi190ic,Ex2A_Prolific,1,28,2024-02-28T22:33:05+00:00,3.5314679145813,4,Stim_B.csv,Global.csv,Global,B,pillow,,R5,,,18,Study,User,1.25,,Rough,R5,2418,,,-1,-1,,,,,1
652fe1a6263f72bba81f4247,2ztwi190ic,Ex2A_Prolific,1,29,2024-02-28T22:33:09+00:00,3.3711349964142,4,Stim_B.csv,Global.csv,Global,B,downy,,R6,,,19,Study,User,1.25,,Rough,R6,2189,,,-1,-1,,,,,1
652fe1a6263f72bba81f4247,2ztwi190ic,Ex2A_Prolific,1,30,2024-02-28T22:33:14+00:00,5.0773150920868,4,Stim_B.csv,Global.csv,Global,B,plush,,R7,,,20,Study,User,1.25,,Rough,R7,2609,,,-1,-1,,,,,1
652fe1a6263f72bba81f4247,2ztwi190ic,Ex2A_Prolific,1,31,2024-02-28T22:33:18+00:00,4.0270278453827,4,Stim_B.csv,Global.csv,Global,B,cotton,,R8,,,21,Study,User,1.25,,Rough,R8,2455,,,-1,-1,,,,,1
652fe1a6263f72bba81f4247,2ztwi190ic,Ex2A_Prolific,1,32,2024-02-28T22:33:22+00:00,4.1531109809875,4,Stim_B.csv,Global.csv,Global,B,skin,,R9,,,22,Study,User,1.25,,Rough,R9,2870,,,-1,-1,,,,,1
652fe1a6263f72bba81f4247,2ztwi190ic,Ex2A_Prolific,1,33,2024-02-28T22:33:26+00:00,3.8841331005096,4,Stim_B.csv,Global.csv,Global,B,fur,,R10,,,23,Study,User,1.25,,Rough,R10,2707,,,-1,-1,,,,,1
652fe1a6263f72bba81f4247,2ztwi190ic,Ex2A_Prolific,1,34,2024-02-28T22:33:30+00:00,4.0556321144104,4,Stim_B.csv,Global.csv,Global,B,touch,,R11,,,24,Study,User,1.25,,Rough,R11,2666,,,-1,-1,,,,,1
652fe1a6263f72bba81f4247,2ztwi190ic,Ex2A_Prolific,1,35,2024-02-28T22:33:34+00:00,4.0038769245148,4,Stim_B.csv,Global.csv,Global,B,furry,,R12,,,25,Study,User,1.25,,Rough,R12,2560,,,-1,-1,,,,,1
652fe1a6263f72bba81f4247,2ztwi190ic,Ex2A_Prolific,1,36,2024-02-28T22:33:40+00:00,5.6390159130096,4,Stim_B.csv,Global.csv,Global,B,,,,,,0,Instruct,User,-,"You have completed this section and will now be asked to judge your ability to remember the list items you just studied. You will have four seconds to type your rating. Please click next to continue.",,Next_List1,4677,,,-1,-1,,,,,1
652fe1a6263f72bba81f4247,2ztwi190ic,Ex2A_Prolific,1,37,2024-02-28T22:33:46+00:00,6.643275976181,4,Stim_B.csv,Global.csv,Global,B,,,,,,0,JOL_GLOBAL,5,5,"How likely are you to correctly recall each of the items you just studied?|Type your response on a scale from 0-100 and then press Enter (0 = WILL NOT REMEMBER; 100 = DEFINITELY WILL REMEMBER).",Unrelated,JOL2,5006,,,1834,2107,,,,80,1
652fe1a6263f72bba81f4247,2ztwi190ic,Ex2A_Prolific,1,38,2024-02-28T22:33:51+00:00,4.4934310913086,4,Stim_B.csv,Global.csv,Global,B,,,,,,0,Instruct,User,-,"You have completed this section. Please click next.",,Instruct166,3455,,,-1,-1,,,,,1
652fe1a6263f72bba81f4247,2ztwi190ic,Ex2A_Prolific,1,39,2024-02-28T22:34:22+00:00,31.343379020691,4,Stim_B.csv,Global.csv,Global,B,,,,,,0,FreeRecall,30,30,"Please type as many words as you can that begin with the letter ""T"". The computer will automatically advance to the next screen in 30 seconds.",,FILLER,30003,"furry, touch, fur, skin, cotten, plush,",0,2404,29546,0,0,,,1
652fe1a6263f72bba81f4247,2ztwi190ic,Ex2A_Prolific,1,40,2024-02-28T22:34:29+00:00,6.6662390232086,4,Stim_B.csv,Global.csv,Global,B,,,,,,0,Instruct,User,4,"You have completed this section. Please click next.",,Instruct166,5886,,,-1,-1,,,,,1
652fe1a6263f72bba81f4247,2ztwi190ic,Ex2A_Prolific,1,41,2024-02-28T22:34:47+00:00,17.75523686409,4,Stim_B.csv,Global.csv,Global,B,,,,,,0,Instruct,User,1.25,"You will now complete a memory test for the words you just studied. Please type as many words from the previous list as you can seperated by a comma. Spelling will not count against you and you can recall the words in any order. This test will be timed for one minute, and the computer will automatically advance once time is up. Click next when you are ready to begin.",,Instruct1666,16121,,,-1,-1,,,,,1
652fe1a6263f72bba81f4247,2ztwi190ic,Ex2A_Prolific,1,42,2024-02-28T22:35:48+00:00,61.578231096268,4,Stim_B.csv,Global.csv,Global,B,,,,,,0,FreeRecall,60,60,"Please type as many words as you can from the previous study list in any order. Please separate each word with a comma. Spelling will not count against you. This screen will automatically advance in one minute.",,RECALL_Test,60005,"furry, touch, fur, skin, cotton, plush, downy, pillow, fluffy, tender, lou",0,1310,59713,0,0,,,1
652fe1a6263f72bba81f4247,2ztwi190ic,Ex2A_Prolific,1,43,2024-02-28T22:36:03+00:00,15.2791659832,4,Stim_B.csv,Global.csv,Global,B,,,,,,0,Instruct,User,3,"You will now be presented with a new study list. Click next when you are ready to begin.",,NEXT_LIST,13429,,,-1,-1,,,,,1
652fe1a6263f72bba81f4247,2ztwi190ic,Ex2A_Prolific,1,44,2024-02-28T22:36:20+00:00,16.241209030151,4,Stim_B.csv,Global.csv,Global,B,honey,,A1,,,26,Study,User,1.25,,Anger,A1,11057,,,-1,-1,,,,,1
652fe1a6263f72bba81f4247,2ztwi190ic,Ex2A_Prolific,1,45,2024-02-28T22:36:23+00:00,3.6684730052948,4,Stim_B.csv,Global.csv,Global,B,bitter,,A2,,,27,Study,User,1.25,,Anger,A2,2363,,,-1,-1,,,,,1
652fe1a6263f72bba81f4247,2ztwi190ic,Ex2A_Prolific,1,46,2024-02-28T22:36:26+00:00,2.7000439167023,4,Stim_B.csv,Global.csv,Global,B,sugar,,A3,,,28,Study,User,1.25,,Anger,A3,1918,,,-1,-1,,,,,1
652fe1a6263f72bba81f4247,2ztwi190ic,Ex2A_Prolific,1,47,2024-02-28T22:36:29+00:00,3.2903051376343,4,Stim_B.csv,Global.csv,Global,B,sour,,A4,,,29,Study,User,1.25,,Anger,A4,1989,,,-1,-1,,,,,1
652fe1a6263f72bba81f4247,2ztwi190ic,Ex2A_Prolific,1,48,2024-02-28T22:36:34+00:00,4.5011439323425,4,Stim_B.csv,Global.csv,Global,B,candy,,A5,,,30,Study,User,1.25,,Anger,A5,2455,,,-1,-1,,,,,1
652fe1a6263f72bba81f4247,2ztwi190ic,Ex2A_Prolific,1,49,2024-02-28T22:36:38+00:00,3.8007318973541,4,Stim_B.csv,Global.csv,Global,B,tart,,A6,,,31,Study,User,1.25,,Anger,A6,2438,,,-1,-1,,,,,1
652fe1a6263f72bba81f4247,2ztwi190ic,Ex2A_Prolific,1,50,2024-02-28T22:36:42+00:00,4.1366400718689,4,Stim_B.csv,Global.csv,Global,B,chocolate,,A7,,,32,Study,User,1.25,,Anger,A7,2501,,,-1,-1,,,,,1
652fe1a6263f72bba81f4247,2ztwi190ic,Ex2A_Prolific,1,51,2024-02-28T22:36:45+00:00,3.7709889411926,4,Stim_B.csv,Global.csv,Global,B,nice,,A8,,,33,Study,User,1.25,,Anger,A8,2466,,,-1,-1,,,,,1
652fe1a6263f72bba81f4247,2ztwi190ic,Ex2A_Prolific,1,52,2024-02-28T22:36:49+00:00,3.519091129303,4,Stim_B.csv,Global.csv,Global,B,taste,,A9,,,34,Study,User,1.25,,Anger,A9,2196,,,-1,-1,,,,,1
652fe1a6263f72bba81f4247,2ztwi190ic,Ex2A_Prolific,1,53,2024-02-28T22:36:53+00:00,3.8833408355713,4,Stim_B.csv,Global.csv,Global,B,cake,,A10,,,35,Study,User,1.25,,Anger,A10,2293,,,-1,-1,,,,,1
652fe1a6263f72bba81f4247,2ztwi190ic,Ex2A_Prolific,1,54,2024-02-28T22:36:56+00:00,3.5781149864197,4,Stim_B.csv,Global.csv,Global,B,good,,A11,,,36,Study,User,1.25,,Anger,A11,2478,,,-1,-1,,,,,1
652fe1a6263f72bba81f4247,2ztwi190ic,Ex2A_Prolific,1,55,2024-02-28T22:37:00+00:00,3.3794209957123,4,Stim_B.csv,Global.csv,Global,B,tooth,,A12,,,37,Study,User,1.25,,Anger,A12,2344,,,-1,-1,,,,,1
652fe1a6263f72bba81f4247,2ztwi190ic,Ex2A_Prolific,1,56,2024-02-28T22:37:28+00:00,28.380647182465,4,Stim_B.csv,Global.csv,Global,B,,,,,,0,Instruct,User,-,"You have completed this section and will now be asked to judge your ability to remember the list items you just studied. You will have four seconds to type your rating. Please click next to continue.",,Next_List1,26693,,,-1,-1,,,,,1
652fe1a6263f72bba81f4247,2ztwi190ic,Ex2A_Prolific,1,57,2024-02-28T22:37:34+00:00,6.2449059486389,4,Stim_B.csv,Global.csv,Global,B,,,,,,0,JOL_GLOBAL,5,5,"How likely are you to correctly recall each of the items you just studied?|Type your response on a scale from 0-100 and then press Enter (0 = WILL NOT REMEMBER; 100 = DEFINITELY WILL REMEMBER).",Related,JOL3,5003,,,935,1422,,,,80,1
652fe1a6263f72bba81f4247,2ztwi190ic,Ex2A_Prolific,1,58,2024-02-28T22:37:37+00:00,3.0254120826721,4,Stim_B.csv,Global.csv,Global,B,,,,,,0,Instruct,User,-,"You have completed this section. Please click next.",,Instruct166,2151,,,-1,-1,,,,,1
652fe1a6263f72bba81f4247,2ztwi190ic,Ex2A_Prolific,1,59,2024-02-28T22:38:09+00:00,31.224968910217,4,Stim_B.csv,Global.csv,Global,B,,,,,,0,FreeRecall,30,30,"Please type as many words as you can that begin with the letter ""L"". The computer will automatically advance to the next screen in 30 seconds.",,FILLER,30005,"tooth good cake taste nice chocolate tart",0,765,27689,0,0,,,1
652fe1a6263f72bba81f4247,2ztwi190ic,Ex2A_Prolific,1,60,2024-02-28T22:38:15+00:00,5.8111670017242,4,Stim_B.csv,Global.csv,Global,B,,,,,,0,Instruct,User,1.25,"You have completed this section. Please click next.",,Instruct166,4468,,,-1,-1,,,,,1
652fe1a6263f72bba81f4247,2ztwi190ic,Ex2A_Prolific,1,61,2024-02-28T22:38:22+00:00,7.5926480293274,4,Stim_B.csv,Global.csv,Global,B,,,,,,0,Instruct,User,4,"You will now complete a memory test for the words you just studied. Please type as many words from the previous list as you can seperated by a comma. Spelling will not count against you and you can recall the words in any order. This test will be timed for one minute, and the computer will automatically advance once time is up. Click next when you are ready to begin.",,Instruct1666,6579,,,-1,-1,,,,,1
652fe1a6263f72bba81f4247,2ztwi190ic,Ex2A_Prolific,1,62,2024-02-28T22:39:23+00:00,61.124423027039,4,Stim_B.csv,Global.csv,Global,B,,,,,,0,FreeRecall,60,60,"Please type as many words as you can from the previous study list in any order. Please separate each word with a comma. Spelling will not count against you. This screen will automatically advance in one minute.",,RECALL_Test,60003,"tooth, good, cake, taste, nice, chocolate, tart, candy, sour, sugar, bitter, hon",0,1627,59782,0,0,,,1
652fe1a6263f72bba81f4247,2ztwi190ic,Ex2A_Prolific,1,63,2024-02-28T22:40:06+00:00,42.595129013062,4,Stim_B.csv,Global.csv,Global,B,,,,,,0,Instruct,User,3,"You will now be presented with a new study list. Click next when you are ready to begin.",,NEXT_LIST,40714,,,-1,-1,,,,,1
652fe1a6263f72bba81f4247,2ztwi190ic,Ex2A_Prolific,1,64,2024-02-28T22:40:15+00:00,9.325642824173,4,Stim_B.csv,Global.csv,Global,B,table,,T1,,,38,Study,User,1.25,,Trash,T1,7794,,,-1,-1,,,,,1
652fe1a6263f72bba81f4247,2ztwi190ic,Ex2A_Prolific,1,65,2024-02-28T22:40:19+00:00,3.3800880908966,4,Stim_B.csv,Global.csv,Global,B,swivel,,T2,,,39,Study,User,1.25,,Trash,T2,2461,,,-1,-1,,,,,1
652fe1a6263f72bba81f4247,2ztwi190ic,Ex2A_Prolific,1,66,2024-02-28T22:40:57+00:00,38.488167047501,4,Stim_B.csv,Global.csv,Global,B,rocking,,T3,,,40,Study,User,1.25,,Trash,T3,37493,,,-1,-1,,,,,1
652fe1a6263f72bba81f4247,2ztwi190ic,Ex2A_Prolific,1,67,2024-02-28T22:41:01+00:00,3.9832310676575,4,Stim_B.csv,Global.csv,Global,B,recliner,,T4,,,41,Study,User,1.25,,Trash,T4,2649,,,-1,-1,,,,,1
652fe1a6263f72bba81f4247,2ztwi190ic,Ex2A_Prolific,1,68,2024-02-28T22:41:05+00:00,3.9388558864594,4,Stim_B.csv,Global.csv,Global,B,seat,,T5,,,42,Study,User,1.25,,Trash,T5,2308,,,-1,-1,,,,,1
652fe1a6263f72bba81f4247,2ztwi190ic,Ex2A_Prolific,1,69,2024-02-28T22:41:10+00:00,5.1961390972137,4,Stim_B.csv,Global.csv,Global,B,stool,,T6,,,43,Study,User,1.25,,Trash,T6,2920,,,-1,-1,,,,,1
652fe1a6263f72bba81f4247,2ztwi190ic,Ex2A_Prolific,1,70,2024-02-28T22:41:14+00:00,3.8110308647156,4,Stim_B.csv,Global.csv,Global,B,desk,,T7,,,44,Study,User,1.25,,Trash,T7,2435,,,-1,-1,,,,,1
652fe1a6263f72bba81f4247,2ztwi190ic,Ex2A_Prolific,1,71,2024-02-28T22:41:17+00:00,3.2464940547943,4,Stim_B.csv,Global.csv,Global,B,couch,,T8,,,45,Study,User,1.25,,Trash,T8,2392,,,-1,-1,,,,,1
652fe1a6263f72bba81f4247,2ztwi190ic,Ex2A_Prolific,1,72,2024-02-28T22:41:21+00:00,3.5922980308533,4,Stim_B.csv,Global.csv,Global,B,sit,,T9,,,46,Study,User,1.25,,Trash,T9,2635,,,-1,-1,,,,,1
652fe1a6263f72bba81f4247,2ztwi190ic,Ex2A_Prolific,1,73,2024-02-28T22:41:24+00:00,3.4123680591583,4,Stim_B.csv,Global.csv,Global,B,sofa,,T10,,,47,Study,User,1.25,,Trash,T10,2386,,,-1,-1,,,,,1
652fe1a6263f72bba81f4247,2ztwi190ic,Ex2A_Prolific,1,74,2024-02-28T22:41:28+00:00,3.5318210124969,4,Stim_B.csv,Global.csv,Global,B,bench,,T11,,,48,Study,User,1.25,,Trash,T11,2579,,,-1,-1,,,,,1
652fe1a6263f72bba81f4247,2ztwi190ic,Ex2A_Prolific,1,75,2024-02-28T22:41:31+00:00,3.2681248188019,4,Stim_B.csv,Global.csv,Global,B,sitting,,T12,,,49,Study,User,1.25,,Trash,T12,2263,,,-1,-1,,,,,1
652fe1a6263f72bba81f4247,2ztwi190ic,Ex2A_Prolific,1,76,2024-02-28T22:41:47+00:00,15.554253101349,4,Stim_B.csv,Global.csv,Global,B,,,,,,0,Instruct,User,-,"You have completed this section and will now be asked to judge your ability to remember the list items you just studied. You will have four seconds to type your rating. Please click next to continue.",,Next_List1,14397,,,-1,-1,,,,,1
652fe1a6263f72bba81f4247,2ztwi190ic,Ex2A_Prolific,1,77,2024-02-28T22:41:53+00:00,5.9584119319916,4,Stim_B.csv,Global.csv,Global,B,,,,,,0,JOL_GLOBAL,5,5,"How likely are you to correctly recall each of the items you just studied?|Type your response on a scale from 0-100 and then press Enter (0 = WILL NOT REMEMBER; 100 = DEFINITELY WILL REMEMBER).",Related,JOL4,5004,,,433,674,,,,80,1
652fe1a6263f72bba81f4247,2ztwi190ic,Ex2A_Prolific,1,78,2024-02-28T22:41:56+00:00,3.1700270175934,4,Stim_B.csv,Global.csv,Global,B,,,,,,0,Instruct,User,-,"You have completed this section. Please click next.",,Instruct166,2138,,,-1,-1,,,,,1
652fe1a6263f72bba81f4247,2ztwi190ic,Ex2A_Prolific,1,79,2024-02-28T22:42:27+00:00,31.493142127991,4,Stim_B.csv,Global.csv,Global,B,,,,,,0,FreeRecall,30,1.25,"Please type as many words as you can that begin with the letter ""N"". The computer will automatically advance to the next screen in 30 seconds.",,FILLER,30003,"sitting bench sofa sit couch",0,2155,22522,0,0,,,1
652fe1a6263f72bba81f4247,2ztwi190ic,Ex2A_Prolific,1,80,2024-02-28T22:42:34+00:00,6.3774058818817,4,Stim_B.csv,Global.csv,Global,B,,,,,,0,Instruct,User,4,"You have completed this section. Please click next.",,Instruct166,4909,,,-1,-1,,,,,1
652fe1a6263f72bba81f4247,2ztwi190ic,Ex2A_Prolific,1,81,2024-02-28T22:42:39+00:00,5.8595070838928,4,Stim_B.csv,Global.csv,Global,B,,,,,,0,Instruct,User,4,"You will now complete a memory test for the words you just studied. Please type as many words from the previous list as you can seperated by a comma. Spelling will not count against you and you can recall the words in any order. This test will be timed for one minute, and the computer will automatically advance once time is up. Click next when you are ready to begin.",,Instruct1666,4965,,,-1,-1,,,,,1
652fe1a6263f72bba81f4247,2ztwi190ic,Ex2A_Prolific,1,82,2024-02-28T22:43:41+00:00,61.119220972061,4,Stim_B.csv,Global.csv,Global,B,,,,,,0,FreeRecall,60,60,"Please type as many words as you can from the previous study list in any order. Please separate each word with a comma. Spelling will not count against you. This screen will automatically advance in one minute.",,RECALL_Test,60004,"sitting, bench, sofa, sit, couch, desk, stool, seat, recliner, rocking, swivel, table.",0,1029,59942,0,0,,,1
652fe1a6263f72bba81f4247,2ztwi190ic,Ex2A_Prolific,1,83,2024-02-28T22:44:14+00:00,33.270268917084,4,Stim_B.csv,Global.csv,Global,B,,,,,,0,Instruct,User,3,"You will now be presented with a new study list. Click next when you are ready to begin.",,NEXT_LIST,32028,,,-1,-1,,,,,1
652fe1a6263f72bba81f4247,2ztwi190ic,Ex2A_Prolific,1,84,2024-02-28T22:44:21+00:00,6.9622349739075,4,Stim_B.csv,Global.csv,Global,B,climber,,D1,,,50,Study,User,1.25,,Doctor,D1,6080,,,-1,-1,,,,,1
652fe1a6263f72bba81f4247,2ztwi190ic,Ex2A_Prolific,1,85,2024-02-28T22:44:25+00:00,3.8402571678162,4,Stim_B.csv,Global.csv,Global,B,hill,,D2,,,51,Study,User,1.25,,Doctor,D2,2179,,,-1,-1,,,,,1
652fe1a6263f72bba81f4247,2ztwi190ic,Ex2A_Prolific,1,86,2024-02-28T22:44:31+00:00,5.9986789226532,4,Stim_B.csv,Global.csv,Global,B,climb,,D3,,,52,Study,User,1.25,,Doctor,D3,4963,,,-1,-1,,,,,1
652fe1a6263f72bba81f4247,2ztwi190ic,Ex2A_Prolific,1,87,2024-02-28T22:44:34+00:00,3.8008570671082,4,Stim_B.csv,Global.csv,Global,B,molehill,,D4,,,53,Study,User,1.25,,Doctor,D4,2439,,,-1,-1,,,,,1
652fe1a6263f72bba81f4247,2ztwi190ic,Ex2A_Prolific,1,88,2024-02-28T22:44:38+00:00,3.2595038414001,4,Stim_B.csv,Global.csv,Global,B,peak,,D5,,,54,Study,User,1.25,,Doctor,D5,2307,,,-1,-1,,,,,1
652fe1a6263f72bba81f4247,2ztwi190ic,Ex2A_Prolific,1,89,2024-02-28T22:44:41+00:00,3.3506669998169,4,Stim_B.csv,Global.csv,Global,B,valley,,D6,,,55,Study,User,1.25,,Doctor,D6,2243,,,-1,-1,,,,,1
652fe1a6263f72bba81f4247,2ztwi190ic,Ex2A_Prolific,1,90,2024-02-28T22:44:45+00:00,4.0402879714966,4,Stim_B.csv,Global.csv,Global,B,summit,,D7,,,56,Study,User,1.25,,Doctor,D7,2484,,,-1,-1,,,,,1
652fe1a6263f72bba81f4247,2ztwi190ic,Ex2A_Prolific,1,91,2024-02-28T22:44:49+00:00,3.8294641971588,4,Stim_B.csv,Global.csv,Global,B,steep,,D8,,,57,Study,User,1.25,,Doctor,D8,2784,,,-1,-1,,,,,1
652fe1a6263f72bba81f4247,2ztwi190ic,Ex2A_Prolific,1,92,2024-02-28T22:44:53+00:00,3.7809889316559,4,Stim_B.csv,Global.csv,Global,B,ski,,D9,,,58,Study,User,1.25,,Doctor,D9,2753,,,-1,-1,,,,,1
652fe1a6263f72bba81f4247,2ztwi190ic,Ex2A_Prolific,1,93,2024-02-28T22:44:56+00:00,3.2792038917542,4,Stim_B.csv,Global.csv,Global,B,bike,,D10,,,59,Study,User,1.25,,Doctor,D10,2218,,,-1,-1,,,,,1
652fe1a6263f72bba81f4247,2ztwi190ic,Ex2A_Prolific,1,94,2024-02-28T22:44:59+00:00,2.9919741153717,4,Stim_B.csv,Global.csv,Global,B,goat,,D11,,,60,Study,User,1.25,,Doctor,D11,2002,,,-1,-1,,,,,1
652fe1a6263f72bba81f4247,2ztwi190ic,Ex2A_Prolific,1,95,2024-02-28T22:45:02+00:00,3.3634638786316,4,Stim_B.csv,Global.csv,Global,B,glacier,,D12,,,61,Study,User,1.25,,Doctor,D12,2147,,,-1,-1,,,,,1
652fe1a6263f72bba81f4247,2ztwi190ic,Ex2A_Prolific,1,96,2024-02-28T22:45:10+00:00,7.4960281848907,4,Stim_B.csv,Global.csv,Global,B,,,,,,0,Instruct,User,-,"You have completed this section and will now be asked to judge your ability to remember the list items you just studied. You will have four seconds to type your rating. Please click next to continue.",,Next_List1,6638,,,-1,-1,,,,,1
652fe1a6263f72bba81f4247,2ztwi190ic,Ex2A_Prolific,1,97,2024-02-28T22:45:16+00:00,6.0988059043884,4,Stim_B.csv,Global.csv,Global,B,,,,,,0,JOL_GLOBAL,5,1.25,"How likely are you to correctly recall each of the items you just studied?|Type your response on a scale from 0-100 and then press Enter (0 = WILL NOT REMEMBER; 100 = DEFINITELY WILL REMEMBER).",Related,JOL5,5006,,,1587,1881,,,,80,1
652fe1a6263f72bba81f4247,2ztwi190ic,Ex2A_Prolific,1,98,2024-02-28T22:47:14+00:00,117.60212087631,4,Stim_B.csv,Global.csv,Global,B,,,,,,0,Instruct,User,-,"You have completed this section. Please click next.",,Instruct166,116431,,,-1,-1,,,,,1
652fe1a6263f72bba81f4247,2ztwi190ic,Ex2A_Prolific,1,99,2024-02-28T22:47:45+00:00,31.197309017181,4,Stim_B.csv,Global.csv,Global,B,,,,,,0,FreeRecall,30,30,"Please type as many words as you can that begin with the letter ""M"". The computer will automatically advance to the next screen in 30 seconds.",,FILLER,30008,"glacier goat bike ski steep summit valley",0,2386,27550,0,0,,,1
652fe1a6263f72bba81f4247,2ztwi190ic,Ex2A_Prolific,1,100,2024-02-28T22:47:54+00:00,8.83660197258,4,Stim_B.csv,Global.csv,Global,B,,,,,,0,Instruct,User,1.25,"You have completed this section. Please click next.",,Instruct166,3281,,,-1,-1,,,,,1
652fe1a6263f72bba81f4247,2ztwi190ic,Ex2A_Prolific,1,101,2024-02-28T22:47:59+00:00,5.8903131484985,4,Stim_B.csv,Global.csv,Global,B,,,,,,0,Instruct,User,4,"You will now complete a memory test for the words you just studied. Please type as many words from the previous list as you can seperated by a comma. Spelling will not count against you and you can recall the words in any order. This test will be timed for one minute, and the computer will automatically advance once time is up. Click next when you are ready to begin.",,Instruct1666,4977,,,-1,-1,,,,,1
652fe1a6263f72bba81f4247,2ztwi190ic,Ex2A_Prolific,1,102,2024-02-28T22:49:01+00:00,61.23219704628,4,Stim_B.csv,Global.csv,Global,B,,,,,,0,FreeRecall,60,60,"Please type as many words as you can from the previous study list in any order. Please separate each word with a comma. Spelling will not count against you. This screen will automatically advance in one minute.",,RECALL_Test,60009,"glacier, goat, bike, ski, steep, summit, valley, peak, molehill, climb, hill, climber.",0,499,59501,0,0,,,1
652fe1a6263f72bba81f4247,2ztwi190ic,Ex2A_Prolific,1,103,2024-02-28T22:51:12+00:00,131.71907997131,4,Stim_B.csv,Global.csv,Global,B,,,,,,0,Instruct,User,3,"You will now be presented with a new study list. Click next when you are ready to begin.",,NEXT_LIST,130573,,,-1,-1,,,,,0.992
652fe1a6263f72bba81f4247,2ztwi190ic,Ex2A_Prolific,1,104,2024-02-28T22:51:19+00:00,6.5013518333435,4,Stim_B.csv,Global.csv,Global,B,band,,S1,,,62,Study,User,1.25,,Slow,S1,5399,,,-1,-1,,,,,1
652fe1a6263f72bba81f4247,2ztwi190ic,Ex2A_Prolific,1,105,2024-02-28T22:51:22+00:00,2.8994631767273,4,Stim_B.csv,Global.csv,Global,B,concert,,S2,,,63,Study,User,1.25,,Slow,S2,2106,,,-1,-1,,,,,1
652fe1a6263f72bba81f4247,2ztwi190ic,Ex2A_Prolific,1,106,2024-02-28T22:51:25+00:00,3.6453468799591,4,Stim_B.csv,Global.csv,Global,B,jazz,,S3,,,64,Study,User,1.25,,Slow,S3,2311,,,-1,-1,,,,,1
652fe1a6263f72bba81f4247,2ztwi190ic,Ex2A_Prolific,1,107,2024-02-28T22:51:29+00:00,3.2512350082397,4,Stim_B.csv,Global.csv,Global,B,symphony,,S4,,,65,Study,User,1.25,,Slow,S4,2357,,,-1,-1,,,,,1
652fe1a6263f72bba81f4247,2ztwi190ic,Ex2A_Prolific,1,108,2024-02-28T22:51:32+00:00,3.6502740383148,4,Stim_B.csv,Global.csv,Global,B,orchestra,,S5,,,66,Study,User,1.25,,Slow,S5,2683,,,-1,-1,,,,,1
652fe1a6263f72bba81f4247,2ztwi190ic,Ex2A_Prolific,1,109,2024-02-28T22:51:36+00:00,3.4292440414429,4,Stim_B.csv,Global.csv,Global,B,rhythm,,S6,,,67,Study,User,1.25,,Slow,S6,2255,,,-1,-1,,,,,1
652fe1a6263f72bba81f4247,2ztwi190ic,Ex2A_Prolific,1,110,2024-02-28T22:51:39+00:00,3.2171399593353,4,Stim_B.csv,Global.csv,Global,B,radio,,S7,,,68,Study,User,1.25,,Slow,S7,2398,,,-1,-1,,,,,1
652fe1a6263f72bba81f4247,2ztwi190ic,Ex2A_Prolific,1,111,2024-02-28T22:51:50+00:00,11.242259979248,4,Stim_B.csv,Global.csv,Global,B,melody,,S8,,,69,Study,User,1.25,,Slow,S8,10138,,,-1,-1,,,,,1
652fe1a6263f72bba81f4247,2ztwi190ic,Ex2A_Prolific,1,112,2024-02-28T22:51:54+00:00,3.7805910110474,4,Stim_B.csv,Global.csv,Global,B,piano,,S9,,,70,Study,User,1.25,,Slow,S9,2456,,,-1,-1,,,,,1
652fe1a6263f72bba81f4247,2ztwi190ic,Ex2A_Prolific,1,113,2024-02-28T22:51:57+00:00,3.4898071289062,4,Stim_B.csv,Global.csv,Global,B,sound,,S10,,,71,Study,User,1.25,,Slow,S10,2586,,,-1,-1,,,,,1
652fe1a6263f72bba81f4247,2ztwi190ic,Ex2A_Prolific,1,114,2024-02-28T22:52:01+00:00,3.5497059822083,4,Stim_B.csv,Global.csv,Global,B,instrument,,S11,,,72,Study,User,1.25,,Slow,S11,2434,,,-1,-1,,,,,1
652fe1a6263f72bba81f4247,2ztwi190ic,Ex2A_Prolific,1,115,2024-02-28T22:52:05+00:00,3.6641600131989,4,Stim_B.csv,Global.csv,Global,B,note,,S12,,,73,Study,User,1.25,,Slow,S12,2200,,,-1,-1,,,,,1
652fe1a6263f72bba81f4247,2ztwi190ic,Ex2A_Prolific,1,116,2024-02-28T22:52:13+00:00,8.4356029033661,4,Stim_B.csv,Global.csv,Global,B,,,,,,0,Instruct,User,-,"You have completed this section and will now be asked to judge your ability to remember the list items you just studied. You will have four seconds to type your rating. Please click next to continue.",,Next_List1,7352,,,-1,-1,,,,,1
652fe1a6263f72bba81f4247,2ztwi190ic,Ex2A_Prolific,1,117,2024-02-28T22:52:19+00:00,5.9141490459442,4,Stim_B.csv,Global.csv,Global,B,,,,,,0,JOL_GLOBAL,5,5,"How likely are you to correctly recall each of the items you just studied?|Type your response on a scale from 0-100 and then press Enter (0 = WILL NOT REMEMBER; 100 = DEFINITELY WILL REMEMBER).",Related,JOL6,5003,,,674,771,,,,80,1
652fe1a6263f72bba81f4247,2ztwi190ic,Ex2A_Prolific,1,118,2024-02-28T22:52:25+00:00,5.6298549175262,4,Stim_B.csv,Global.csv,Global,B,,,,,,0,Instruct,User,-,"You have completed this section. Please click next.",,Instruct166,4496,,,-1,-1,,,,,1
652fe1a6263f72bba81f4247,2ztwi190ic,Ex2A_Prolific,1,119,2024-02-28T22:52:56+00:00,31.121181964874,4,Stim_B.csv,Global.csv,Global,B,,,,,,0,FreeRecall,30,30,"Please type as many words as you can that begin with the letter ""M"". The computer will automatically advance to the next screen in 30 seconds.",,FILLER,30007,"note instrument sound piano melody radio ry",0,1320,29774,0,0,,,1
652fe1a6263f72bba81f4247,2ztwi190ic,Ex2A_Prolific,1,120,2024-02-28T22:53:03+00:00,7.2148859500885,4,Stim_B.csv,Global.csv,Global,B,,,,,,0,Instruct,User,4,"You have completed this section. Please click next.",,Instruct166,6291,,,-1,-1,,,,,1
652fe1a6263f72bba81f4247,2ztwi190ic,Ex2A_Prolific,1,121,2024-02-28T22:53:09+00:00,6.1900930404663,4,Stim_B.csv,Global.csv,Global,B,,,,,,0,Instruct,User,4,"You will now complete a memory test for the words you just studied. Please type as many words from the previous list as you can seperated by a comma. Spelling will not count against you and you can recall the words in any order. This test will be timed for one minute, and the computer will automatically advance once time is up. Click next when you are ready to begin.",,Instruct1666,5227,,,-1,-1,,,,,1
652fe1a6263f72bba81f4247,2ztwi190ic,Ex2A_Prolific,1,122,2024-02-28T22:54:10+00:00,61.166640996933,4,Stim_B.csv,Global.csv,Global,B,,,,,,0,FreeRecall,60,60,"Please type as many words as you can from the previous study list in any order. Please separate each word with a comma. Spelling will not count against you. This screen will automatically advance in one minute.",,RECALL_Test,60010,"note, instrument, sound, piano, melody, radio, rhythm, orchestra, symphony, jazz, concert",0,2316,59210,0,0,,,1
652fe1a6263f72bba81f4247,2ztwi190ic,Ex2A_Prolific,1,123,2024-02-28T22:54:16+00:00,5.4146020412445,4,Stim_B.csv,Global.csv,Global,B,,,,,,0,Instruct,User,3,"You will now be presented with a new study list. Click next when you are ready to begin.",,NEXT_LIST,4106,,,-1,-1,,,,,1
652fe1a6263f72bba81f4247,2ztwi190ic,Ex2A_Prolific,1,124,2024-02-28T22:54:40+00:00,24.036045074463,4,Stim_B.csv,Global.csv,Global,B,foam,,RR1,,,74,Study,User,1.25,,River,RR1,22829,,,-1,-1,,,,,1
652fe1a6263f72bba81f4247,2ztwi190ic,Ex2A_Prolific,1,125,2024-02-28T22:54:44+00:00,3.7146639823914,4,Stim_B.csv,Global.csv,Global,B,latex,,RR2,,,75,Study,User,1.25,,River,RR2,2219,,,-1,-1,,,,,1
652fe1a6263f72bba81f4247,2ztwi190ic,Ex2A_Prolific,1,126,2024-02-28T22:54:46+00:00,2.6109209060669,4,Stim_B.csv,Global.csv,Global,B,galoshes,,RR3,,,76,Study,User,1.25,,River,RR3,1766,,,-1,-1,,,,,1
652fe1a6263f72bba81f4247,2ztwi190ic,Ex2A_Prolific,1,127,2024-02-28T22:54:50+00:00,3.6104891300201,4,Stim_B.csv,Global.csv,Global,B,tire,,RR4,,,77,Study,User,1.25,,River,RR4,2318,,,-1,-1,,,,,1
652fe1a6263f72bba81f4247,2ztwi190ic,Ex2A_Prolific,1,128,2024-02-28T22:54:55+00:00,4.8020050525665,4,Stim_B.csv,Global.csv,Global,B,flexible,,RR5,,,78,Study,User,1.25,,River,RR5,3063,,,-1,-1,,,,,1
652fe1a6263f72bba81f4247,2ztwi190ic,Ex2A_Prolific,1,129,2024-02-28T22:54:58+00:00,3.1468689441681,4,Stim_B.csv,Global.csv,Global,B,elastic,,RR6,,,79,Study,User,1.25,,River,RR6,2146,,,-1,-1,,,,,1
652fe1a6263f72bba81f4247,2ztwi190ic,Ex2A_Prolific,1,130,2024-02-28T22:55:01+00:00,3.1538438796997,4,Stim_B.csv,Global.csv,Global,B,gloves,,RR7,,,80,Study,User,1.25,,River,RR7,2240,,,-1,-1,,,,,1
652fe1a6263f72bba81f4247,2ztwi190ic,Ex2A_Prolific,1,131,2024-02-28T22:55:05+00:00,4.2131531238556,4,Stim_B.csv,Global.csv,Global,B,eraser,,RR8,,,81,Study,User,1.25,,River,RR8,2616,,,-1,-1,,,,,1
652fe1a6263f72bba81f4247,2ztwi190ic,Ex2A_Prolific,1,132,2024-02-28T22:55:09+00:00,3.5511019229889,4,Stim_B.csv,Global.csv,Global,B,bounce,,RR9,,,82,Study,User,1.25,,River,RR9,2510,,,-1,-1,,,,,1
652fe1a6263f72bba81f4247,2ztwi190ic,Ex2A_Prolific,1,133,2024-02-28T22:55:12+00:00,3.2679769992828,4,Stim_B.csv,Global.csv,Global,B,ball,,RR10,,,83,Study,User,1.25,,River,RR10,2446,,,-1,-1,,,,,1
652fe1a6263f72bba81f4247,2ztwi190ic,Ex2A_Prolific,1,134,2024-02-28T22:55:16+00:00,4.0924160480499,4,Stim_B.csv,Global.csv,Global,B,soles,,RR11,,,84,Study,User,1.25,,River,RR11,2559,,,-1,-1,,,,,1
652fe1a6263f72bba81f4247,2ztwi190ic,Ex2A_Prolific,1,135,2024-02-28T22:55:19+00:00,3.2423949241638,4,Stim_B.csv,Global.csv,Global,B,springy,,RR12,,,85,Study,User,1.25,,River,RR12,2432,,,-1,-1,,,,,1
652fe1a6263f72bba81f4247,2ztwi190ic,Ex2A_Prolific,1,136,2024-02-28T22:55:35+00:00,15.996072053909,4,Stim_B.csv,Global.csv,Global,B,,,,,,0,Instruct,User,1.25,"You have completed this section and will now be asked to judge your ability to remember the list items you just studied. You will have four seconds to type your rating. Please click next to continue.",,Next_List1,14587,,,-1,-1,,,,,1
652fe1a6263f72bba81f4247,2ztwi190ic,Ex2A_Prolific,1,137,2024-02-28T22:55:41+00:00,5.9075388908386,4,Stim_B.csv,Global.csv,Global,B,,,,,,0,JOL_GLOBAL,5,5,"How likely are you to correctly recall each of the items you just studied?|Type your response on a scale from 0-100 and then press Enter (0 = WILL NOT REMEMBER; 100 = DEFINITELY WILL REMEMBER).",Related,JOL7,5006,,,752,1004,,,,80,1
652fe1a6263f72bba81f4247,2ztwi190ic,Ex2A_Prolific,1,138,2024-02-28T22:55:56+00:00,14.824983119965,4,Stim_B.csv,Global.csv,Global,B,,,,,,0,Instruct,User,-,"You have completed this section. Please click next.",,Instruct166,13786,,,7719,10737,,,,,1
652fe1a6263f72bba81f4247,2ztwi190ic,Ex2A_Prolific,1,139,2024-02-28T22:56:27+00:00,31.204766988754,4,Stim_B.csv,Global.csv,Global,B,,,,,,0,FreeRecall,30,30,"Please type as many words as you can that begin with the letter ""C"". The computer will automatically advance to the next screen in 30 seconds.",,FILLER,30006,"springy soles ball bounce eraser gloves",0,514,29867,0,0,,,1
652fe1a6263f72bba81f4247,2ztwi190ic,Ex2A_Prolific,1,140,2024-02-28T22:56:34+00:00,6.7052099704742,4,Stim_B.csv,Global.csv,Global,B,,,,,,0,Instruct,User,4,"You have completed this section. Please click next.",,Instruct166,5378,,,-1,-1,,,,,1
652fe1a6263f72bba81f4247,2ztwi190ic,Ex2A_Prolific,1,141,2024-02-28T22:56:40+00:00,5.7720289230347,4,Stim_B.csv,Global.csv,Global,B,,,,,,0,Instruct,User,4,"You will now complete a memory test for the words you just studied. Please type as many words from the previous list as you can seperated by a comma. Spelling will not count against you and you can recall the words in any order. This test will be timed for one minute, and the computer will automatically advance once time is up. Click next when you are ready to begin.",,Instruct1666,4852,,,-1,-1,,,,,1
652fe1a6263f72bba81f4247,2ztwi190ic,Ex2A_Prolific,1,142,2024-02-28T22:57:41+00:00,61.388576030731,4,Stim_B.csv,Global.csv,Global,B,,,,,,0,FreeRecall,60,60,"Please type as many words as you can from the previous study list in any order. Please separate each word with a comma. Spelling will not count against you. This screen will automatically advance in one minute.",,RECALL_Test,60001,"springy, soles, ball, bounce, eraser, gloves, elastic, flexible, tire, galoshes, latex, foam,",0,1582,52056,0,0,,,1
652fe1a6263f72bba81f4247,2ztwi190ic,Ex2A_Prolific,1,143,2024-02-28T22:58:04+00:00,22.566342115402,4,Stim_B.csv,Global.csv,Global,B,,,,,,0,Instruct,User,3,"You will now be presented with a new study list. Click next when you are ready to begin.",,NEXT_LIST,20813,,,-1,-1,,,,,1
652fe1a6263f72bba81f4247,2ztwi190ic,Ex2A_Prolific,1,144,2024-02-28T22:58:11+00:00,7.8090789318085,4,Stim_B.csv,Global.csv,Global,B,toe,,B1,,,86,Study,User,1.25,,Bread,B1,6449,,,-1,-1,,,,,1
652fe1a6263f72bba81f4247,2ztwi190ic,Ex2A_Prolific,1,145,2024-02-28T22:58:16+00:00,4.1501879692078,4,Stim_B.csv,Global.csv,Global,B,inch,,B2,,,87,Study,User,1.25,,Bread,B2,2278,,,-1,-1,,,,,1
652fe1a6263f72bba81f4247,2ztwi190ic,Ex2A_Prolific,1,146,2024-02-28T22:58:20+00:00,4.0067930221558,4,Stim_B.csv,Global.csv,Global,B,ankle,,B3,,,88,Study,User,1.25,,Bread,B3,2843,,,-1,-1,,,,,1
652fe1a6263f72bba81f4247,2ztwi190ic,Ex2A_Prolific,1,147,2024-02-28T22:58:23+00:00,3.7314240932465,4,Stim_B.csv,Global.csv,Global,B,shoe,,B4,,,89,Study,User,1.25,,Bread,B4,2314,,,-1,-1,,,,,1
652fe1a6263f72bba81f4247,2ztwi190ic,Ex2A_Prolific,1,148,2024-02-28T22:58:27+00:00,3.510812997818,4,Stim_B.csv,Global.csv,Global,B,sandals,,B5,,,90,Study,User,1.25,,Bread,B5,2537,,,-1,-1,,,,,1
652fe1a6263f72bba81f4247,2ztwi190ic,Ex2A_Prolific,1,149,2024-02-28T22:58:30+00:00,3.3015999794006,4,Stim_B.csv,Global.csv,Global,B,sock,,B6,,,91,Study,User,1.25,,Bread,B6,2168,,,-1,-1,,,,,1
652fe1a6263f72bba81f4247,2ztwi190ic,Ex2A_Prolific,1,150,2024-02-28T22:58:33+00:00,3.2336318492889,4,Stim_B.csv,Global.csv,Global,B,hand,,B7,,,92,Study,User,1.25,,Bread,B7,2162,,,-1,-1,,,,,1
652fe1a6263f72bba81f4247,2ztwi190ic,Ex2A_Prolific,1,151,2024-02-28T22:58:36+00:00,3.1535081863403,4,Stim_B.csv,Global.csv,Global,B,boot,,B8,,,93,Study,User,1.25,,Bread,B8,2139,,,-1,-1,,,,,1
652fe1a6263f72bba81f4247,2ztwi190ic,Ex2A_Prolific,1,152,2024-02-28T22:58:40+00:00,3.1795618534088,4,Stim_B.csv,Global.csv,Global,B,yard,,B9,,,94,Study,User,1.25,,Bread,B9,2099,,,-1,-1,,,,,1
652fe1a6263f72bba81f4247,2ztwi190ic,Ex2A_Prolific,1,153,2024-02-28T22:58:43+00:00,3.0485441684723,4,Stim_B.csv,Global.csv,Global,B,kick,,B10,,,95,Study,User,1.25,,Bread,B10,1772,,,-1,-1,,,,,1
652fe1a6263f72bba81f4247,2ztwi190ic,Ex2A_Prolific,1,154,2024-02-28T22:58:47+00:00,3.8135318756104,4,Stim_B.csv,Global.csv,Global,B,knee,,B11,,,96,Study,User,1.25,,Bread,B11,2555,,,-1,-1,,,,,1
652fe1a6263f72bba81f4247,2ztwi190ic,Ex2A_Prolific,1,155,2024-02-28T22:58:49+00:00,2.9010779857635,4,Stim_B.csv,Global.csv,Global,B,walk,,B12,,,97,Study,User,1.25,,Bread,B12,1843,,,-1,-1,,,,,1
652fe1a6263f72bba81f4247,2ztwi190ic,Ex2A_Prolific,1,156,2024-02-28T22:58:58+00:00,8.6427099704742,4,Stim_B.csv,Global.csv,Global,B,,,,,,0,Instruct,User,-,"You have completed this section and will now be asked to judge your ability to remember the list items you just studied. You will have four seconds to type your rating. Please click next to continue.",,Next_List1,7076,,,-1,-1,,,,,1
652fe1a6263f72bba81f4247,2ztwi190ic,Ex2A_Prolific,1,157,2024-02-28T22:59:05+00:00,6.4749619960785,4,Stim_B.csv,Global.csv,Global,B,,,,,,0,JOL_GLOBAL,5,5,"How likely are you to correctly recall each of the items you just studied?|Type your response on a scale from 0-100 and then press Enter (0 = WILL NOT REMEMBER; 100 = DEFINITELY WILL REMEMBER).",Related,JOL8,5004,,,1817,2083,,,,80,1
652fe1a6263f72bba81f4247,2ztwi190ic,Ex2A_Prolific,1,158,2024-02-28T22:59:11+00:00,6.4057421684265,4,Stim_B.csv,Global.csv,Global,B,,,,,,0,Instruct,User,4,"You have completed this section. Please click next.",,Instruct166,5316,,,-1,-1,,,,,1
652fe1a6263f72bba81f4247,2ztwi190ic,Ex2A_Prolific,1,159,2024-02-28T22:59:43+00:00,31.559825897217,4,Stim_B.csv,Global.csv,Global,B,,,,,,0,FreeRecall,30,30,"Please type as many words as you can that begin with the letter ""K"". The computer will automatically advance to the next screen in 30 seconds.",,FILLER,30002,"walk knee kick yard boothand sockc",0,2160,29318,0,0,,,1
652fe1a6263f72bba81f4247,2ztwi190ic,Ex2A_Prolific,1,160,2024-02-28T22:59:48+00:00,5.9263560771942,4,Stim_B.csv,Global.csv,Global,B,,,,,,0,Instruct,User,-,"You have completed this section. Please click next.",,Instruct166,4804,,,-1,-1,,,,,1
652fe1a6263f72bba81f4247,2ztwi190ic,Ex2A_Prolific,1,161,2024-02-28T22:59:55+00:00,6.6102540493011,4,Stim_B.csv,Global.csv,Global,B,,,,,,0,Instruct,User,4,"You will now complete a memory test for the words you just studied. Please type as many words from the previous list as you can seperated by a comma. Spelling will not count against you and you can recall the words in any order. This test will be timed for one minute, and the computer will automatically advance once time is up. Click next when you are ready to begin.",,Instruct1666,5292,,,-1,-1,,,,,1
652fe1a6263f72bba81f4247,2ztwi190ic,Ex2A_Prolific,1,162,2024-02-28T23:00:56+00:00,61.385801792145,4,Stim_B.csv,Global.csv,Global,B,,,,,,0,FreeRecall,60,1.25,"Please type as many words as you can from the previous study list in any order. Please separate each word with a comma. Spelling will not count against you. This screen will automatically advance in one minute.",,RECALL_Test,60007,"walk, knee, kick, yard, boot, hand, sock, sandals, shoe, ankle, inch, toe, ",0,641,48771,0,0,,,1
652fe1a6263f72bba81f4247,2ztwi190ic,Ex2A_Prolific,1,163,2024-02-28T23:01:13+00:00,16.595761060715,4,Stim_B.csv,Global.csv,Global,B,,,,,,0,Instruct,User,3,"You will now be presented with a new study list. Click next when you are ready to begin.",,NEXT_LIST,15449,,,-1,-1,,,,,1
652fe1a6263f72bba81f4247,2ztwi190ic,Ex2A_Prolific,1,164,2024-02-28T23:01:22+00:00,9.4504871368408,4,Stim_B.csv,Global.csv,Global,B,boy,,F1,,,98,Study,User,1.25,,Flag,F1,8364,,,-1,-1,,,,,1
652fe1a6263f72bba81f4247,2ztwi190ic,Ex2A_Prolific,1,165,2024-02-28T23:01:26+00:00,3.6595678329468,4,Stim_B.csv,Global.csv,Global,B,dolls,,F2,,,99,Study,User,1.25,,Flag,F2,2576,,,-1,-1,,,,,1
652fe1a6263f72bba81f4247,2ztwi190ic,Ex2A_Prolific,1,166,2024-02-28T23:01:30+00:00,3.5342140197754,4,Stim_B.csv,Global.csv,Global,B,pretty,,F3,,,100,Study,User,1.25,,Flag,F3,2777,,,-1,-1,,,,,1
652fe1a6263f72bba81f4247,2ztwi190ic,Ex2A_Prolific,1,167,2024-02-28T23:01:40+00:00,10.410208940506,4,Stim_B.csv,Global.csv,Global,B,female,,F4,,,101,Study,User,1.25,,Flag,F4,8851,,,-1,-1,,,,,1
652fe1a6263f72bba81f4247,2ztwi190ic,Ex2A_Prolific,1,168,2024-02-28T23:01:43+00:00,3.0153892040253,4,Stim_B.csv,Global.csv,Global,B,dress,,F5,,,102,Study,User,1.25,,Flag,F5,2253,,,-1,-1,,,,,1
652fe1a6263f72bba81f4247,2ztwi190ic,Ex2A_Prolific,1,169,2024-02-28T23:01:46+00:00,3.3396098613739,4,Stim_B.csv,Global.csv,Global,B,date,,F6,,,103,Study,User,1.25,,Flag,F6,2159,,,-1,-1,,,,,1
652fe1a6263f72bba81f4247,2ztwi190ic,Ex2A_Prolific,1,170,2024-02-28T23:01:49+00:00,2.9295020103455,4,Stim_B.csv,Global.csv,Global,B,beautiful,,F7,,,104,Study,User,1.25,,Flag,F7,2020,,,-1,-1,,,,,1
652fe1a6263f72bba81f4247,2ztwi190ic,Ex2A_Prolific,1,171,2024-02-28T23:01:52+00:00,2.8109679222107,4,Stim_B.csv,Global.csv,Global,B,daughter,,F8,,,105,Study,User,1.25,,Flag,F8,1841,,,-1,-1,,,,,1
652fe1a6263f72bba81f4247,2ztwi190ic,Ex2A_Prolific,1,172,2024-02-28T23:01:56+00:00,3.395072221756,4,Stim_B.csv,Global.csv,Global,B,sister,,F9,,,106,Study,User,1.25,,Flag,F9,2170,,,-1,-1,,,,,1
652fe1a6263f72bba81f4247,2ztwi190ic,Ex2A_Prolific,1,173,2024-02-28T23:01:59+00:00,3.4598958492279,4,Stim_B.csv,Global.csv,Global,B,cute,,F10,,,107,Study,User,1.25,,Flag,F10,2222,,,-1,-1,,,,,1
652fe1a6263f72bba81f4247,2ztwi190ic,Ex2A_Prolific,1,174,2024-02-28T23:02:04+00:00,5.2899651527405,4,Stim_B.csv,Global.csv,Global,B,niece,,F11,,,108,Study,User,1.25,,Flag,F11,4376,,,-1,-1,,,,,1
652fe1a6263f72bba81f4247,2ztwi190ic,Ex2A_Prolific,1,175,2024-02-28T23:02:07+00:00,3.040079832077,4,Stim_B.csv,Global.csv,Global,B,young,,F12,,,109,Study,User,1.25,,Flag,F12,2228,,,-1,-1,,,,,1
652fe1a6263f72bba81f4247,2ztwi190ic,Ex2A_Prolific,1,176,2024-02-28T23:02:21+00:00,13.159999132156,4,Stim_B.csv,Global.csv,Global,B,,,,,,0,Instruct,User,-,"You have completed this section and will now be asked to judge your ability to remember the list items you just studied. You will have four seconds to type your rating. Please click next to continue.",,Next_List1,11939,,,-1,-1,,,,,1
652fe1a6263f72bba81f4247,2ztwi190ic,Ex2A_Prolific,1,177,2024-02-28T23:02:27+00:00,6.6530518531799,4,Stim_B.csv,Global.csv,Global,B,,,,,,0,JOL_GLOBAL,5,5,"How likely are you to correctly recall each of the items you just studied?|Type your response on a scale from 0-100 and then press Enter (0 = WILL NOT REMEMBER; 100 = DEFINITELY WILL REMEMBER).",Related,JOL9,5005,,,528,831,,,,80,1
652fe1a6263f72bba81f4247,2ztwi190ic,Ex2A_Prolific,1,178,2024-02-28T23:02:33+00:00,5.4811229705811,4,Stim_B.csv,Global.csv,Global,B,,,,,,0,Instruct,User,-,"You have completed this section. Please click next.",,Instruct166,4327,,,-1,-1,,,,,1
652fe1a6263f72bba81f4247,2ztwi190ic,Ex2A_Prolific,1,179,2024-02-28T23:03:04+00:00,31.380208015442,4,Stim_B.csv,Global.csv,Global,B,,,,,,0,FreeRecall,30,30,"Please type as many words as you can that begin with the letter ""W"". The computer will automatically advance to the next screen in 30 seconds.",,FILLER,30006,"young niece cute sister daughter ",0,1631,28550,0,0,,,1
652fe1a6263f72bba81f4247,2ztwi190ic,Ex2A_Prolific,1,180,2024-02-28T23:03:16+00:00,12.180345058441,4,Stim_B.csv,Global.csv,Global,B,,,,,,0,Instruct,User,4,"You have completed this section. Please click next.",,Instruct166,10128,,,-1,-1,,,,,1
652fe1a6263f72bba81f4247,2ztwi190ic,Ex2A_Prolific,1,181,2024-02-28T23:03:22+00:00,6.0099561214447,4,Stim_B.csv,Global.csv,Global,B,,,,,,0,Instruct,User,4,"You will now complete a memory test for the words you just studied. Please type as many words from the previous list as you can seperated by a comma. Spelling will not count against you and you can recall the words in any order. This test will be timed for one minute, and the computer will automatically advance once time is up. Click next when you are ready to begin.",,Instruct1666,5024,,,-1,-1,,,,,1
652fe1a6263f72bba81f4247,2ztwi190ic,Ex2A_Prolific,1,182,2024-02-28T23:04:24+00:00,61.31632900238,4,Stim_B.csv,Global.csv,Global,B,,,,,,0,FreeRecall,60,60,"Please type as many words as you can from the previous study list in any order. Please separate each word with a comma. Spelling will not count against you. This screen will automatically advance in one minute.",,RECALL_Test,60003,"young, niece, cute, sister, daughter, beautiful, date, dress, female, pretty, dolls, boy",0,5706,56233,0,0,,,1
652fe1a6263f72bba81f4247,2ztwi190ic,Ex2A_Prolific,1,183,2024-02-28T23:04:57+00:00,33.559446811676,4,Stim_B.csv,Global.csv,Global,B,,,,,,0,Instruct,User,3,"You will now be presented with a new study list. Click next when you are ready to begin.",,NEXT_LIST,32440,,,-1,-1,,,,,1
652fe1a6263f72bba81f4247,2ztwi190ic,Ex2A_Prolific,1,184,2024-02-28T23:05:03+00:00,6.376923084259,4,Stim_B.csv,Global.csv,Global,B,white,,SS1,,,110,Study,User,1.25,,Shirt,SS1,5641,,,-1,-1,,,,,1
652fe1a6263f72bba81f4247,2ztwi190ic,Ex2A_Prolific,1,185,2024-02-28T23:05:10+00:00,6.4061079025269,4,Stim_B.csv,Global.csv,Global,B,gray,,SS2,,,111,Study,User,1.25,,Shirt,SS2,2298,,,-1,-1,,,,,1
652fe1a6263f72bba81f4247,2ztwi190ic,Ex2A_Prolific,1,186,2024-02-28T23:05:13+00:00,3.4125730991364,4,Stim_B.csv,Global.csv,Global,B,brown,,SS3,,,112,Study,User,1.25,,Shirt,SS3,2249,,,-1,-1,,,,,1
652fe1a6263f72bba81f4247,2ztwi190ic,Ex2A_Prolific,1,187,2024-02-28T23:05:17+00:00,4.1526980400085,4,Stim_B.csv,Global.csv,Global,B,coal,,SS4,,,113,Study,User,1.25,,Shirt,SS4,2113,,,-1,-1,,,,,1
652fe1a6263f72bba81f4247,2ztwi190ic,Ex2A_Prolific,1,188,2024-02-28T23:05:22+00:00,4.0901980400085,4,Stim_B.csv,Global.csv,Global,B,dark,,SS5,,,114,Study,User,1.25,,Shirt,SS5,2467,,,-1,-1,,,,,1
652fe1a6263f72bba81f4247,2ztwi190ic,Ex2A_Prolific,1,189,2024-02-28T23:05:25+00:00,3.4982919692993,4,Stim_B.csv,Global.csv,Global,B,color,,SS6,,,115,Study,User,1.25,,Shirt,SS6,2192,,,-1,-1,,,,,1
652fe1a6263f72bba81f4247,2ztwi190ic,Ex2A_Prolific,1,190,2024-02-28T23:05:29+00:00,3.5098090171814,4,Stim_B.csv,Global.csv,Global,B,funeral,,SS7,,,116,Study,User,1.25,,Shirt,SS7,2237,,,-1,-1,,,,,1
652fe1a6263f72bba81f4247,2ztwi190ic,Ex2A_Prolific,1,191,2024-02-28T23:05:34+00:00,4.9929478168488,4,Stim_B.csv,Global.csv,Global,B,blue,,SS8,,,117,Study,User,1.25,,Shirt,SS8,3152,,,-1,-1,,,,,1
652fe1a6263f72bba81f4247,2ztwi190ic,Ex2A_Prolific,1,192,2024-02-28T23:05:37+00:00,3.7986631393433,4,Stim_B.csv,Global.csv,Global,B,charred,,SS9,,,118,Study,User,1.25,,Shirt,SS9,2323,,,-1,-1,,,,,1
652fe1a6263f72bba81f4247,2ztwi190ic,Ex2A_Prolific,1,193,2024-02-28T23:05:42+00:00,4.1697549819946,4,Stim_B.csv,Global.csv,Global,B,ink,,SS10,,,119,Study,User,1.25,,Shirt,SS10,1971,,,-1,-1,,,,,1
652fe1a6263f72bba81f4247,2ztwi190ic,Ex2A_Prolific,1,194,2024-02-28T23:05:45+00:00,3.6471428871155,4,Stim_B.csv,Global.csv,Global,B,death,,SS11,,,120,Study,User,1.25,,Shirt,SS11,2166,,,-1,-1,,,,,1
652fe1a6263f72bba81f4247,2ztwi190ic,Ex2A_Prolific,1,195,2024-02-28T23:05:48+00:00,2.7327151298523,4,Stim_B.csv,Global.csv,Global,B,cat,,SS12,,,121,Study,User,1.25,,Shirt,SS12,1895,,,-1,-1,,,,,1
652fe1a6263f72bba81f4247,2ztwi190ic,Ex2A_Prolific,1,196,2024-02-28T23:05:56+00:00,8.4094619750977,4,Stim_B.csv,Global.csv,Global,B,,,,,,0,Instruct,User,-,"You have completed this section and will now be asked to judge your ability to remember the list items you just studied. You will have four seconds to type your rating. Please click next to continue.",,Next_List1,7197,,,-1,-1,,,,,1
652fe1a6263f72bba81f4247,2ztwi190ic,Ex2A_Prolific,1,197,2024-02-28T23:06:03+00:00,6.2165579795837,4,Stim_B.csv,Global.csv,Global,B,,,,,,0,JOL_GLOBAL,5,5,"How likely are you to correctly recall each of the items you just studied?|Type your response on a scale from 0-100 and then press Enter (0 = WILL NOT REMEMBER; 100 = DEFINITELY WILL REMEMBER).",Related,JOL10,5003,,,460,671,,,,80,1
652fe1a6263f72bba81f4247,2ztwi190ic,Ex2A_Prolific,1,198,2024-02-28T23:06:23+00:00,20.49405503273,4,Stim_B.csv,Global.csv,Global,B,,,,,,0,Instruct,User,-,"You have completed this section. Please click next.",,Instruct166,19290,,,-1,-1,,,,,1
652fe1a6263f72bba81f4247,2ztwi190ic,Ex2A_Prolific,1,199,2024-02-28T23:06:54+00:00,31.17217707634,4,Stim_B.csv,Global.csv,Global,B,,,,,,0,FreeRecall,30,30,"Please type as many words as you can that begin with the letter ""R"". The computer will automatically advance to the next screen in 30 seconds.",,FILLER,30007,"cat death ink charred blue funeral",0,1507,28948,0,0,,,1
652fe1a6263f72bba81f4247,2ztwi190ic,Ex2A_Prolific,1,200,2024-02-28T23:07:14+00:00,20.291011810303,4,Stim_B.csv,Global.csv,Global,B,,,,,,0,Instruct,User,4,"You have completed this section. Please click next.",,Instruct166,19062,,,-1,-1,,,,,1
652fe1a6263f72bba81f4247,2ztwi190ic,Ex2A_Prolific,1,201,2024-02-28T23:07:22+00:00,7.791032075882,4,Stim_B.csv,Global.csv,Global,B,,,,,,0,Instruct,User,4,"You will now complete a memory test for the words you just studied. Please type as many words from the previous list as you can seperated by a comma. Spelling will not count against you and you can recall the words in any order. This test will be timed for one minute, and the computer will automatically advance once time is up. Click next when you are ready to begin.",,Instruct1666,6641,,,-1,-1,,,,,1
652fe1a6263f72bba81f4247,2ztwi190ic,Ex2A_Prolific,1,202,2024-02-28T23:08:23+00:00,61.048366069794,4,Stim_B.csv,Global.csv,Global,B,,,,,,0,FreeRecall,60,60,"Please type as many words as you can from the previous study list in any order. Please separate each word with a comma. Spelling will not count against you. This screen will automatically advance in one minute.",,RECALL_Test,60003,"cat, death, ink, charred, blue, funeral, color, dark, coal, brown, gray, white.",0,3287,55105,0,0,,,1
652fe1a6263f72bba81f4247,2ztwi190ic,Ex2A_Prolific,1,203,2024-02-28T23:08:31+00:00,7.5991189479828,4,Stim_B.csv,Global.csv,Global,B,,,,,,0,Instruct,User,-,"You have completed this section. Please click next.",,Instruct7,6492,,,-1,-1,,,,,1
652fe1a6263f72bba81f4247,2ztwi190ic,Ex2A_Prolific,1,204,2024-02-28T23:08:37+00:00,5.9194669723511,4,Stim_B.csv,Global.csv,Global,B,,,,,,0,Instruct,User,-,"The following screen will ask you a few questions abour your experience today. You must complete these questions to receive credit.",,Instruct8,5178,,,-1,-1,,,,,1
