Username,ID,ExperimentName,Session,Trial,Date,TimeDif,"Condition Number","Stimuli File","Order File","Condition Description","Condition Notes",Stimuli*Cue,Stimuli*Answer,Stimuli*Shuffle,"Stimuli*Stimuli Notes",Stimuli*Value,Procedure*Item,"Procedure*Trial Type","Procedure*Max Time","Procedure*Min Time",Procedure*Text,"Procedure*Procedure Notes",Procedure*Shuffle,Response*RT,Response*Response,Response*Accuracy,Response*RTfirst,Response*RTlast,Response*strictAcc,Response*lenientAcc,Response*focus,Response*JOL,Response*Focus
5e3878a934f9ab08e0394edd,7ki2xy8spb,Ex2A_Prolific,1,1,2024-02-29T02:23:41+00:00,7.2477478981018,4,Stim_B.csv,Global.csv,Global,B,,,,,,0,Instruct,-,5,"In this section, you will be presented with a series of words. Please study each word carefully. Your memory will be tested!",Initial_Instruct,Instruct1,6957,,,-1,-1,,,,,1
5e3878a934f9ab08e0394edd,7ki2xy8spb,Ex2A_Prolific,1,2,2024-02-29T02:23:57+00:00,16.532705068588,4,Stim_B.csv,Global.csv,Global,B,,,,,,0,Instruct,User,5,"After studying each LIST of words, you will be asked to rate your ability to remember ALL of the words in the list on a later test. You will make these ratings using a scale of 0 to 100. A rating of 0 = WILL NOT REMEMBER, while a rating of 100 = WILL DEFINITELY REMEMBER. Please try to be as accurate as possible with these ratings!",,BLIPBLOOP,16263,,,-1,-1,,,,,1
5e3878a934f9ab08e0394edd,7ki2xy8spb,Ex2A_Prolific,1,3,2024-02-29T02:24:00+00:00,2.8695991039276,4,Stim_B.csv,Global.csv,Global,B,,,,,,0,Instruct,User,1.25,"You will now begin the study. Click next when you are ready to begin.",,Instruct16,2565,,,-1,-1,,,,,1
5e3878a934f9ab08e0394edd,7ki2xy8spb,Ex2A_Prolific,1,4,2024-02-29T02:24:04+00:00,4.3436839580536,4,Stim_B.csv,Global.csv,Global,B,aroma,,Win_1,,,2,Study,User,1.25,,Window,Win_1,4061,,,-1,-1,,,,,1
5e3878a934f9ab08e0394edd,7ki2xy8spb,Ex2A_Prolific,1,5,2024-02-29T02:24:07+00:00,2.6517009735107,4,Stim_B.csv,Global.csv,Global,B,scent,,Win_2,,,3,Study,User,1.25,,Window,Win_2,2376,,,-1,-1,,,,,1
5e3878a934f9ab08e0394edd,7ki2xy8spb,Ex2A_Prolific,1,6,2024-02-29T02:24:10+00:00,3.274838924408,4,Stim_B.csv,Global.csv,Global,B,whiff,,Win_3,,,4,Study,User,1.25,,Window,Win_3,3004,,,-1,-1,,,,,1
5e3878a934f9ab08e0394edd,7ki2xy8spb,Ex2A_Prolific,1,7,2024-02-29T02:24:14+00:00,4.1500771045685,4,Stim_B.csv,Global.csv,Global,B,stench,,Win_4,,,5,Study,User,1.25,,Window,Win_4,3866,,,-1,-1,,,,,1
5e3878a934f9ab08e0394edd,7ki2xy8spb,Ex2A_Prolific,1,8,2024-02-29T02:24:24+00:00,9.7873139381409,4,Stim_B.csv,Global.csv,Global,B,reek,,Win_5,,,6,Study,User,1.25,,Window,Win_5,9512,,,-1,-1,,,,,1
5e3878a934f9ab08e0394edd,7ki2xy8spb,Ex2A_Prolific,1,9,2024-02-29T02:24:34+00:00,9.3644759654999,4,Stim_B.csv,Global.csv,Global,B,sniff,,Win_6,,,7,Study,User,1.25,,Window,Win_6,9053,,,-1,-1,,,,,1
5e3878a934f9ab08e0394edd,7ki2xy8spb,Ex2A_Prolific,1,10,2024-02-29T02:24:43+00:00,9.1761209964752,4,Stim_B.csv,Global.csv,Global,B,perfume,,Win_7,,,8,Study,User,1.25,,Window,Win_7,8890,,,-1,-1,,,,,1
5e3878a934f9ab08e0394edd,7ki2xy8spb,Ex2A_Prolific,1,11,2024-02-29T02:24:50+00:00,7.7306871414185,4,Stim_B.csv,Global.csv,Global,B,fragrance,,Win_8,,,9,Study,User,1.25,,Window,Win_8,7448,,,-1,-1,,,,,1
5e3878a934f9ab08e0394edd,7ki2xy8spb,Ex2A_Prolific,1,12,2024-02-29T02:24:57+00:00,6.6842248439789,4,Stim_B.csv,Global.csv,Global,B,nose,,Win_9,,,10,Study,User,1.25,,Window,Win_9,6363,,,-1,-1,,,,,0.87
5e3878a934f9ab08e0394edd,7ki2xy8spb,Ex2A_Prolific,1,13,2024-02-29T02:25:02+00:00,4.7606291770935,4,Stim_B.csv,Global.csv,Global,B,rose,,Win_10,,,11,Study,User,1.25,,Window,Win_10,4462,,,-1,-1,,,,,1
5e3878a934f9ab08e0394edd,7ki2xy8spb,Ex2A_Prolific,1,14,2024-02-29T02:25:06+00:00,4.6057348251343,4,Stim_B.csv,Global.csv,Global,B,salts,,Win_11,,,12,Study,User,1.25,,Window,Win_11,4327,,,-1,-1,,,,,1
5e3878a934f9ab08e0394edd,7ki2xy8spb,Ex2A_Prolific,1,15,2024-02-29T02:25:11+00:00,4.5026659965515,4,Stim_B.csv,Global.csv,Global,B,breathe,,Win_12,,,13,Study,User,1.25,,Window,Win_12,4217,,,-1,-1,,,,,1
5e3878a934f9ab08e0394edd,7ki2xy8spb,Ex2A_Prolific,1,16,2024-02-29T02:25:15+00:00,3.9879450798035,4,Stim_B.csv,Global.csv,Global,B,,,,,,0,Instruct,User,-,"You have completed this section and will now be asked to judge your ability to remember the list items you just studied. You will have four seconds to type your rating. Please click next to continue.",,Next_List1,3711,,,-1,-1,,,,,1
5e3878a934f9ab08e0394edd,7ki2xy8spb,Ex2A_Prolific,1,17,2024-02-29T02:25:20+00:00,5.279256105423,4,Stim_B.csv,Global.csv,Global,B,,,,,,0,JOL_GLOBAL,5,5,"How likely are you to correctly recall each of the items you just studied?|Type your response on a scale from 0-100 and then press Enter (0 = WILL NOT REMEMBER; 100 = DEFINITELY WILL REMEMBER).",Related,JOL1,5000,,,-1,-1,,,,,1
5e3878a934f9ab08e0394edd,7ki2xy8spb,Ex2A_Prolific,1,18,2024-02-29T02:25:26+00:00,5.4967319965363,4,Stim_B.csv,Global.csv,Global,B,,,,,,0,Instruct,User,-,"You have completed this section. Please click next.",,Instruct166,5223,,,-1,-1,,,,,1
5e3878a934f9ab08e0394edd,7ki2xy8spb,Ex2A_Prolific,1,19,2024-02-29T02:25:56+00:00,30.288532972336,4,Stim_B.csv,Global.csv,Global,B,,,,,,0,FreeRecall,30,30,"Please type as many words as you can that begin with the letter ""K"". The computer will automatically advance to the next screen in 30 seconds.",,FILLER,30000,"king kiss kill knee kneel know knowledge ",0,6646,25657,0,0,,,1
5e3878a934f9ab08e0394edd,7ki2xy8spb,Ex2A_Prolific,1,20,2024-02-29T02:26:01+00:00,5.0083158016205,4,Stim_B.csv,Global.csv,Global,B,,,,,,0,Instruct,User,4,"You have completed this section. Please click next.",,Instruct166,4712,,,-1,-1,,,,,1
5e3878a934f9ab08e0394edd,7ki2xy8spb,Ex2A_Prolific,1,21,2024-02-29T02:26:20+00:00,19.265389204025,4,Stim_B.csv,Global.csv,Global,B,,,,,,0,Instruct,User,4,"You will now complete a memory test for the words you just studied. Please type as many words from the previous list as you can seperated by a comma. Spelling will not count against you and you can recall the words in any order. This test will be timed for one minute, and the computer will automatically advance once time is up. Click next when you are ready to begin.",,Instruct1666,18992,,,-1,-1,,,,,1
5e3878a934f9ab08e0394edd,7ki2xy8spb,Ex2A_Prolific,1,22,2024-02-29T02:27:21+00:00,60.339435815811,4,Stim_B.csv,Global.csv,Global,B,,,,,,0,FreeRecall,60,60,"Please type as many words as you can from the previous study list in any order. Please separate each word with a comma. Spelling will not count against you. This screen will automatically advance in one minute.",,RECALL_Test,60001,"aroma, scent, stench, reek, sniff, whiff, nose, rose, salts, breathe, perfume, fragrance, ",0,2539,40492,0,0,,,1
5e3878a934f9ab08e0394edd,7ki2xy8spb,Ex2A_Prolific,1,23,2024-02-29T02:27:32+00:00,11.116913080215,4,Stim_B.csv,Global.csv,Global,B,,,,,,0,Instruct,User,3,"You will now be presented with a new study list. Click next when you are ready to begin.",,NEXT_LIST,10576,,,-1,-1,,,,,1
5e3878a934f9ab08e0394edd,7ki2xy8spb,Ex2A_Prolific,1,24,2024-02-29T02:27:36+00:00,3.9870779514313,4,Stim_B.csv,Global.csv,Global,B,hard,,R1,,,14,Study,User,1.25,,Rough,R1,3573,,,-1,-1,,,,,1
5e3878a934f9ab08e0394edd,7ki2xy8spb,Ex2A_Prolific,1,25,2024-02-29T02:27:39+00:00,3.3569920063019,4,Stim_B.csv,Global.csv,Global,B,loud,,R2,,,15,Study,User,1.25,,Rough,R2,3049,,,-1,-1,,,,,1
5e3878a934f9ab08e0394edd,7ki2xy8spb,Ex2A_Prolific,1,26,2024-02-29T02:27:44+00:00,5.1648740768433,4,Stim_B.csv,Global.csv,Global,B,tender,,R3,,,16,Study,User,1.25,,Rough,R3,4895,,,-1,-1,,,,,1
5e3878a934f9ab08e0394edd,7ki2xy8spb,Ex2A_Prolific,1,27,2024-02-29T02:27:48+00:00,3.9696009159088,4,Stim_B.csv,Global.csv,Global,B,fluffy,,R4,,,17,Study,User,1.25,,Rough,R4,3698,,,-1,-1,,,,,1
5e3878a934f9ab08e0394edd,7ki2xy8spb,Ex2A_Prolific,1,28,2024-02-29T02:27:55+00:00,6.2712149620056,4,Stim_B.csv,Global.csv,Global,B,pillow,,R5,,,18,Study,User,1.25,,Rough,R5,5993,,,-1,-1,,,,,1
5e3878a934f9ab08e0394edd,7ki2xy8spb,Ex2A_Prolific,1,29,2024-02-29T02:28:04+00:00,9.5970530509949,4,Stim_B.csv,Global.csv,Global,B,downy,,R6,,,19,Study,User,1.25,,Rough,R6,9310,,,-1,-1,,,,,1
5e3878a934f9ab08e0394edd,7ki2xy8spb,Ex2A_Prolific,1,30,2024-02-29T02:28:18+00:00,13.687814950943,4,Stim_B.csv,Global.csv,Global,B,plush,,R7,,,20,Study,User,1.25,,Rough,R7,13313,,,-1,-1,,,,,1
5e3878a934f9ab08e0394edd,7ki2xy8spb,Ex2A_Prolific,1,31,2024-02-29T02:28:29+00:00,11.378169059753,4,Stim_B.csv,Global.csv,Global,B,cotton,,R8,,,21,Study,User,1.25,,Rough,R8,11077,,,-1,-1,,,,,1
5e3878a934f9ab08e0394edd,7ki2xy8spb,Ex2A_Prolific,1,32,2024-02-29T02:28:42+00:00,12.337747097015,4,Stim_B.csv,Global.csv,Global,B,skin,,R9,,,22,Study,User,1.25,,Rough,R9,12045,,,-1,-1,,,,,1
5e3878a934f9ab08e0394edd,7ki2xy8spb,Ex2A_Prolific,1,33,2024-02-29T02:28:49+00:00,7.9856140613556,4,Stim_B.csv,Global.csv,Global,B,fur,,R10,,,23,Study,User,1.25,,Rough,R10,7484,,,-1,-1,,,,,1
5e3878a934f9ab08e0394edd,7ki2xy8spb,Ex2A_Prolific,1,34,2024-02-29T02:28:55+00:00,5.431932926178,4,Stim_B.csv,Global.csv,Global,B,touch,,R11,,,24,Study,User,1.25,,Rough,R11,5164,,,-1,-1,,,,,1
5e3878a934f9ab08e0394edd,7ki2xy8spb,Ex2A_Prolific,1,35,2024-02-29T02:28:59+00:00,4.0598819255829,4,Stim_B.csv,Global.csv,Global,B,furry,,R12,,,25,Study,User,1.25,,Rough,R12,3778,,,-1,-1,,,,,1
5e3878a934f9ab08e0394edd,7ki2xy8spb,Ex2A_Prolific,1,36,2024-02-29T02:29:04+00:00,5.3819749355316,4,Stim_B.csv,Global.csv,Global,B,,,,,,0,Instruct,User,-,"You have completed this section and will now be asked to judge your ability to remember the list items you just studied. You will have four seconds to type your rating. Please click next to continue.",,Next_List1,5101,,,-1,-1,,,,,1
5e3878a934f9ab08e0394edd,7ki2xy8spb,Ex2A_Prolific,1,37,2024-02-29T02:29:10+00:00,5.3896050453186,4,Stim_B.csv,Global.csv,Global,B,,,,,,0,JOL_GLOBAL,5,5,"How likely are you to correctly recall each of the items you just studied?|Type your response on a scale from 0-100 and then press Enter (0 = WILL NOT REMEMBER; 100 = DEFINITELY WILL REMEMBER).",Unrelated,JOL2,5000,,,3592,3903,,,,50,1
5e3878a934f9ab08e0394edd,7ki2xy8spb,Ex2A_Prolific,1,38,2024-02-29T02:29:15+00:00,5.1698191165924,4,Stim_B.csv,Global.csv,Global,B,,,,,,0,Instruct,User,4,"You have completed this section. Please click next.",,Instruct166,4891,,,-1,-1,,,,,1
5e3878a934f9ab08e0394edd,7ki2xy8spb,Ex2A_Prolific,1,39,2024-02-29T02:29:45+00:00,30.292917013168,4,Stim_B.csv,Global.csv,Global,B,,,,,,0,FreeRecall,30,30,"Please type as many words as you can that begin with the letter ""M"". The computer will automatically advance to the next screen in 30 seconds.",,FILLER,30001,"main, meet, mill, mow, must, moist, mope, mop, mast, make, mad, ",0,2930,28074,0,0,,,1
5e3878a934f9ab08e0394edd,7ki2xy8spb,Ex2A_Prolific,1,40,2024-02-29T02:29:50+00:00,5.0314989089966,4,Stim_B.csv,Global.csv,Global,B,,,,,,0,Instruct,User,4,"You have completed this section. Please click next.",,Instruct166,4752,,,-1,-1,,,,,1
5e3878a934f9ab08e0394edd,7ki2xy8spb,Ex2A_Prolific,1,41,2024-02-29T02:29:56+00:00,5.6294810771942,4,Stim_B.csv,Global.csv,Global,B,,,,,,0,Instruct,User,4,"You will now complete a memory test for the words you just studied. Please type as many words from the previous list as you can seperated by a comma. Spelling will not count against you and you can recall the words in any order. This test will be timed for one minute, and the computer will automatically advance once time is up. Click next when you are ready to begin.",,Instruct1666,5350,,,-1,-1,,,,,1
5e3878a934f9ab08e0394edd,7ki2xy8spb,Ex2A_Prolific,1,42,2024-02-29T02:30:56+00:00,60.297174930573,4,Stim_B.csv,Global.csv,Global,B,,,,,,0,FreeRecall,60,60,"Please type as many words as you can from the previous study list in any order. Please separate each word with a comma. Spelling will not count against you. This screen will automatically advance in one minute.",,RECALL_Test,60000,"hard, loud, tender, pillow, downy, plush, pillow, fur, skin, furry, ",0,2714,34775,0,0,,,1
5e3878a934f9ab08e0394edd,7ki2xy8spb,Ex2A_Prolific,1,43,2024-02-29T02:31:02+00:00,5.6187961101532,4,Stim_B.csv,Global.csv,Global,B,,,,,,0,Instruct,User,3,"You will now be presented with a new study list. Click next when you are ready to begin.",,NEXT_LIST,5246,,,-1,-1,,,,,1
5e3878a934f9ab08e0394edd,7ki2xy8spb,Ex2A_Prolific,1,44,2024-02-29T02:31:05+00:00,2.9795038700104,4,Stim_B.csv,Global.csv,Global,B,honey,,A1,,,26,Study,User,1.25,,Anger,A1,2678,,,-1,-1,,,,,1
5e3878a934f9ab08e0394edd,7ki2xy8spb,Ex2A_Prolific,1,45,2024-02-29T02:31:11+00:00,5.9322791099548,4,Stim_B.csv,Global.csv,Global,B,bitter,,A2,,,27,Study,User,1.25,,Anger,A2,5632,,,-1,-1,,,,,1
5e3878a934f9ab08e0394edd,7ki2xy8spb,Ex2A_Prolific,1,46,2024-02-29T02:31:14+00:00,3.4568989276886,4,Stim_B.csv,Global.csv,Global,B,sugar,,A3,,,28,Study,User,1.25,,Anger,A3,3177,,,-1,-1,,,,,1
5e3878a934f9ab08e0394edd,7ki2xy8spb,Ex2A_Prolific,1,47,2024-02-29T02:31:21+00:00,7.0201349258423,4,Stim_B.csv,Global.csv,Global,B,sour,,A4,,,29,Study,User,1.25,,Anger,A4,6428,,,-1,-1,,,,,1
5e3878a934f9ab08e0394edd,7ki2xy8spb,Ex2A_Prolific,1,48,2024-02-29T02:31:29+00:00,8.0733120441437,4,Stim_B.csv,Global.csv,Global,B,candy,,A5,,,30,Study,User,1.25,,Anger,A5,7798,,,-1,-1,,,,,1
5e3878a934f9ab08e0394edd,7ki2xy8spb,Ex2A_Prolific,1,49,2024-02-29T02:31:36+00:00,6.6187300682068,4,Stim_B.csv,Global.csv,Global,B,tart,,A6,,,31,Study,User,1.25,,Anger,A6,6200,,,-1,-1,,,,,1
5e3878a934f9ab08e0394edd,7ki2xy8spb,Ex2A_Prolific,1,50,2024-02-29T02:31:42+00:00,5.7165658473969,4,Stim_B.csv,Global.csv,Global,B,chocolate,,A7,,,32,Study,User,1.25,,Anger,A7,5438,,,-1,-1,,,,,1
5e3878a934f9ab08e0394edd,7ki2xy8spb,Ex2A_Prolific,1,51,2024-02-29T02:31:52+00:00,10.1435110569,4,Stim_B.csv,Global.csv,Global,B,nice,,A8,,,33,Study,User,1.25,,Anger,A8,9534,,,-1,-1,,,,,1
5e3878a934f9ab08e0394edd,7ki2xy8spb,Ex2A_Prolific,1,52,2024-02-29T02:32:00+00:00,8.0056021213531,4,Stim_B.csv,Global.csv,Global,B,taste,,A9,,,34,Study,User,1.25,,Anger,A9,7736,,,-1,-1,,,,,1
5e3878a934f9ab08e0394edd,7ki2xy8spb,Ex2A_Prolific,1,53,2024-02-29T02:32:03+00:00,2.9304268360138,4,Stim_B.csv,Global.csv,Global,B,cake,,A10,,,35,Study,User,1.25,,Anger,A10,2628,,,-1,-1,,,,,1
5e3878a934f9ab08e0394edd,7ki2xy8spb,Ex2A_Prolific,1,54,2024-02-29T02:32:07+00:00,4.4683620929718,4,Stim_B.csv,Global.csv,Global,B,good,,A11,,,36,Study,User,1.25,,Anger,A11,4198,,,-1,-1,,,,,1
5e3878a934f9ab08e0394edd,7ki2xy8spb,Ex2A_Prolific,1,55,2024-02-29T02:32:12+00:00,4.5921308994293,4,Stim_B.csv,Global.csv,Global,B,tooth,,A12,,,37,Study,User,1.25,,Anger,A12,4309,,,-1,-1,,,,,1
5e3878a934f9ab08e0394edd,7ki2xy8spb,Ex2A_Prolific,1,56,2024-02-29T02:32:15+00:00,3.1630511283875,4,Stim_B.csv,Global.csv,Global,B,,,,,,0,Instruct,User,-,"You have completed this section and will now be asked to judge your ability to remember the list items you just studied. You will have four seconds to type your rating. Please click next to continue.",,Next_List1,2882,,,-1,-1,,,,,1
5e3878a934f9ab08e0394edd,7ki2xy8spb,Ex2A_Prolific,1,57,2024-02-29T02:32:20+00:00,5.2738950252533,4,Stim_B.csv,Global.csv,Global,B,,,,,,0,JOL_GLOBAL,5,5,"How likely are you to correctly recall each of the items you just studied?|Type your response on a scale from 0-100 and then press Enter (0 = WILL NOT REMEMBER; 100 = DEFINITELY WILL REMEMBER).",Related,JOL3,5002,,,1156,1775,,,,100,1
5e3878a934f9ab08e0394edd,7ki2xy8spb,Ex2A_Prolific,1,58,2024-02-29T02:32:25+00:00,4.9259598255157,4,Stim_B.csv,Global.csv,Global,B,,,,,,0,Instruct,User,4,"You have completed this section. Please click next.",,Instruct166,4628,,,-1,-1,,,,,1
5e3878a934f9ab08e0394edd,7ki2xy8spb,Ex2A_Prolific,1,59,2024-02-29T02:32:55+00:00,30.281765222549,4,Stim_B.csv,Global.csv,Global,B,,,,,,0,FreeRecall,30,30,"Please type as many words as you can that begin with the letter ""R"". The computer will automatically advance to the next screen in 30 seconds.",,FILLER,30000,"ride, risk, rye, rile, ripe, road, rake, raise, rat",0,1709,26809,0,0,,,1
5e3878a934f9ab08e0394edd,7ki2xy8spb,Ex2A_Prolific,1,60,2024-02-29T02:33:03+00:00,7.6603059768677,4,Stim_B.csv,Global.csv,Global,B,,,,,,0,Instruct,User,1.25,"You have completed this section. Please click next.",,Instruct166,7381,,,-1,-1,,,,,1
5e3878a934f9ab08e0394edd,7ki2xy8spb,Ex2A_Prolific,1,61,2024-02-29T02:33:06+00:00,2.9096558094025,4,Stim_B.csv,Global.csv,Global,B,,,,,,0,Instruct,User,1.25,"You will now complete a memory test for the words you just studied. Please type as many words from the previous list as you can seperated by a comma. Spelling will not count against you and you can recall the words in any order. This test will be timed for one minute, and the computer will automatically advance once time is up. Click next when you are ready to begin.",,Instruct1666,2633,,,-1,-1,,,,,1
5e3878a934f9ab08e0394edd,7ki2xy8spb,Ex2A_Prolific,1,62,2024-02-29T02:34:06+00:00,60.285966157913,4,Stim_B.csv,Global.csv,Global,B,,,,,,0,FreeRecall,60,60,"Please type as many words as you can from the previous study list in any order. Please separate each word with a comma. Spelling will not count against you. This screen will automatically advance in one minute.",,RECALL_Test,60000,"bitter, sugar, sour, candy, tart, chocolate, nice, good, cake, tooth, ",0,1263,57796,0,0,,,1
5e3878a934f9ab08e0394edd,7ki2xy8spb,Ex2A_Prolific,1,63,2024-02-29T02:34:12+00:00,6.0343699455261,4,Stim_B.csv,Global.csv,Global,B,,,,,,0,Instruct,User,3,"You will now be presented with a new study list. Click next when you are ready to begin.",,NEXT_LIST,5440,,,-1,-1,,,,,0.85
5e3878a934f9ab08e0394edd,7ki2xy8spb,Ex2A_Prolific,1,64,2024-02-29T02:34:16+00:00,3.428416967392,4,Stim_B.csv,Global.csv,Global,B,table,,T1,,,38,Study,User,1.25,,Trash,T1,3096,,,-1,-1,,,,,1
5e3878a934f9ab08e0394edd,7ki2xy8spb,Ex2A_Prolific,1,65,2024-02-29T02:34:19+00:00,3.0204391479492,4,Stim_B.csv,Global.csv,Global,B,swivel,,T2,,,39,Study,User,1.25,,Trash,T2,2731,,,-1,-1,,,,,1
5e3878a934f9ab08e0394edd,7ki2xy8spb,Ex2A_Prolific,1,66,2024-02-29T02:34:22+00:00,3.4724488258362,4,Stim_B.csv,Global.csv,Global,B,rocking,,T3,,,40,Study,User,1.25,,Trash,T3,3185,,,-1,-1,,,,,1
5e3878a934f9ab08e0394edd,7ki2xy8spb,Ex2A_Prolific,1,67,2024-02-29T02:34:30+00:00,7.5576491355896,4,Stim_B.csv,Global.csv,Global,B,recliner,,T4,,,41,Study,User,1.25,,Trash,T4,7284,,,-1,-1,,,,,1
5e3878a934f9ab08e0394edd,7ki2xy8spb,Ex2A_Prolific,1,68,2024-02-29T02:34:34+00:00,4.1470668315887,4,Stim_B.csv,Global.csv,Global,B,seat,,T5,,,42,Study,User,1.25,,Trash,T5,3592,,,-1,-1,,,,,1
5e3878a934f9ab08e0394edd,7ki2xy8spb,Ex2A_Prolific,1,69,2024-02-29T02:34:39+00:00,4.6781561374664,4,Stim_B.csv,Global.csv,Global,B,stool,,T6,,,43,Study,User,1.25,,Trash,T6,4401,,,-1,-1,,,,,1
5e3878a934f9ab08e0394edd,7ki2xy8spb,Ex2A_Prolific,1,70,2024-02-29T02:34:43+00:00,4.0349099636078,4,Stim_B.csv,Global.csv,Global,B,desk,,T7,,,44,Study,User,1.25,,Trash,T7,3727,,,-1,-1,,,,,1
5e3878a934f9ab08e0394edd,7ki2xy8spb,Ex2A_Prolific,1,71,2024-02-29T02:34:46+00:00,3.1084311008453,4,Stim_B.csv,Global.csv,Global,B,couch,,T8,,,45,Study,User,1.25,,Trash,T8,2827,,,-1,-1,,,,,1
5e3878a934f9ab08e0394edd,7ki2xy8spb,Ex2A_Prolific,1,72,2024-02-29T02:34:49+00:00,3.2648329734802,4,Stim_B.csv,Global.csv,Global,B,sit,,T9,,,46,Study,User,1.25,,Trash,T9,2978,,,-1,-1,,,,,1
5e3878a934f9ab08e0394edd,7ki2xy8spb,Ex2A_Prolific,1,73,2024-02-29T02:34:52+00:00,2.909735918045,4,Stim_B.csv,Global.csv,Global,B,sofa,,T10,,,47,Study,User,1.25,,Trash,T10,2616,,,-1,-1,,,,,1
5e3878a934f9ab08e0394edd,7ki2xy8spb,Ex2A_Prolific,1,74,2024-02-29T02:34:55+00:00,3.3799419403076,4,Stim_B.csv,Global.csv,Global,B,bench,,T11,,,48,Study,User,1.25,,Trash,T11,3093,,,-1,-1,,,,,1
5e3878a934f9ab08e0394edd,7ki2xy8spb,Ex2A_Prolific,1,75,2024-02-29T02:34:59+00:00,3.7816100120544,4,Stim_B.csv,Global.csv,Global,B,sitting,,T12,,,49,Study,User,1.25,,Trash,T12,3490,,,-1,-1,,,,,1
5e3878a934f9ab08e0394edd,7ki2xy8spb,Ex2A_Prolific,1,76,2024-02-29T02:35:01+00:00,1.8784551620483,4,Stim_B.csv,Global.csv,Global,B,,,,,,0,Instruct,User,-,"You have completed this section and will now be asked to judge your ability to remember the list items you just studied. You will have four seconds to type your rating. Please click next to continue.",,Next_List1,1595,,,-1,-1,,,,,1
5e3878a934f9ab08e0394edd,7ki2xy8spb,Ex2A_Prolific,1,77,2024-02-29T02:35:06+00:00,5.2841057777405,4,Stim_B.csv,Global.csv,Global,B,,,,,,0,JOL_GLOBAL,5,5,"How likely are you to correctly recall each of the items you just studied?|Type your response on a scale from 0-100 and then press Enter (0 = WILL NOT REMEMBER; 100 = DEFINITELY WILL REMEMBER).",Related,JOL4,5001,,,1746,2140,,,,50,1
5e3878a934f9ab08e0394edd,7ki2xy8spb,Ex2A_Prolific,1,78,2024-02-29T02:35:08+00:00,1.5341210365295,4,Stim_B.csv,Global.csv,Global,B,,,,,,0,Instruct,User,-,"You have completed this section. Please click next.",,Instruct166,1264,,,-1,-1,,,,,1
5e3878a934f9ab08e0394edd,7ki2xy8spb,Ex2A_Prolific,1,79,2024-02-29T02:35:38+00:00,30.620674133301,4,Stim_B.csv,Global.csv,Global,B,,,,,,0,FreeRecall,30,30,"Please type as many words as you can that begin with the letter ""T"". The computer will automatically advance to the next screen in 30 seconds.",,FILLER,30003,"table, task, tooth, tale, tar, toy, text, tax, tone, tall, tap, till",0,2162,29404,0,0,,,1
5e3878a934f9ab08e0394edd,7ki2xy8spb,Ex2A_Prolific,1,80,2024-02-29T02:35:41+00:00,2.3040289878845,4,Stim_B.csv,Global.csv,Global,B,,,,,,0,Instruct,User,-,"You have completed this section. Please click next.",,Instruct166,2007,,,-1,-1,,,,,1
5e3878a934f9ab08e0394edd,7ki2xy8spb,Ex2A_Prolific,1,81,2024-02-29T02:35:46+00:00,4.8680529594421,4,Stim_B.csv,Global.csv,Global,B,,,,,,0,Instruct,User,4,"You will now complete a memory test for the words you just studied. Please type as many words from the previous list as you can seperated by a comma. Spelling will not count against you and you can recall the words in any order. This test will be timed for one minute, and the computer will automatically advance once time is up. Click next when you are ready to begin.",,Instruct1666,4592,,,-1,-1,,,,,1
5e3878a934f9ab08e0394edd,7ki2xy8spb,Ex2A_Prolific,1,82,2024-02-29T02:36:46+00:00,60.406529903412,4,Stim_B.csv,Global.csv,Global,B,,,,,,0,FreeRecall,60,60,"Please type as many words as you can from the previous study list in any order. Please separate each word with a comma. Spelling will not count against you. This screen will automatically advance in one minute.",,RECALL_Test,60001,"table, swivel, recliner, sit, sitting, sofa, couch, seat, desk, ",0,1049,38304,0,0,,,0.953
5e3878a934f9ab08e0394edd,7ki2xy8spb,Ex2A_Prolific,1,83,2024-02-29T02:36:50+00:00,4.3371350765228,4,Stim_B.csv,Global.csv,Global,B,,,,,,0,Instruct,User,3,"You will now be presented with a new study list. Click next when you are ready to begin.",,NEXT_LIST,3815,,,-1,-1,,,,,1
5e3878a934f9ab08e0394edd,7ki2xy8spb,Ex2A_Prolific,1,84,2024-02-29T02:36:57+00:00,6.4003400802612,4,Stim_B.csv,Global.csv,Global,B,climber,,D1,,,50,Study,User,1.25,,Doctor,D1,6108,,,-1,-1,,,,,1
5e3878a934f9ab08e0394edd,7ki2xy8spb,Ex2A_Prolific,1,85,2024-02-29T02:37:01+00:00,4.0095248222351,4,Stim_B.csv,Global.csv,Global,B,hill,,D2,,,51,Study,User,1.25,,Doctor,D2,3729,,,-1,-1,,,,,1
5e3878a934f9ab08e0394edd,7ki2xy8spb,Ex2A_Prolific,1,86,2024-02-29T02:37:05+00:00,4.3632950782776,4,Stim_B.csv,Global.csv,Global,B,climb,,D3,,,52,Study,User,1.25,,Doctor,D3,4064,,,-1,-1,,,,,1
5e3878a934f9ab08e0394edd,7ki2xy8spb,Ex2A_Prolific,1,87,2024-02-29T02:37:09+00:00,3.9350409507751,4,Stim_B.csv,Global.csv,Global,B,molehill,,D4,,,53,Study,User,1.25,,Doctor,D4,3370,,,-1,-1,,,,,1
5e3878a934f9ab08e0394edd,7ki2xy8spb,Ex2A_Prolific,1,88,2024-02-29T02:37:13+00:00,3.6119251251221,4,Stim_B.csv,Global.csv,Global,B,peak,,D5,,,54,Study,User,1.25,,Doctor,D5,2847,,,-1,-1,,,,,1
5e3878a934f9ab08e0394edd,7ki2xy8spb,Ex2A_Prolific,1,89,2024-02-29T02:37:17+00:00,4.7681660652161,4,Stim_B.csv,Global.csv,Global,B,valley,,D6,,,55,Study,User,1.25,,Doctor,D6,4499,,,-1,-1,,,,,1
5e3878a934f9ab08e0394edd,7ki2xy8spb,Ex2A_Prolific,1,90,2024-02-29T02:37:21+00:00,4.0018599033356,4,Stim_B.csv,Global.csv,Global,B,summit,,D7,,,56,Study,User,1.25,,Doctor,D7,3684,,,-1,-1,,,,,1
5e3878a934f9ab08e0394edd,7ki2xy8spb,Ex2A_Prolific,1,91,2024-02-29T02:37:25+00:00,3.3176279067993,4,Stim_B.csv,Global.csv,Global,B,steep,,D8,,,57,Study,User,1.25,,Doctor,D8,3034,,,-1,-1,,,,,1
5e3878a934f9ab08e0394edd,7ki2xy8spb,Ex2A_Prolific,1,92,2024-02-29T02:37:27+00:00,2.786835193634,4,Stim_B.csv,Global.csv,Global,B,ski,,D9,,,58,Study,User,1.25,,Doctor,D9,2507,,,-1,-1,,,,,1
5e3878a934f9ab08e0394edd,7ki2xy8spb,Ex2A_Prolific,1,93,2024-02-29T02:37:30+00:00,2.8934948444366,4,Stim_B.csv,Global.csv,Global,B,bike,,D10,,,59,Study,User,1.25,,Doctor,D10,2589,,,-1,-1,,,,,1
5e3878a934f9ab08e0394edd,7ki2xy8spb,Ex2A_Prolific,1,94,2024-02-29T02:37:37+00:00,6.4413189888,4,Stim_B.csv,Global.csv,Global,B,goat,,D11,,,60,Study,User,1.25,,Doctor,D11,6171,,,-1,-1,,,,,1
5e3878a934f9ab08e0394edd,7ki2xy8spb,Ex2A_Prolific,1,95,2024-02-29T02:37:40+00:00,3.2213931083679,4,Stim_B.csv,Global.csv,Global,B,glacier,,D12,,,61,Study,User,1.25,,Doctor,D12,2934,,,-1,-1,,,,,1
5e3878a934f9ab08e0394edd,7ki2xy8spb,Ex2A_Prolific,1,96,2024-02-29T02:37:43+00:00,2.6036329269409,4,Stim_B.csv,Global.csv,Global,B,,,,,,0,Instruct,User,-,"You have completed this section and will now be asked to judge your ability to remember the list items you just studied. You will have four seconds to type your rating. Please click next to continue.",,Next_List1,2324,,,-1,-1,,,,,1
5e3878a934f9ab08e0394edd,7ki2xy8spb,Ex2A_Prolific,1,97,2024-02-29T02:37:47+00:00,4.5776190757751,4,Stim_B.csv,Global.csv,Global,B,,,,,,0,JOL_GLOBAL,5,1.25,"How likely are you to correctly recall each of the items you just studied?|Type your response on a scale from 0-100 and then press Enter (0 = WILL NOT REMEMBER; 100 = DEFINITELY WILL REMEMBER).",Related,JOL5,4289,,,1926,2828,,,,70,1
5e3878a934f9ab08e0394edd,7ki2xy8spb,Ex2A_Prolific,1,98,2024-02-29T02:37:50+00:00,2.3161618709564,4,Stim_B.csv,Global.csv,Global,B,,,,,,0,Instruct,User,-,"You have completed this section. Please click next.",,Instruct166,2031,,,-1,-1,,,,,1
5e3878a934f9ab08e0394edd,7ki2xy8spb,Ex2A_Prolific,1,99,2024-02-29T02:38:20+00:00,30.292752981186,4,Stim_B.csv,Global.csv,Global,B,,,,,,0,FreeRecall,30,30,"Please type as many words as you can that begin with the letter ""M"". The computer will automatically advance to the next screen in 30 seconds.",,FILLER,30001,"main, mode, mist, moist, man, make, mast, mad, mart, mope, ",0,2211,26490,0,0,,,1
5e3878a934f9ab08e0394edd,7ki2xy8spb,Ex2A_Prolific,1,100,2024-02-29T02:38:22+00:00,2.462678194046,4,Stim_B.csv,Global.csv,Global,B,,,,,,0,Instruct,User,1.25,"You have completed this section. Please click next.",,Instruct166,2167,,,-1,-1,,,,,1
5e3878a934f9ab08e0394edd,7ki2xy8spb,Ex2A_Prolific,1,101,2024-02-29T02:38:27+00:00,5.132040977478,4,Stim_B.csv,Global.csv,Global,B,,,,,,0,Instruct,User,4,"You will now complete a memory test for the words you just studied. Please type as many words from the previous list as you can seperated by a comma. Spelling will not count against you and you can recall the words in any order. This test will be timed for one minute, and the computer will automatically advance once time is up. Click next when you are ready to begin.",,Instruct1666,4545,,,-1,-1,,,,,1
5e3878a934f9ab08e0394edd,7ki2xy8spb,Ex2A_Prolific,1,102,2024-02-29T02:39:24+00:00,56.853978872299,4,Stim_B.csv,Global.csv,Global,B,,,,,,0,FreeRecall,60,1.25,"Please type as many words as you can from the previous study list in any order. Please separate each word with a comma. Spelling will not count against you. This screen will automatically advance in one minute.",,RECALL_Test,56583,"peak, valley, summit, ski, bike, hill, molehill, climb, climber",0,2268,35880,0,0,,,1
5e3878a934f9ab08e0394edd,7ki2xy8spb,Ex2A_Prolific,1,103,2024-02-29T02:39:29+00:00,4.4196801185608,4,Stim_B.csv,Global.csv,Global,B,,,,,,0,Instruct,User,3,"You will now be presented with a new study list. Click next when you are ready to begin.",,NEXT_LIST,4012,,,-1,-1,,,,,1
5e3878a934f9ab08e0394edd,7ki2xy8spb,Ex2A_Prolific,1,104,2024-02-29T02:39:35+00:00,6.2904570102692,4,Stim_B.csv,Global.csv,Global,B,band,,S1,,,62,Study,User,1.25,,Slow,S1,6002,,,-1,-1,,,,,0.643
5e3878a934f9ab08e0394edd,7ki2xy8spb,Ex2A_Prolific,1,105,2024-02-29T02:39:39+00:00,4.1759159564972,4,Stim_B.csv,Global.csv,Global,B,concert,,S2,,,63,Study,User,1.25,,Slow,S2,3839,,,-1,-1,,,,,0.8
5e3878a934f9ab08e0394edd,7ki2xy8spb,Ex2A_Prolific,1,106,2024-02-29T02:39:42+00:00,3.0081079006195,4,Stim_B.csv,Global.csv,Global,B,jazz,,S3,,,64,Study,User,1.25,,Slow,S3,2725,,,-1,-1,,,,,1
5e3878a934f9ab08e0394edd,7ki2xy8spb,Ex2A_Prolific,1,107,2024-02-29T02:39:46+00:00,3.5905060768127,4,Stim_B.csv,Global.csv,Global,B,symphony,,S4,,,65,Study,User,1.25,,Slow,S4,3312,,,-1,-1,,,,,1
5e3878a934f9ab08e0394edd,7ki2xy8spb,Ex2A_Prolific,1,108,2024-02-29T02:39:50+00:00,4.5090880393982,4,Stim_B.csv,Global.csv,Global,B,orchestra,,S5,,,66,Study,User,1.25,,Slow,S5,4234,,,-1,-1,,,,,1
5e3878a934f9ab08e0394edd,7ki2xy8spb,Ex2A_Prolific,1,109,2024-02-29T02:39:58+00:00,7.3884649276733,4,Stim_B.csv,Global.csv,Global,B,rhythm,,S6,,,67,Study,User,1.25,,Slow,S6,7108,,,-1,-1,,,,,1
5e3878a934f9ab08e0394edd,7ki2xy8spb,Ex2A_Prolific,1,110,2024-02-29T02:40:01+00:00,3.3412170410156,4,Stim_B.csv,Global.csv,Global,B,radio,,S7,,,68,Study,User,1.25,,Slow,S7,3043,,,-1,-1,,,,,0.688
5e3878a934f9ab08e0394edd,7ki2xy8spb,Ex2A_Prolific,1,111,2024-02-29T02:40:06+00:00,4.800036907196,4,Stim_B.csv,Global.csv,Global,B,melody,,S8,,,69,Study,User,1.25,,Slow,S8,4508,,,-1,-1,,,,,1
5e3878a934f9ab08e0394edd,7ki2xy8spb,Ex2A_Prolific,1,112,2024-02-29T02:40:10+00:00,3.7247631549835,4,Stim_B.csv,Global.csv,Global,B,piano,,S9,,,70,Study,User,1.25,,Slow,S9,3449,,,-1,-1,,,,,0.778
5e3878a934f9ab08e0394edd,7ki2xy8spb,Ex2A_Prolific,1,113,2024-02-29T02:40:14+00:00,4.162134885788,4,Stim_B.csv,Global.csv,Global,B,sound,,S10,,,71,Study,User,1.25,,Slow,S10,3878,,,-1,-1,,,,,0.6
5e3878a934f9ab08e0394edd,7ki2xy8spb,Ex2A_Prolific,1,114,2024-02-29T02:40:16+00:00,2.4123029708862,4,Stim_B.csv,Global.csv,Global,B,instrument,,S11,,,72,Study,User,1.25,,Slow,S11,2126,,,-1,-1,,,,,1
5e3878a934f9ab08e0394edd,7ki2xy8spb,Ex2A_Prolific,1,115,2024-02-29T02:40:19+00:00,3.2291190624237,4,Stim_B.csv,Global.csv,Global,B,note,,S12,,,73,Study,User,1.25,,Slow,S12,2943,,,-1,-1,,,,,0.8
5e3878a934f9ab08e0394edd,7ki2xy8spb,Ex2A_Prolific,1,116,2024-02-29T02:40:21+00:00,1.6108140945435,4,Stim_B.csv,Global.csv,Global,B,,,,,,0,Instruct,User,-,"You have completed this section and will now be asked to judge your ability to remember the list items you just studied. You will have four seconds to type your rating. Please click next to continue.",,Next_List1,1319,,,-1,-1,,,,,1
5e3878a934f9ab08e0394edd,7ki2xy8spb,Ex2A_Prolific,1,117,2024-02-29T02:40:26+00:00,5.2800099849701,4,Stim_B.csv,Global.csv,Global,B,,,,,,0,JOL_GLOBAL,5,5,"How likely are you to correctly recall each of the items you just studied?|Type your response on a scale from 0-100 and then press Enter (0 = WILL NOT REMEMBER; 100 = DEFINITELY WILL REMEMBER).",Related,JOL6,5001,,,2491,2615,,,,30,1
5e3878a934f9ab08e0394edd,7ki2xy8spb,Ex2A_Prolific,1,118,2024-02-29T02:40:28+00:00,1.627781867981,4,Stim_B.csv,Global.csv,Global,B,,,,,,0,Instruct,User,-,"You have completed this section. Please click next.",,Instruct166,1353,,,-1,-1,,,,,1
5e3878a934f9ab08e0394edd,7ki2xy8spb,Ex2A_Prolific,1,119,2024-02-29T02:40:58+00:00,30.277920007706,4,Stim_B.csv,Global.csv,Global,B,,,,,,0,FreeRecall,30,1.25,"Please type as many words as you can that begin with the letter ""N"". The computer will automatically advance to the next screen in 30 seconds.",,FILLER,30000,"nice, note, nap, no, north, nape, nut, nit, nab, ",0,1894,28202,0,0,,,1
5e3878a934f9ab08e0394edd,7ki2xy8spb,Ex2A_Prolific,1,120,2024-02-29T02:41:04+00:00,5.6446039676666,4,Stim_B.csv,Global.csv,Global,B,,,,,,0,Instruct,User,4,"You have completed this section. Please click next.",,Instruct166,5361,,,-1,-1,,,,,1
5e3878a934f9ab08e0394edd,7ki2xy8spb,Ex2A_Prolific,1,121,2024-02-29T02:41:09+00:00,5.1229610443115,4,Stim_B.csv,Global.csv,Global,B,,,,,,0,Instruct,User,4,"You will now complete a memory test for the words you just studied. Please type as many words from the previous list as you can seperated by a comma. Spelling will not count against you and you can recall the words in any order. This test will be timed for one minute, and the computer will automatically advance once time is up. Click next when you are ready to begin.",,Instruct1666,4839,,,-1,-1,,,,,1
5e3878a934f9ab08e0394edd,7ki2xy8spb,Ex2A_Prolific,1,122,2024-02-29T02:42:09+00:00,60.307865142822,4,Stim_B.csv,Global.csv,Global,B,,,,,,0,FreeRecall,60,60,"Please type as many words as you can from the previous study list in any order. Please separate each word with a comma. Spelling will not count against you. This screen will automatically advance in one minute.",,RECALL_Test,60001,"band, concert, jazz, symphony, orchestra, note, instrument, sound, rhythm, ",0,1808,39847,0,0,,,0.986
5e3878a934f9ab08e0394edd,7ki2xy8spb,Ex2A_Prolific,1,123,2024-02-29T02:42:14+00:00,5.2653949260712,4,Stim_B.csv,Global.csv,Global,B,,,,,,0,Instruct,User,1.25,"You will now be presented with a new study list. Click next when you are ready to begin.",,NEXT_LIST,4936,,,-1,-1,,,,,1
5e3878a934f9ab08e0394edd,7ki2xy8spb,Ex2A_Prolific,1,124,2024-02-29T02:42:17+00:00,2.0563728809357,4,Stim_B.csv,Global.csv,Global,B,foam,,RR1,,,74,Study,User,1.25,,River,RR1,1733,,,-1,-1,,,,,1
5e3878a934f9ab08e0394edd,7ki2xy8spb,Ex2A_Prolific,1,125,2024-02-29T02:42:20+00:00,3.7025849819183,4,Stim_B.csv,Global.csv,Global,B,latex,,RR2,,,75,Study,User,1.25,,River,RR2,3346,,,-1,-1,,,,,1
5e3878a934f9ab08e0394edd,7ki2xy8spb,Ex2A_Prolific,1,126,2024-02-29T02:42:23+00:00,2.505154132843,4,Stim_B.csv,Global.csv,Global,B,galoshes,,RR3,,,76,Study,User,1.25,,River,RR3,2031,,,-1,-1,,,,,1
5e3878a934f9ab08e0394edd,7ki2xy8spb,Ex2A_Prolific,1,127,2024-02-29T02:42:27+00:00,4.5931639671326,4,Stim_B.csv,Global.csv,Global,B,tire,,RR4,,,77,Study,User,1.25,,River,RR4,4320,,,-1,-1,,,,,1
5e3878a934f9ab08e0394edd,7ki2xy8spb,Ex2A_Prolific,1,128,2024-02-29T02:42:30+00:00,2.4413969516754,4,Stim_B.csv,Global.csv,Global,B,flexible,,RR5,,,78,Study,User,1.25,,River,RR5,2155,,,-1,-1,,,,,1
5e3878a934f9ab08e0394edd,7ki2xy8spb,Ex2A_Prolific,1,129,2024-02-29T02:42:33+00:00,3.1860959529877,4,Stim_B.csv,Global.csv,Global,B,elastic,,RR6,,,79,Study,User,1.25,,River,RR6,2909,,,-1,-1,,,,,1
5e3878a934f9ab08e0394edd,7ki2xy8spb,Ex2A_Prolific,1,130,2024-02-29T02:42:36+00:00,2.7799651622772,4,Stim_B.csv,Global.csv,Global,B,gloves,,RR7,,,80,Study,User,1.25,,River,RR7,2485,,,-1,-1,,,,,1
5e3878a934f9ab08e0394edd,7ki2xy8spb,Ex2A_Prolific,1,131,2024-02-29T02:42:38+00:00,2.6061868667603,4,Stim_B.csv,Global.csv,Global,B,eraser,,RR8,,,81,Study,User,1.25,,River,RR8,2314,,,-1,-1,,,,,1
5e3878a934f9ab08e0394edd,7ki2xy8spb,Ex2A_Prolific,1,132,2024-02-29T02:42:41+00:00,2.193608045578,4,Stim_B.csv,Global.csv,Global,B,bounce,,RR9,,,82,Study,User,1.25,,River,RR9,1920,,,-1,-1,,,,,1
5e3878a934f9ab08e0394edd,7ki2xy8spb,Ex2A_Prolific,1,133,2024-02-29T02:42:43+00:00,2.1111531257629,4,Stim_B.csv,Global.csv,Global,B,ball,,RR10,,,83,Study,User,1.25,,River,RR10,1746,,,-1,-1,,,,,1
5e3878a934f9ab08e0394edd,7ki2xy8spb,Ex2A_Prolific,1,134,2024-02-29T02:42:45+00:00,2.0547368526459,4,Stim_B.csv,Global.csv,Global,B,soles,,RR11,,,84,Study,User,1.25,,River,RR11,1783,,,-1,-1,,,,,1
5e3878a934f9ab08e0394edd,7ki2xy8spb,Ex2A_Prolific,1,135,2024-02-29T02:42:47+00:00,2.5612320899963,4,Stim_B.csv,Global.csv,Global,B,springy,,RR12,,,85,Study,User,1.25,,River,RR12,2294,,,-1,-1,,,,,1
5e3878a934f9ab08e0394edd,7ki2xy8spb,Ex2A_Prolific,1,136,2024-02-29T02:42:49+00:00,1.6982328891754,4,Stim_B.csv,Global.csv,Global,B,,,,,,0,Instruct,User,-,"You have completed this section and will now be asked to judge your ability to remember the list items you just studied. You will have four seconds to type your rating. Please click next to continue.",,Next_List1,1420,,,-1,-1,,,,,1
5e3878a934f9ab08e0394edd,7ki2xy8spb,Ex2A_Prolific,1,137,2024-02-29T02:42:54+00:00,5.2910730838776,4,Stim_B.csv,Global.csv,Global,B,,,,,,0,JOL_GLOBAL,5,5,"How likely are you to correctly recall each of the items you just studied?|Type your response on a scale from 0-100 and then press Enter (0 = WILL NOT REMEMBER; 100 = DEFINITELY WILL REMEMBER).",Related,JOL7,5000,,,1603,2391,,,,20,1
5e3878a934f9ab08e0394edd,7ki2xy8spb,Ex2A_Prolific,1,138,2024-02-29T02:42:57+00:00,2.784882068634,4,Stim_B.csv,Global.csv,Global,B,,,,,,0,Instruct,User,-,"You have completed this section. Please click next.",,Instruct166,2463,,,-1,-1,,,,,1
5e3878a934f9ab08e0394edd,7ki2xy8spb,Ex2A_Prolific,1,139,2024-02-29T02:43:27+00:00,30.277941942215,4,Stim_B.csv,Global.csv,Global,B,,,,,,0,FreeRecall,30,30,"Please type as many words as you can that begin with the letter ""S"". The computer will automatically advance to the next screen in 30 seconds.",,FILLER,30001,"snake, soon, screen, saw, sew, skill, soap, scrap, set, suit, ",0,1857,26295,0,0,,,1
5e3878a934f9ab08e0394edd,7ki2xy8spb,Ex2A_Prolific,1,140,2024-02-29T02:43:32+00:00,4.9538450241089,4,Stim_B.csv,Global.csv,Global,B,,,,,,0,Instruct,User,4,"You have completed this section. Please click next.",,Instruct166,4674,,,-1,-1,,,,,1
5e3878a934f9ab08e0394edd,7ki2xy8spb,Ex2A_Prolific,1,141,2024-02-29T02:43:37+00:00,4.8201858997345,4,Stim_B.csv,Global.csv,Global,B,,,,,,0,Instruct,User,4,"You will now complete a memory test for the words you just studied. Please type as many words from the previous list as you can seperated by a comma. Spelling will not count against you and you can recall the words in any order. This test will be timed for one minute, and the computer will automatically advance once time is up. Click next when you are ready to begin.",,Instruct1666,4534,,,-1,-1,,,,,1
5e3878a934f9ab08e0394edd,7ki2xy8spb,Ex2A_Prolific,1,142,2024-02-29T02:44:37+00:00,60.289535999298,4,Stim_B.csv,Global.csv,Global,B,,,,,,0,FreeRecall,60,60,"Please type as many words as you can from the previous study list in any order. Please separate each word with a comma. Spelling will not count against you. This screen will automatically advance in one minute.",,RECALL_Test,60001,"tired, bicycle, galoshes, ",0,19717,36388,0,0,,,0.93
5e3878a934f9ab08e0394edd,7ki2xy8spb,Ex2A_Prolific,1,143,2024-02-29T02:44:49+00:00,11.332971096039,4,Stim_B.csv,Global.csv,Global,B,,,,,,0,Instruct,User,3,"You will now be presented with a new study list. Click next when you are ready to begin.",,NEXT_LIST,10956,,,-1,-1,,,,,0.933
5e3878a934f9ab08e0394edd,7ki2xy8spb,Ex2A_Prolific,1,144,2024-02-29T02:44:51+00:00,2.7977640628815,4,Stim_B.csv,Global.csv,Global,B,toe,,B1,,,86,Study,User,1.25,,Bread,B1,2494,,,-1,-1,,,,,1
5e3878a934f9ab08e0394edd,7ki2xy8spb,Ex2A_Prolific,1,145,2024-02-29T02:44:54+00:00,2.3453478813171,4,Stim_B.csv,Global.csv,Global,B,inch,,B2,,,87,Study,User,1.25,,Bread,B2,2013,,,-1,-1,,,,,1
5e3878a934f9ab08e0394edd,7ki2xy8spb,Ex2A_Prolific,1,146,2024-02-29T02:44:57+00:00,2.7642960548401,4,Stim_B.csv,Global.csv,Global,B,ankle,,B3,,,88,Study,User,1.25,,Bread,B3,2221,,,-1,-1,,,,,1
5e3878a934f9ab08e0394edd,7ki2xy8spb,Ex2A_Prolific,1,147,2024-02-29T02:44:59+00:00,2.4644908905029,4,Stim_B.csv,Global.csv,Global,B,shoe,,B4,,,89,Study,User,1.25,,Bread,B4,2186,,,-1,-1,,,,,1
5e3878a934f9ab08e0394edd,7ki2xy8spb,Ex2A_Prolific,1,148,2024-02-29T02:45:02+00:00,2.4622981548309,4,Stim_B.csv,Global.csv,Global,B,sandals,,B5,,,90,Study,User,1.25,,Bread,B5,2183,,,-1,-1,,,,,1
5e3878a934f9ab08e0394edd,7ki2xy8spb,Ex2A_Prolific,1,149,2024-02-29T02:45:06+00:00,4.579577922821,4,Stim_B.csv,Global.csv,Global,B,sock,,B6,,,91,Study,User,1.25,,Bread,B6,4304,,,-1,-1,,,,,1
5e3878a934f9ab08e0394edd,7ki2xy8spb,Ex2A_Prolific,1,150,2024-02-29T02:45:11+00:00,4.5766880512238,4,Stim_B.csv,Global.csv,Global,B,hand,,B7,,,92,Study,User,1.25,,Bread,B7,4278,,,-1,-1,,,,,1
5e3878a934f9ab08e0394edd,7ki2xy8spb,Ex2A_Prolific,1,151,2024-02-29T02:45:13+00:00,2.7369029521942,4,Stim_B.csv,Global.csv,Global,B,boot,,B8,,,93,Study,User,1.25,,Bread,B8,2447,,,-1,-1,,,,,1
5e3878a934f9ab08e0394edd,7ki2xy8spb,Ex2A_Prolific,1,152,2024-02-29T02:45:17+00:00,4.0076930522919,4,Stim_B.csv,Global.csv,Global,B,yard,,B9,,,94,Study,User,1.25,,Bread,B9,3727,,,-1,-1,,,,,1
5e3878a934f9ab08e0394edd,7ki2xy8spb,Ex2A_Prolific,1,153,2024-02-29T02:45:20+00:00,2.4797518253326,4,Stim_B.csv,Global.csv,Global,B,kick,,B10,,,95,Study,User,1.25,,Bread,B10,2203,,,-1,-1,,,,,1
5e3878a934f9ab08e0394edd,7ki2xy8spb,Ex2A_Prolific,1,154,2024-02-29T02:45:22+00:00,2.3941040039062,4,Stim_B.csv,Global.csv,Global,B,knee,,B11,,,96,Study,User,1.25,,Bread,B11,2100,,,-1,-1,,,,,1
5e3878a934f9ab08e0394edd,7ki2xy8spb,Ex2A_Prolific,1,155,2024-02-29T02:45:25+00:00,2.4393780231476,4,Stim_B.csv,Global.csv,Global,B,walk,,B12,,,97,Study,User,1.25,,Bread,B12,2138,,,-1,-1,,,,,1
5e3878a934f9ab08e0394edd,7ki2xy8spb,Ex2A_Prolific,1,156,2024-02-29T02:45:27+00:00,2.0781610012054,4,Stim_B.csv,Global.csv,Global,B,,,,,,0,Instruct,User,-,"You have completed this section and will now be asked to judge your ability to remember the list items you just studied. You will have four seconds to type your rating. Please click next to continue.",,Next_List1,1785,,,-1,-1,,,,,1
5e3878a934f9ab08e0394edd,7ki2xy8spb,Ex2A_Prolific,1,157,2024-02-29T02:45:32+00:00,5.2924981117249,4,Stim_B.csv,Global.csv,Global,B,,,,,,0,JOL_GLOBAL,5,5,"How likely are you to correctly recall each of the items you just studied?|Type your response on a scale from 0-100 and then press Enter (0 = WILL NOT REMEMBER; 100 = DEFINITELY WILL REMEMBER).",Related,JOL8,5000,,,1108,2053,,,,50,1
5e3878a934f9ab08e0394edd,7ki2xy8spb,Ex2A_Prolific,1,158,2024-02-29T02:45:33+00:00,1.0147218704224,4,Stim_B.csv,Global.csv,Global,B,,,,,,0,Instruct,User,-,"You have completed this section. Please click next.",,Instruct166,737,,,-1,-1,,,,,1
5e3878a934f9ab08e0394edd,7ki2xy8spb,Ex2A_Prolific,1,159,2024-02-29T02:46:03+00:00,30.277585983276,4,Stim_B.csv,Global.csv,Global,B,,,,,,0,FreeRecall,30,30,"Please type as many words as you can that begin with the letter ""W"". The computer will automatically advance to the next screen in 30 seconds.",,FILLER,30004,"will, win, won, war, wake, wet, was, woke, ",0,2033,22369,0,0,,,1
5e3878a934f9ab08e0394edd,7ki2xy8spb,Ex2A_Prolific,1,160,2024-02-29T02:46:08+00:00,4.9815130233765,4,Stim_B.csv,Global.csv,Global,B,,,,,,0,Instruct,User,4,"You have completed this section. Please click next.",,Instruct166,4659,,,-1,-1,,,,,1
5e3878a934f9ab08e0394edd,7ki2xy8spb,Ex2A_Prolific,1,161,2024-02-29T02:46:13+00:00,5.0015420913696,4,Stim_B.csv,Global.csv,Global,B,,,,,,0,Instruct,User,4,"You will now complete a memory test for the words you just studied. Please type as many words from the previous list as you can seperated by a comma. Spelling will not count against you and you can recall the words in any order. This test will be timed for one minute, and the computer will automatically advance once time is up. Click next when you are ready to begin.",,Instruct1666,4715,,,-1,-1,,,,,1
5e3878a934f9ab08e0394edd,7ki2xy8spb,Ex2A_Prolific,1,162,2024-02-29T02:47:14+00:00,60.285119056702,4,Stim_B.csv,Global.csv,Global,B,,,,,,0,FreeRecall,60,60,"Please type as many words as you can from the previous study list in any order. Please separate each word with a comma. Spelling will not count against you. This screen will automatically advance in one minute.",,RECALL_Test,60001,"toe, ankle, shoes, boots, sandals, walk, knee, ",0,885,15396,0,0,,,1
5e3878a934f9ab08e0394edd,7ki2xy8spb,Ex2A_Prolific,1,163,2024-02-29T02:47:18+00:00,3.9007329940796,4,Stim_B.csv,Global.csv,Global,B,,,,,,0,Instruct,User,3,"You will now be presented with a new study list. Click next when you are ready to begin.",,NEXT_LIST,3571,,,-1,-1,,,,,1
5e3878a934f9ab08e0394edd,7ki2xy8spb,Ex2A_Prolific,1,164,2024-02-29T02:47:20+00:00,2.6781489849091,4,Stim_B.csv,Global.csv,Global,B,boy,,F1,,,98,Study,User,1.25,,Flag,F1,2356,,,-1,-1,,,,,1
5e3878a934f9ab08e0394edd,7ki2xy8spb,Ex2A_Prolific,1,165,2024-02-29T02:47:22+00:00,2.1100950241089,4,Stim_B.csv,Global.csv,Global,B,dolls,,F2,,,99,Study,User,1.25,,Flag,F2,1806,,,-1,-1,,,,,1
5e3878a934f9ab08e0394edd,7ki2xy8spb,Ex2A_Prolific,1,166,2024-02-29T02:47:25+00:00,2.1448068618774,4,Stim_B.csv,Global.csv,Global,B,pretty,,F3,,,100,Study,User,1.25,,Flag,F3,1779,,,-1,-1,,,,,1
5e3878a934f9ab08e0394edd,7ki2xy8spb,Ex2A_Prolific,1,167,2024-02-29T02:47:27+00:00,2.1611430644989,4,Stim_B.csv,Global.csv,Global,B,female,,F4,,,101,Study,User,1.25,,Flag,F4,1879,,,-1,-1,,,,,1
5e3878a934f9ab08e0394edd,7ki2xy8spb,Ex2A_Prolific,1,168,2024-02-29T02:47:30+00:00,3.4046330451965,4,Stim_B.csv,Global.csv,Global,B,dress,,F5,,,102,Study,User,1.25,,Flag,F5,3126,,,-1,-1,,,,,1
5e3878a934f9ab08e0394edd,7ki2xy8spb,Ex2A_Prolific,1,169,2024-02-29T02:47:32+00:00,2.235494852066,4,Stim_B.csv,Global.csv,Global,B,date,,F6,,,103,Study,User,1.25,,Flag,F6,1959,,,-1,-1,,,,,1
5e3878a934f9ab08e0394edd,7ki2xy8spb,Ex2A_Prolific,1,170,2024-02-29T02:47:35+00:00,2.2743721008301,4,Stim_B.csv,Global.csv,Global,B,beautiful,,F7,,,104,Study,User,1.25,,Flag,F7,1993,,,-1,-1,,,,,1
5e3878a934f9ab08e0394edd,7ki2xy8spb,Ex2A_Prolific,1,171,2024-02-29T02:47:38+00:00,3.0970900058746,4,Stim_B.csv,Global.csv,Global,B,daughter,,F8,,,105,Study,User,1.25,,Flag,F8,2825,,,-1,-1,,,,,1
5e3878a934f9ab08e0394edd,7ki2xy8spb,Ex2A_Prolific,1,172,2024-02-29T02:47:42+00:00,4.3082940578461,4,Stim_B.csv,Global.csv,Global,B,sister,,F9,,,106,Study,User,1.25,,Flag,F9,3954,,,-1,-1,,,,,1
5e3878a934f9ab08e0394edd,7ki2xy8spb,Ex2A_Prolific,1,173,2024-02-29T02:47:46+00:00,4.0114889144897,4,Stim_B.csv,Global.csv,Global,B,cute,,F10,,,107,Study,User,1.25,,Flag,F10,3736,,,-1,-1,,,,,0.789
5e3878a934f9ab08e0394edd,7ki2xy8spb,Ex2A_Prolific,1,174,2024-02-29T02:47:50+00:00,3.9048371315002,4,Stim_B.csv,Global.csv,Global,B,niece,,F11,,,108,Study,User,1.25,,Flag,F11,3612,,,-1,-1,,,,,1
5e3878a934f9ab08e0394edd,7ki2xy8spb,Ex2A_Prolific,1,175,2024-02-29T02:47:52+00:00,2.2417278289795,4,Stim_B.csv,Global.csv,Global,B,young,,F12,,,109,Study,User,1.25,,Flag,F12,1954,,,-1,-1,,,,,1
5e3878a934f9ab08e0394edd,7ki2xy8spb,Ex2A_Prolific,1,176,2024-02-29T02:47:54+00:00,1.5689260959625,4,Stim_B.csv,Global.csv,Global,B,,,,,,0,Instruct,User,-,"You have completed this section and will now be asked to judge your ability to remember the list items you just studied. You will have four seconds to type your rating. Please click next to continue.",,Next_List1,1290,,,-1,-1,,,,,1
5e3878a934f9ab08e0394edd,7ki2xy8spb,Ex2A_Prolific,1,177,2024-02-29T02:47:59+00:00,5.3045089244843,4,Stim_B.csv,Global.csv,Global,B,,,,,,0,JOL_GLOBAL,5,5,"How likely are you to correctly recall each of the items you just studied?|Type your response on a scale from 0-100 and then press Enter (0 = WILL NOT REMEMBER; 100 = DEFINITELY WILL REMEMBER).",Related,JOL9,5001,,,1651,3461,,,,,1
5e3878a934f9ab08e0394edd,7ki2xy8spb,Ex2A_Prolific,1,178,2024-02-29T02:48:04+00:00,4.6768751144409,4,Stim_B.csv,Global.csv,Global,B,,,,,,0,Instruct,User,4,"You have completed this section. Please click next.",,Instruct166,4398,,,-1,-1,,,,,1
5e3878a934f9ab08e0394edd,7ki2xy8spb,Ex2A_Prolific,1,179,2024-02-29T02:48:34+00:00,30.285678863525,4,Stim_B.csv,Global.csv,Global,B,,,,,,0,FreeRecall,30,30,"Please type as many words as you can that begin with the letter ""L"". The computer will automatically advance to the next screen in 30 seconds.",,FILLER,30002,"loss, lose, like, level, lift, lake, love, left, let, lit, light, load, lab, land, lamb,",0,1781,29885,0,0,,,1
5e3878a934f9ab08e0394edd,7ki2xy8spb,Ex2A_Prolific,1,180,2024-02-29T02:48:36+00:00,2.0148949623108,4,Stim_B.csv,Global.csv,Global,B,,,,,,0,Instruct,User,-,"You have completed this section. Please click next.",,Instruct166,1721,,,-1,-1,,,,,1
5e3878a934f9ab08e0394edd,7ki2xy8spb,Ex2A_Prolific,1,181,2024-02-29T02:48:41+00:00,4.8996870517731,4,Stim_B.csv,Global.csv,Global,B,,,,,,0,Instruct,User,4,"You will now complete a memory test for the words you just studied. Please type as many words from the previous list as you can seperated by a comma. Spelling will not count against you and you can recall the words in any order. This test will be timed for one minute, and the computer will automatically advance once time is up. Click next when you are ready to begin.",,Instruct1666,4599,,,-1,-1,,,,,1
5e3878a934f9ab08e0394edd,7ki2xy8spb,Ex2A_Prolific,1,182,2024-02-29T02:49:41+00:00,60.296468019485,4,Stim_B.csv,Global.csv,Global,B,,,,,,0,FreeRecall,60,60,"Please type as many words as you can from the previous study list in any order. Please separate each word with a comma. Spelling will not count against you. This screen will automatically advance in one minute.",,RECALL_Test,60001,"boy, doll, pretty, daughter, niece, sister, female, cute, nice, young, ",0,748,24959,0,0,,,0.854
5e3878a934f9ab08e0394edd,7ki2xy8spb,Ex2A_Prolific,1,183,2024-02-29T02:49:48+00:00,6.5982179641724,4,Stim_B.csv,Global.csv,Global,B,,,,,,0,Instruct,User,3,"You will now be presented with a new study list. Click next when you are ready to begin.",,NEXT_LIST,6192,,,-1,-1,,,,,1
5e3878a934f9ab08e0394edd,7ki2xy8spb,Ex2A_Prolific,1,184,2024-02-29T02:49:51+00:00,3.3837490081787,4,Stim_B.csv,Global.csv,Global,B,white,,SS1,,,110,Study,User,1.25,,Shirt,SS1,3090,,,-1,-1,,,,,1
5e3878a934f9ab08e0394edd,7ki2xy8spb,Ex2A_Prolific,1,185,2024-02-29T02:49:54+00:00,2.397500038147,4,Stim_B.csv,Global.csv,Global,B,gray,,SS2,,,111,Study,User,1.25,,Shirt,SS2,2107,,,-1,-1,,,,,1
5e3878a934f9ab08e0394edd,7ki2xy8spb,Ex2A_Prolific,1,186,2024-02-29T02:49:56+00:00,1.9695129394531,4,Stim_B.csv,Global.csv,Global,B,brown,,SS3,,,112,Study,User,1.25,,Shirt,SS3,1690,,,-1,-1,,,,,1
5e3878a934f9ab08e0394edd,7ki2xy8spb,Ex2A_Prolific,1,187,2024-02-29T02:49:58+00:00,2.3137390613556,4,Stim_B.csv,Global.csv,Global,B,coal,,SS4,,,113,Study,User,1.25,,Shirt,SS4,1993,,,-1,-1,,,,,1
5e3878a934f9ab08e0394edd,7ki2xy8spb,Ex2A_Prolific,1,188,2024-02-29T02:50:00+00:00,2.5916020870209,4,Stim_B.csv,Global.csv,Global,B,dark,,SS5,,,114,Study,User,1.25,,Shirt,SS5,1990,,,-1,-1,,,,,1
5e3878a934f9ab08e0394edd,7ki2xy8spb,Ex2A_Prolific,1,189,2024-02-29T02:50:04+00:00,3.4626259803772,4,Stim_B.csv,Global.csv,Global,B,color,,SS6,,,115,Study,User,1.25,,Shirt,SS6,3173,,,-1,-1,,,,,1
5e3878a934f9ab08e0394edd,7ki2xy8spb,Ex2A_Prolific,1,190,2024-02-29T02:50:07+00:00,3.5313918590546,4,Stim_B.csv,Global.csv,Global,B,funeral,,SS7,,,116,Study,User,1.25,,Shirt,SS7,3250,,,-1,-1,,,,,1
5e3878a934f9ab08e0394edd,7ki2xy8spb,Ex2A_Prolific,1,191,2024-02-29T02:50:10+00:00,2.4064710140228,4,Stim_B.csv,Global.csv,Global,B,blue,,SS8,,,117,Study,User,1.25,,Shirt,SS8,2091,,,-1,-1,,,,,1
5e3878a934f9ab08e0394edd,7ki2xy8spb,Ex2A_Prolific,1,192,2024-02-29T02:50:13+00:00,2.9718790054321,4,Stim_B.csv,Global.csv,Global,B,charred,,SS9,,,118,Study,User,1.25,,Shirt,SS9,2629,,,-1,-1,,,,,1
5e3878a934f9ab08e0394edd,7ki2xy8spb,Ex2A_Prolific,1,193,2024-02-29T02:50:15+00:00,1.9672710895538,4,Stim_B.csv,Global.csv,Global,B,ink,,SS10,,,119,Study,User,1.25,,Shirt,SS10,1678,,,-1,-1,,,,,1
5e3878a934f9ab08e0394edd,7ki2xy8spb,Ex2A_Prolific,1,194,2024-02-29T02:50:17+00:00,2.2888510227203,4,Stim_B.csv,Global.csv,Global,B,death,,SS11,,,120,Study,User,1.25,,Shirt,SS11,2002,,,-1,-1,,,,,1
5e3878a934f9ab08e0394edd,7ki2xy8spb,Ex2A_Prolific,1,195,2024-02-29T02:50:19+00:00,2.2563619613647,4,Stim_B.csv,Global.csv,Global,B,cat,,SS12,,,121,Study,User,1.25,,Shirt,SS12,1675,,,-1,-1,,,,,1
5e3878a934f9ab08e0394edd,7ki2xy8spb,Ex2A_Prolific,1,196,2024-02-29T02:50:22+00:00,2.9373390674591,4,Stim_B.csv,Global.csv,Global,B,,,,,,0,Instruct,User,1.25,"You have completed this section and will now be asked to judge your ability to remember the list items you just studied. You will have four seconds to type your rating. Please click next to continue.",,Next_List1,2645,,,-1,-1,,,,,1
5e3878a934f9ab08e0394edd,7ki2xy8spb,Ex2A_Prolific,1,197,2024-02-29T02:50:28+00:00,5.3234128952026,4,Stim_B.csv,Global.csv,Global,B,,,,,,0,JOL_GLOBAL,5,5,"How likely are you to correctly recall each of the items you just studied?|Type your response on a scale from 0-100 and then press Enter (0 = WILL NOT REMEMBER; 100 = DEFINITELY WILL REMEMBER).",Related,JOL10,5001,,,2052,2164,,,,50,1
5e3878a934f9ab08e0394edd,7ki2xy8spb,Ex2A_Prolific,1,198,2024-02-29T02:50:32+00:00,4.6933410167694,4,Stim_B.csv,Global.csv,Global,B,,,,,,0,Instruct,User,4,"You have completed this section. Please click next.",,Instruct166,4403,,,-1,-1,,,,,1
5e3878a934f9ab08e0394edd,7ki2xy8spb,Ex2A_Prolific,1,199,2024-02-29T02:51:03+00:00,30.285958051682,4,Stim_B.csv,Global.csv,Global,B,,,,,,0,FreeRecall,30,30,"Please type as many words as you can that begin with the letter ""C"". The computer will automatically advance to the next screen in 30 seconds.",,FILLER,30001,"cat, cape, coat, cry, cast, cake, city, catch, coal",0,1958,28541,0,0,,,1
5e3878a934f9ab08e0394edd,7ki2xy8spb,Ex2A_Prolific,1,200,2024-02-29T02:51:04+00:00,1.7407879829407,4,Stim_B.csv,Global.csv,Global,B,,,,,,0,Instruct,User,-,"You have completed this section. Please click next.",,Instruct166,1454,,,-1,-1,,,,,1
5e3878a934f9ab08e0394edd,7ki2xy8spb,Ex2A_Prolific,1,201,2024-02-29T02:51:09+00:00,4.7402329444885,4,Stim_B.csv,Global.csv,Global,B,,,,,,0,Instruct,User,4,"You will now complete a memory test for the words you just studied. Please type as many words from the previous list as you can seperated by a comma. Spelling will not count against you and you can recall the words in any order. This test will be timed for one minute, and the computer will automatically advance once time is up. Click next when you are ready to begin.",,Instruct1666,4425,,,-1,-1,,,,,1
5e3878a934f9ab08e0394edd,7ki2xy8spb,Ex2A_Prolific,1,202,2024-02-29T02:52:09+00:00,60.287732124329,4,Stim_B.csv,Global.csv,Global,B,,,,,,0,FreeRecall,60,60,"Please type as many words as you can from the previous study list in any order. Please separate each word with a comma. Spelling will not count against you. This screen will automatically advance in one minute.",,RECALL_Test,60000,"white, brown, coal, grey, funeral, charred, blue, color, ",0,1102,20126,0,0,,,0.963
5e3878a934f9ab08e0394edd,7ki2xy8spb,Ex2A_Prolific,1,203,2024-02-29T02:52:11+00:00,1.7605249881744,4,Stim_B.csv,Global.csv,Global,B,,,,,,0,Instruct,User,-,"You have completed this section. Please click next.",,Instruct7,1450,,,-1,-1,,,,,1
5e3878a934f9ab08e0394edd,7ki2xy8spb,Ex2A_Prolific,1,204,2024-02-29T02:52:14+00:00,3.0769689083099,4,Stim_B.csv,Global.csv,Global,B,,,,,,0,Instruct,User,-,"The following screen will ask you a few questions abour your experience today. You must complete these questions to receive credit.",,Instruct8,2787,,,-1,-1,,,,,1
