Username,ID,ExperimentName,Session,Trial,Date,TimeDif,"Condition Number","Stimuli File","Order File","Condition Description","Condition Notes",Stimuli*Cue,Stimuli*Answer,Stimuli*Shuffle,"Stimuli*Stimuli Notes",Stimuli*Value,Procedure*Item,"Procedure*Trial Type","Procedure*Max Time","Procedure*Min Time",Procedure*Text,"Procedure*Procedure Notes",Procedure*Shuffle,Response*RT,Response*Response,Response*Accuracy,Response*RTfirst,Response*RTlast,Response*strictAcc,Response*lenientAcc,Response*focus,Response*JOL,Response*Focus
65dd6ca1a06e762a792e26f2,uzy5imun6b,Ex2A_Prolific,1,1,2024-02-29T01:16:01+00:00,5.3220710754395,4,Stim_B.csv,Global.csv,Global,B,,,,,,0,Instruct,-,5,"In this section, you will be presented with a series of words. Please study each word carefully. Your memory will be tested!",Initial_Instruct,Instruct1,5140,,,-1,-1,,,,,1
65dd6ca1a06e762a792e26f2,uzy5imun6b,Ex2A_Prolific,1,2,2024-02-29T01:22:12+00:00,370.24264192581,4,Stim_B.csv,Global.csv,Global,B,,,,,,0,Instruct,User,5,"After studying each LIST of words, you will be asked to rate your ability to remember ALL of the words in the list on a later test. You will make these ratings using a scale of 0 to 100. A rating of 0 = WILL NOT REMEMBER, while a rating of 100 = WILL DEFINITELY REMEMBER. Please try to be as accurate as possible with these ratings!",,BLIPBLOOP,369980,,,-1,-1,,,,,0.897
65dd6ca1a06e762a792e26f2,uzy5imun6b,Ex2A_Prolific,1,3,2024-02-29T01:23:05+00:00,53.282216072083,4,Stim_B.csv,Global.csv,Global,B,,,,,,0,Instruct,User,1.25,"You will now begin the study. Click next when you are ready to begin.",,Instruct16,52993,,,-1,-1,,,,,1
65dd6ca1a06e762a792e26f2,uzy5imun6b,Ex2A_Prolific,1,4,2024-02-29T01:23:08+00:00,3.2372388839722,4,Stim_B.csv,Global.csv,Global,B,aroma,,Win_1,,,2,Study,User,1.25,,Window,Win_1,3023,,,-1,-1,,,,,1
65dd6ca1a06e762a792e26f2,uzy5imun6b,Ex2A_Prolific,1,5,2024-02-29T01:23:11+00:00,2.5981931686401,4,Stim_B.csv,Global.csv,Global,B,scent,,Win_2,,,3,Study,User,1.25,,Window,Win_2,2410,,,-1,-1,,,,,1
65dd6ca1a06e762a792e26f2,uzy5imun6b,Ex2A_Prolific,1,6,2024-02-29T01:23:13+00:00,2.1618700027466,4,Stim_B.csv,Global.csv,Global,B,whiff,,Win_3,,,4,Study,User,1.25,,Window,Win_3,1973,,,-1,-1,,,,,1
65dd6ca1a06e762a792e26f2,uzy5imun6b,Ex2A_Prolific,1,7,2024-02-29T01:23:17+00:00,3.8075277805328,4,Stim_B.csv,Global.csv,Global,B,stench,,Win_4,,,5,Study,User,1.25,,Window,Win_4,3634,,,-1,-1,,,,,1
65dd6ca1a06e762a792e26f2,uzy5imun6b,Ex2A_Prolific,1,8,2024-02-29T01:23:19+00:00,2.5001151561737,4,Stim_B.csv,Global.csv,Global,B,reek,,Win_5,,,6,Study,User,1.25,,Window,Win_5,2306,,,-1,-1,,,,,1
65dd6ca1a06e762a792e26f2,uzy5imun6b,Ex2A_Prolific,1,9,2024-02-29T01:23:21+00:00,2.3126718997955,4,Stim_B.csv,Global.csv,Global,B,sniff,,Win_6,,,7,Study,User,1.25,,Window,Win_6,2111,,,-1,-1,,,,,1
65dd6ca1a06e762a792e26f2,uzy5imun6b,Ex2A_Prolific,1,10,2024-02-29T01:23:23+00:00,2.0137610435486,4,Stim_B.csv,Global.csv,Global,B,perfume,,Win_7,,,8,Study,User,1.25,,Window,Win_7,1810,,,-1,-1,,,,,1
65dd6ca1a06e762a792e26f2,uzy5imun6b,Ex2A_Prolific,1,11,2024-02-29T01:23:25+00:00,1.8218810558319,4,Stim_B.csv,Global.csv,Global,B,fragrance,,Win_8,,,9,Study,User,1.25,,Window,Win_8,1622,,,-1,-1,,,,,1
65dd6ca1a06e762a792e26f2,uzy5imun6b,Ex2A_Prolific,1,12,2024-02-29T01:23:31+00:00,6.079048871994,4,Stim_B.csv,Global.csv,Global,B,nose,,Win_9,,,10,Study,User,1.25,,Window,Win_9,5890,,,-1,-1,,,,,0.533
65dd6ca1a06e762a792e26f2,uzy5imun6b,Ex2A_Prolific,1,13,2024-02-29T01:23:35+00:00,3.75546002388,4,Stim_B.csv,Global.csv,Global,B,rose,,Win_10,,,11,Study,User,1.25,,Window,Win_10,3587,,,-1,-1,,,,,1
65dd6ca1a06e762a792e26f2,uzy5imun6b,Ex2A_Prolific,1,14,2024-02-29T01:23:55+00:00,19.997114181519,4,Stim_B.csv,Global.csv,Global,B,salts,,Win_11,,,12,Study,User,1.25,,Window,Win_11,19791,,,-1,-1,,,,,1
65dd6ca1a06e762a792e26f2,uzy5imun6b,Ex2A_Prolific,1,15,2024-02-29T01:23:58+00:00,2.4939317703247,4,Stim_B.csv,Global.csv,Global,B,breathe,,Win_12,,,13,Study,User,1.25,,Window,Win_12,2285,,,-1,-1,,,,,1
65dd6ca1a06e762a792e26f2,uzy5imun6b,Ex2A_Prolific,1,16,2024-02-29T01:24:00+00:00,2.2378301620483,4,Stim_B.csv,Global.csv,Global,B,,,,,,0,Instruct,User,-,"You have completed this section and will now be asked to judge your ability to remember the list items you just studied. You will have four seconds to type your rating. Please click next to continue.",,Next_List1,2040,,,-1,-1,,,,,1
65dd6ca1a06e762a792e26f2,uzy5imun6b,Ex2A_Prolific,1,17,2024-02-29T01:24:05+00:00,5.1801359653473,4,Stim_B.csv,Global.csv,Global,B,,,,,,0,JOL_GLOBAL,5,5,"How likely are you to correctly recall each of the items you just studied?|Type your response on a scale from 0-100 and then press Enter (0 = WILL NOT REMEMBER; 100 = DEFINITELY WILL REMEMBER).",Related,JOL1,5007,,,-1,-1,,,,,1
65dd6ca1a06e762a792e26f2,uzy5imun6b,Ex2A_Prolific,1,18,2024-02-29T01:24:08+00:00,2.943855047226,4,Stim_B.csv,Global.csv,Global,B,,,,,,0,Instruct,User,-,"You have completed this section. Please click next.",,Instruct166,2759,,,-1,-1,,,,,1
65dd6ca1a06e762a792e26f2,uzy5imun6b,Ex2A_Prolific,1,19,2024-02-29T01:24:38+00:00,30.220366001129,4,Stim_B.csv,Global.csv,Global,B,,,,,,0,FreeRecall,30,30,"Please type as many words as you can that begin with the letter ""M"". The computer will automatically advance to the next screen in 30 seconds.",,FILLER,30001,,0,-1,-1,0,0,,,1
65dd6ca1a06e762a792e26f2,uzy5imun6b,Ex2A_Prolific,1,20,2024-02-29T01:24:44+00:00,5.586963891983,4,Stim_B.csv,Global.csv,Global,B,,,,,,0,Instruct,User,4,"You have completed this section. Please click next.",,Instruct166,5314,,,-1,-1,,,,,1
65dd6ca1a06e762a792e26f2,uzy5imun6b,Ex2A_Prolific,1,21,2024-02-29T01:24:49+00:00,5.5439870357513,4,Stim_B.csv,Global.csv,Global,B,,,,,,0,Instruct,User,4,"You will now complete a memory test for the words you just studied. Please type as many words from the previous list as you can seperated by a comma. Spelling will not count against you and you can recall the words in any order. This test will be timed for one minute, and the computer will automatically advance once time is up. Click next when you are ready to begin.",,Instruct1666,5354,,,-1,-1,,,,,1
65dd6ca1a06e762a792e26f2,uzy5imun6b,Ex2A_Prolific,1,22,2024-02-29T01:25:50+00:00,60.203038930893,4,Stim_B.csv,Global.csv,Global,B,,,,,,0,FreeRecall,60,60,"Please type as many words as you can from the previous study list in any order. Please separate each word with a comma. Spelling will not count against you. This screen will automatically advance in one minute.",,RECALL_Test,60002,"aroma, salt, dome, total",0,1515,46815,0,0,,,0.99
65dd6ca1a06e762a792e26f2,uzy5imun6b,Ex2A_Prolific,1,23,2024-02-29T01:26:36+00:00,46.120045185089,4,Stim_B.csv,Global.csv,Global,B,,,,,,0,Instruct,User,3,"You will now be presented with a new study list. Click next when you are ready to begin.",,NEXT_LIST,45810,,,-1,-1,,,,,1
65dd6ca1a06e762a792e26f2,uzy5imun6b,Ex2A_Prolific,1,24,2024-02-29T01:26:40+00:00,4.7490408420563,4,Stim_B.csv,Global.csv,Global,B,hard,,R1,,,14,Study,User,1.25,,Rough,R1,4547,,,-1,-1,,,,,1
65dd6ca1a06e762a792e26f2,uzy5imun6b,Ex2A_Prolific,1,25,2024-02-29T01:27:17+00:00,36.261502981186,4,Stim_B.csv,Global.csv,Global,B,loud,,R2,,,15,Study,User,1.25,,Rough,R2,36084,,,-1,-1,,,,,1
65dd6ca1a06e762a792e26f2,uzy5imun6b,Ex2A_Prolific,1,26,2024-02-29T01:27:19+00:00,2.3859810829163,4,Stim_B.csv,Global.csv,Global,B,tender,,R3,,,16,Study,User,1.25,,Rough,R3,1907,,,-1,-1,,,,,1
65dd6ca1a06e762a792e26f2,uzy5imun6b,Ex2A_Prolific,1,27,2024-02-29T01:27:21+00:00,1.8952600955963,4,Stim_B.csv,Global.csv,Global,B,fluffy,,R4,,,17,Study,User,1.25,,Rough,R4,1699,,,-1,-1,,,,,1
65dd6ca1a06e762a792e26f2,uzy5imun6b,Ex2A_Prolific,1,28,2024-02-29T01:27:23+00:00,1.8899347782135,4,Stim_B.csv,Global.csv,Global,B,pillow,,R5,,,18,Study,User,1.25,,Rough,R5,1695,,,-1,-1,,,,,1
65dd6ca1a06e762a792e26f2,uzy5imun6b,Ex2A_Prolific,1,29,2024-02-29T01:27:28+00:00,5.5823860168457,4,Stim_B.csv,Global.csv,Global,B,downy,,R6,,,19,Study,User,1.25,,Rough,R6,5382,,,-1,-1,,,,,1
65dd6ca1a06e762a792e26f2,uzy5imun6b,Ex2A_Prolific,1,30,2024-02-29T01:27:31+00:00,2.401346206665,4,Stim_B.csv,Global.csv,Global,B,plush,,R7,,,20,Study,User,1.25,,Rough,R7,2215,,,-1,-1,,,,,1
65dd6ca1a06e762a792e26f2,uzy5imun6b,Ex2A_Prolific,1,31,2024-02-29T01:27:33+00:00,1.9914917945862,4,Stim_B.csv,Global.csv,Global,B,cotton,,R8,,,21,Study,User,1.25,,Rough,R8,1801,,,-1,-1,,,,,1
65dd6ca1a06e762a792e26f2,uzy5imun6b,Ex2A_Prolific,1,32,2024-02-29T01:27:35+00:00,1.9023520946503,4,Stim_B.csv,Global.csv,Global,B,skin,,R9,,,22,Study,User,1.25,,Rough,R9,1738,,,-1,-1,,,,,1
65dd6ca1a06e762a792e26f2,uzy5imun6b,Ex2A_Prolific,1,33,2024-02-29T01:27:37+00:00,1.8772130012512,4,Stim_B.csv,Global.csv,Global,B,fur,,R10,,,23,Study,User,1.25,,Rough,R10,1686,,,-1,-1,,,,,1
65dd6ca1a06e762a792e26f2,uzy5imun6b,Ex2A_Prolific,1,34,2024-02-29T01:27:41+00:00,4.8525559902191,4,Stim_B.csv,Global.csv,Global,B,touch,,R11,,,24,Study,User,1.25,,Rough,R11,4660,,,-1,-1,,,,,1
65dd6ca1a06e762a792e26f2,uzy5imun6b,Ex2A_Prolific,1,35,2024-02-29T01:27:43+00:00,1.9277989864349,4,Stim_B.csv,Global.csv,Global,B,furry,,R12,,,25,Study,User,1.25,,Rough,R12,1754,,,-1,-1,,,,,1
65dd6ca1a06e762a792e26f2,uzy5imun6b,Ex2A_Prolific,1,36,2024-02-29T01:27:45+00:00,1.723384141922,4,Stim_B.csv,Global.csv,Global,B,,,,,,0,Instruct,User,-,"You have completed this section and will now be asked to judge your ability to remember the list items you just studied. You will have four seconds to type your rating. Please click next to continue.",,Next_List1,1545,,,-1,-1,,,,,1
65dd6ca1a06e762a792e26f2,uzy5imun6b,Ex2A_Prolific,1,37,2024-02-29T01:27:50+00:00,5.2253248691559,4,Stim_B.csv,Global.csv,Global,B,,,,,,0,JOL_GLOBAL,5,5,"How likely are you to correctly recall each of the items you just studied?|Type your response on a scale from 0-100 and then press Enter (0 = WILL NOT REMEMBER; 100 = DEFINITELY WILL REMEMBER).",Unrelated,JOL2,5001,,,-1,-1,,,,,1
65dd6ca1a06e762a792e26f2,uzy5imun6b,Ex2A_Prolific,1,38,2024-02-29T01:27:52+00:00,1.8138520717621,4,Stim_B.csv,Global.csv,Global,B,,,,,,0,Instruct,User,-,"You have completed this section. Please click next.",,Instruct166,1615,,,260,260,,,,,1
65dd6ca1a06e762a792e26f2,uzy5imun6b,Ex2A_Prolific,1,39,2024-02-29T01:28:23+00:00,30.789520978928,4,Stim_B.csv,Global.csv,Global,B,,,,,,0,FreeRecall,30,1.25,"Please type as many words as you can that begin with the letter ""N"". The computer will automatically advance to the next screen in 30 seconds.",,FILLER,30577,"loud, touch, downy, fur, cotton, fair, ",0,3487,23197,0,0,,,0.993
65dd6ca1a06e762a792e26f2,uzy5imun6b,Ex2A_Prolific,1,40,2024-02-29T01:28:28+00:00,4.9378600120544,4,Stim_B.csv,Global.csv,Global,B,,,,,,0,Instruct,User,4,"You have completed this section. Please click next.",,Instruct166,4742,,,-1,-1,,,,,1
65dd6ca1a06e762a792e26f2,uzy5imun6b,Ex2A_Prolific,1,41,2024-02-29T01:28:34+00:00,5.6821539402008,4,Stim_B.csv,Global.csv,Global,B,,,,,,0,Instruct,User,4,"You will now complete a memory test for the words you just studied. Please type as many words from the previous list as you can seperated by a comma. Spelling will not count against you and you can recall the words in any order. This test will be timed for one minute, and the computer will automatically advance once time is up. Click next when you are ready to begin.",,Instruct1666,5489,,,-1,-1,,,,,1
65dd6ca1a06e762a792e26f2,uzy5imun6b,Ex2A_Prolific,1,42,2024-02-29T01:29:34+00:00,60.365024089813,4,Stim_B.csv,Global.csv,Global,B,,,,,,0,FreeRecall,60,60,"Please type as many words as you can from the previous study list in any order. Please separate each word with a comma. Spelling will not count against you. This screen will automatically advance in one minute.",,RECALL_Test,60165,"loud, touch, downy, fur, fair, cotton",0,1744,13000,0,0,,,0.646
65dd6ca1a06e762a792e26f2,uzy5imun6b,Ex2A_Prolific,1,43,2024-02-29T01:29:39+00:00,4.6851778030396,4,Stim_B.csv,Global.csv,Global,B,,,,,,0,Instruct,User,3,"You will now be presented with a new study list. Click next when you are ready to begin.",,NEXT_LIST,4454,,,-1,-1,,,,,0.5
65dd6ca1a06e762a792e26f2,uzy5imun6b,Ex2A_Prolific,1,44,2024-02-29T01:29:41+00:00,1.9971730709076,4,Stim_B.csv,Global.csv,Global,B,honey,,A1,,,26,Study,User,1.25,,Anger,A1,1795,,,-1,-1,,,,,1
65dd6ca1a06e762a792e26f2,uzy5imun6b,Ex2A_Prolific,1,45,2024-02-29T01:29:42+00:00,1.6290431022644,4,Stim_B.csv,Global.csv,Global,B,bitter,,A2,,,27,Study,User,1.25,,Anger,A2,1446,,,-1,-1,,,,,1
65dd6ca1a06e762a792e26f2,uzy5imun6b,Ex2A_Prolific,1,46,2024-02-29T01:29:44+00:00,1.942617893219,4,Stim_B.csv,Global.csv,Global,B,sugar,,A3,,,28,Study,User,1.25,,Anger,A3,1752,,,-1,-1,,,,,1
65dd6ca1a06e762a792e26f2,uzy5imun6b,Ex2A_Prolific,1,47,2024-02-29T01:29:46+00:00,1.918349981308,4,Stim_B.csv,Global.csv,Global,B,sour,,A4,,,29,Study,User,1.25,,Anger,A4,1735,,,-1,-1,,,,,1
65dd6ca1a06e762a792e26f2,uzy5imun6b,Ex2A_Prolific,1,48,2024-02-29T01:29:48+00:00,2.0409159660339,4,Stim_B.csv,Global.csv,Global,B,candy,,A5,,,30,Study,User,1.25,,Anger,A5,1853,,,-1,-1,,,,,1
65dd6ca1a06e762a792e26f2,uzy5imun6b,Ex2A_Prolific,1,49,2024-02-29T01:29:50+00:00,2.249085187912,4,Stim_B.csv,Global.csv,Global,B,tart,,A6,,,31,Study,User,1.25,,Anger,A6,2068,,,-1,-1,,,,,1
65dd6ca1a06e762a792e26f2,uzy5imun6b,Ex2A_Prolific,1,50,2024-02-29T01:29:52+00:00,1.9180898666382,4,Stim_B.csv,Global.csv,Global,B,chocolate,,A7,,,32,Study,User,1.25,,Anger,A7,1736,,,-1,-1,,,,,1
65dd6ca1a06e762a792e26f2,uzy5imun6b,Ex2A_Prolific,1,51,2024-02-29T01:29:57+00:00,4.7163741588593,4,Stim_B.csv,Global.csv,Global,B,nice,,A8,,,33,Study,User,1.25,,Anger,A8,4528,,,-1,-1,,,,,1
65dd6ca1a06e762a792e26f2,uzy5imun6b,Ex2A_Prolific,1,52,2024-02-29T01:29:59+00:00,2.0397348403931,4,Stim_B.csv,Global.csv,Global,B,taste,,A9,,,34,Study,User,1.25,,Anger,A9,1850,,,-1,-1,,,,,1
65dd6ca1a06e762a792e26f2,uzy5imun6b,Ex2A_Prolific,1,53,2024-02-29T01:30:01+00:00,1.8528399467468,4,Stim_B.csv,Global.csv,Global,B,cake,,A10,,,35,Study,User,1.25,,Anger,A10,1684,,,-1,-1,,,,,1
65dd6ca1a06e762a792e26f2,uzy5imun6b,Ex2A_Prolific,1,54,2024-02-29T01:30:03+00:00,1.899560213089,4,Stim_B.csv,Global.csv,Global,B,good,,A11,,,36,Study,User,1.25,,Anger,A11,1703,,,-1,-1,,,,,1
65dd6ca1a06e762a792e26f2,uzy5imun6b,Ex2A_Prolific,1,55,2024-02-29T01:30:05+00:00,1.8585488796234,4,Stim_B.csv,Global.csv,Global,B,tooth,,A12,,,37,Study,User,1.25,,Anger,A12,1668,,,-1,-1,,,,,1
65dd6ca1a06e762a792e26f2,uzy5imun6b,Ex2A_Prolific,1,56,2024-02-29T01:30:14+00:00,9.2703859806061,4,Stim_B.csv,Global.csv,Global,B,,,,,,0,Instruct,User,-,"You have completed this section and will now be asked to judge your ability to remember the list items you just studied. You will have four seconds to type your rating. Please click next to continue.",,Next_List1,9072,,,-1,-1,,,,,1
65dd6ca1a06e762a792e26f2,uzy5imun6b,Ex2A_Prolific,1,57,2024-02-29T01:30:19+00:00,5.2089891433716,4,Stim_B.csv,Global.csv,Global,B,,,,,,0,JOL_GLOBAL,5,5,"How likely are you to correctly recall each of the items you just studied?|Type your response on a scale from 0-100 and then press Enter (0 = WILL NOT REMEMBER; 100 = DEFINITELY WILL REMEMBER).",Related,JOL3,5001,,,2440,2675,,,,60,1
65dd6ca1a06e762a792e26f2,uzy5imun6b,Ex2A_Prolific,1,58,2024-02-29T01:30:24+00:00,4.6721279621124,4,Stim_B.csv,Global.csv,Global,B,,,,,,0,Instruct,User,4,"You have completed this section. Please click next.",,Instruct166,4478,,,-1,-1,,,,,1
65dd6ca1a06e762a792e26f2,uzy5imun6b,Ex2A_Prolific,1,59,2024-02-29T01:30:55+00:00,31.099218845367,4,Stim_B.csv,Global.csv,Global,B,,,,,,0,FreeRecall,30,30,"Please type as many words as you can that begin with the letter ""S"". The computer will automatically advance to the next screen in 30 seconds.",,FILLER,30901,"sweet, ",0,4071,5954,0,0,,,0.953
65dd6ca1a06e762a792e26f2,uzy5imun6b,Ex2A_Prolific,1,60,2024-02-29T01:31:42+00:00,46.903241157532,4,Stim_B.csv,Global.csv,Global,B,,,,,,0,Instruct,User,4,"You have completed this section. Please click next.",,Instruct166,46679,,,-1,-1,,,,,0.13
65dd6ca1a06e762a792e26f2,uzy5imun6b,Ex2A_Prolific,1,61,2024-02-29T01:31:53+00:00,10.79093503952,4,Stim_B.csv,Global.csv,Global,B,,,,,,0,Instruct,User,4,"You will now complete a memory test for the words you just studied. Please type as many words from the previous list as you can seperated by a comma. Spelling will not count against you and you can recall the words in any order. This test will be timed for one minute, and the computer will automatically advance once time is up. Click next when you are ready to begin.",,Instruct1666,10591,,,-1,-1,,,,,1
65dd6ca1a06e762a792e26f2,uzy5imun6b,Ex2A_Prolific,1,62,2024-02-29T01:32:53+00:00,60.183338880539,4,Stim_B.csv,Global.csv,Global,B,,,,,,0,FreeRecall,60,1.25,"Please type as many words as you can from the previous study list in any order. Please separate each word with a comma. Spelling will not count against you. This screen will automatically advance in one minute.",,RECALL_Test,60001,"sweet, candy, chocolate, good, tooth, tart, ",0,1001,17464,0,0,,,0.775
65dd6ca1a06e762a792e26f2,uzy5imun6b,Ex2A_Prolific,1,63,2024-02-29T01:32:57+00:00,3.7880389690399,4,Stim_B.csv,Global.csv,Global,B,,,,,,0,Instruct,User,3,"You will now be presented with a new study list. Click next when you are ready to begin.",,NEXT_LIST,3473,,,-1,-1,,,,,1
65dd6ca1a06e762a792e26f2,uzy5imun6b,Ex2A_Prolific,1,64,2024-02-29T01:32:59+00:00,2.1941730976105,4,Stim_B.csv,Global.csv,Global,B,table,,T1,,,38,Study,User,1.25,,Trash,T1,2013,,,-1,-1,,,,,1
65dd6ca1a06e762a792e26f2,uzy5imun6b,Ex2A_Prolific,1,65,2024-02-29T01:33:00+00:00,1.5554440021515,4,Stim_B.csv,Global.csv,Global,B,swivel,,T2,,,39,Study,User,1.25,,Trash,T2,1362,,,-1,-1,,,,,1
65dd6ca1a06e762a792e26f2,uzy5imun6b,Ex2A_Prolific,1,66,2024-02-29T01:33:02+00:00,1.497761964798,4,Stim_B.csv,Global.csv,Global,B,rocking,,T3,,,40,Study,User,1.25,,Trash,T3,1309,,,-1,-1,,,,,1
65dd6ca1a06e762a792e26f2,uzy5imun6b,Ex2A_Prolific,1,67,2024-02-29T01:33:04+00:00,2.0619359016418,4,Stim_B.csv,Global.csv,Global,B,recliner,,T4,,,41,Study,User,1.25,,Trash,T4,1878,,,-1,-1,,,,,1
65dd6ca1a06e762a792e26f2,uzy5imun6b,Ex2A_Prolific,1,68,2024-02-29T01:33:16+00:00,12.54595208168,4,Stim_B.csv,Global.csv,Global,B,seat,,T5,,,42,Study,User,1.25,,Trash,T5,12351,,,-1,-1,,,,,1
65dd6ca1a06e762a792e26f2,uzy5imun6b,Ex2A_Prolific,1,69,2024-02-29T01:33:19+00:00,2.068186044693,4,Stim_B.csv,Global.csv,Global,B,stool,,T6,,,43,Study,User,1.25,,Trash,T6,1870,,,-1,-1,,,,,1
65dd6ca1a06e762a792e26f2,uzy5imun6b,Ex2A_Prolific,1,70,2024-02-29T01:33:23+00:00,4.1463918685913,4,Stim_B.csv,Global.csv,Global,B,desk,,T7,,,44,Study,User,1.25,,Trash,T7,3959,,,-1,-1,,,,,1
65dd6ca1a06e762a792e26f2,uzy5imun6b,Ex2A_Prolific,1,71,2024-02-29T01:33:26+00:00,3.8231110572815,4,Stim_B.csv,Global.csv,Global,B,couch,,T8,,,45,Study,User,1.25,,Trash,T8,3632,,,-1,-1,,,,,1
65dd6ca1a06e762a792e26f2,uzy5imun6b,Ex2A_Prolific,1,72,2024-02-29T01:33:28+00:00,1.9296870231628,4,Stim_B.csv,Global.csv,Global,B,sit,,T9,,,46,Study,User,1.25,,Trash,T9,1738,,,-1,-1,,,,,1
65dd6ca1a06e762a792e26f2,uzy5imun6b,Ex2A_Prolific,1,73,2024-02-29T01:33:31+00:00,2.2846510410309,4,Stim_B.csv,Global.csv,Global,B,sofa,,T10,,,47,Study,User,1.25,,Trash,T10,2091,,,-1,-1,,,,,1
65dd6ca1a06e762a792e26f2,uzy5imun6b,Ex2A_Prolific,1,74,2024-02-29T01:33:34+00:00,3.2422578334808,4,Stim_B.csv,Global.csv,Global,B,bench,,T11,,,48,Study,User,1.25,,Trash,T11,3061,,,-1,-1,,,,,1
65dd6ca1a06e762a792e26f2,uzy5imun6b,Ex2A_Prolific,1,75,2024-02-29T01:33:36+00:00,2.084988117218,4,Stim_B.csv,Global.csv,Global,B,sitting,,T12,,,49,Study,User,1.25,,Trash,T12,1890,,,-1,-1,,,,,1
65dd6ca1a06e762a792e26f2,uzy5imun6b,Ex2A_Prolific,1,76,2024-02-29T01:33:38+00:00,1.8789670467377,4,Stim_B.csv,Global.csv,Global,B,,,,,,0,Instruct,User,-,"You have completed this section and will now be asked to judge your ability to remember the list items you just studied. You will have four seconds to type your rating. Please click next to continue.",,Next_List1,1704,,,-1,-1,,,,,1
65dd6ca1a06e762a792e26f2,uzy5imun6b,Ex2A_Prolific,1,77,2024-02-29T01:33:43+00:00,5.2040319442749,4,Stim_B.csv,Global.csv,Global,B,,,,,,0,JOL_GLOBAL,5,5,"How likely are you to correctly recall each of the items you just studied?|Type your response on a scale from 0-100 and then press Enter (0 = WILL NOT REMEMBER; 100 = DEFINITELY WILL REMEMBER).",Related,JOL4,5001,,,1964,2226,,,,65,1
65dd6ca1a06e762a792e26f2,uzy5imun6b,Ex2A_Prolific,1,78,2024-02-29T01:33:44+00:00,1.0793299674988,4,Stim_B.csv,Global.csv,Global,B,,,,,,0,Instruct,User,-,"You have completed this section. Please click next.",,Instruct166,854,,,-1,-1,,,,,1
65dd6ca1a06e762a792e26f2,uzy5imun6b,Ex2A_Prolific,1,79,2024-02-29T01:34:15+00:00,30.740321159363,4,Stim_B.csv,Global.csv,Global,B,,,,,,0,FreeRecall,30,30,"Please type as many words as you can that begin with the letter ""R"". The computer will automatically advance to the next screen in 30 seconds.",,FILLER,30496,"recliner, ",0,7085,9432,0,0,,,0.857
65dd6ca1a06e762a792e26f2,uzy5imun6b,Ex2A_Prolific,1,80,2024-02-29T01:35:12+00:00,56.637276887894,4,Stim_B.csv,Global.csv,Global,B,,,,,,0,Instruct,User,4,"You have completed this section. Please click next.",,Instruct166,56368,,,-1,-1,,,,,0.127
65dd6ca1a06e762a792e26f2,uzy5imun6b,Ex2A_Prolific,1,81,2024-02-29T01:35:16+00:00,4.901792049408,4,Stim_B.csv,Global.csv,Global,B,,,,,,0,Instruct,User,4,"You will now complete a memory test for the words you just studied. Please type as many words from the previous list as you can seperated by a comma. Spelling will not count against you and you can recall the words in any order. This test will be timed for one minute, and the computer will automatically advance once time is up. Click next when you are ready to begin.",,Instruct1666,4696,,,-1,-1,,,,,1
65dd6ca1a06e762a792e26f2,uzy5imun6b,Ex2A_Prolific,1,82,2024-02-29T01:36:17+00:00,60.443915843964,4,Stim_B.csv,Global.csv,Global,B,,,,,,0,FreeRecall,60,60,"Please type as many words as you can from the previous study list in any order. Please separate each word with a comma. Spelling will not count against you. This screen will automatically advance in one minute.",,RECALL_Test,60249,"chair, swivel, sit, sitting, bench, table, recliner, sofa, ",0,2590,48107,0,0,,,0.971
65dd6ca1a06e762a792e26f2,uzy5imun6b,Ex2A_Prolific,1,83,2024-02-29T01:38:50+00:00,153.05398607254,4,Stim_B.csv,Global.csv,Global,B,,,,,,0,Instruct,User,3,"You will now be presented with a new study list. Click next when you are ready to begin.",,NEXT_LIST,152720,,,-1,-1,,,,,0.097
65dd6ca1a06e762a792e26f2,uzy5imun6b,Ex2A_Prolific,1,84,2024-02-29T01:38:52+00:00,2.2952909469604,4,Stim_B.csv,Global.csv,Global,B,climber,,D1,,,50,Study,User,1.25,,Doctor,D1,2032,,,-1,-1,,,,,1
65dd6ca1a06e762a792e26f2,uzy5imun6b,Ex2A_Prolific,1,85,2024-02-29T01:38:54+00:00,1.6897640228271,4,Stim_B.csv,Global.csv,Global,B,hill,,D2,,,51,Study,User,1.25,,Doctor,D2,1496,,,-1,-1,,,,,1
65dd6ca1a06e762a792e26f2,uzy5imun6b,Ex2A_Prolific,1,86,2024-02-29T01:38:57+00:00,2.5486180782318,4,Stim_B.csv,Global.csv,Global,B,climb,,D3,,,52,Study,User,1.25,,Doctor,D3,2355,,,-1,-1,,,,,1
65dd6ca1a06e762a792e26f2,uzy5imun6b,Ex2A_Prolific,1,87,2024-02-29T01:38:58+00:00,1.8716139793396,4,Stim_B.csv,Global.csv,Global,B,molehill,,D4,,,53,Study,User,1.25,,Doctor,D4,1439,,,-1,-1,,,,,1
65dd6ca1a06e762a792e26f2,uzy5imun6b,Ex2A_Prolific,1,88,2024-02-29T01:39:01+00:00,2.1595449447632,4,Stim_B.csv,Global.csv,Global,B,peak,,D5,,,54,Study,User,1.25,,Doctor,D5,1974,,,-1,-1,,,,,1
65dd6ca1a06e762a792e26f2,uzy5imun6b,Ex2A_Prolific,1,89,2024-02-29T01:39:03+00:00,2.9270169734955,4,Stim_B.csv,Global.csv,Global,B,valley,,D6,,,55,Study,User,1.25,,Doctor,D6,2737,,,-1,-1,,,,,1
65dd6ca1a06e762a792e26f2,uzy5imun6b,Ex2A_Prolific,1,90,2024-02-29T01:39:23+00:00,19.106371164322,4,Stim_B.csv,Global.csv,Global,B,summit,,D7,,,56,Study,User,1.25,,Doctor,D7,18902,,,-1,-1,,,,,1
65dd6ca1a06e762a792e26f2,uzy5imun6b,Ex2A_Prolific,1,91,2024-02-29T01:39:24+00:00,1.8460199832916,4,Stim_B.csv,Global.csv,Global,B,steep,,D8,,,57,Study,User,1.25,,Doctor,D8,1642,,,-1,-1,,,,,1
65dd6ca1a06e762a792e26f2,uzy5imun6b,Ex2A_Prolific,1,92,2024-02-29T01:39:26+00:00,1.8614058494568,4,Stim_B.csv,Global.csv,Global,B,ski,,D9,,,58,Study,User,1.25,,Doctor,D9,1671,,,-1,-1,,,,,1
65dd6ca1a06e762a792e26f2,uzy5imun6b,Ex2A_Prolific,1,93,2024-02-29T01:39:28+00:00,1.9177360534668,4,Stim_B.csv,Global.csv,Global,B,bike,,D10,,,59,Study,User,1.25,,Doctor,D10,1730,,,-1,-1,,,,,1
65dd6ca1a06e762a792e26f2,uzy5imun6b,Ex2A_Prolific,1,94,2024-02-29T01:39:31+00:00,2.9272289276123,4,Stim_B.csv,Global.csv,Global,B,goat,,D11,,,60,Study,User,1.25,,Doctor,D11,2741,,,-1,-1,,,,,1
65dd6ca1a06e762a792e26f2,uzy5imun6b,Ex2A_Prolific,1,95,2024-02-29T01:39:33+00:00,2.0949811935425,4,Stim_B.csv,Global.csv,Global,B,glacier,,D12,,,61,Study,User,1.25,,Doctor,D12,1905,,,-1,-1,,,,,1
65dd6ca1a06e762a792e26f2,uzy5imun6b,Ex2A_Prolific,1,96,2024-02-29T01:39:35+00:00,1.7219939231873,4,Stim_B.csv,Global.csv,Global,B,,,,,,0,Instruct,User,-,"You have completed this section and will now be asked to judge your ability to remember the list items you just studied. You will have four seconds to type your rating. Please click next to continue.",,Next_List1,1525,,,-1,-1,,,,,1
65dd6ca1a06e762a792e26f2,uzy5imun6b,Ex2A_Prolific,1,97,2024-02-29T01:39:40+00:00,5.1942009925842,4,Stim_B.csv,Global.csv,Global,B,,,,,,0,JOL_GLOBAL,5,1.25,"How likely are you to correctly recall each of the items you just studied?|Type your response on a scale from 0-100 and then press Enter (0 = WILL NOT REMEMBER; 100 = DEFINITELY WILL REMEMBER).",Related,JOL5,5002,,,1487,1831,,,,35,1
65dd6ca1a06e762a792e26f2,uzy5imun6b,Ex2A_Prolific,1,98,2024-02-29T01:39:46+00:00,5.4258959293365,4,Stim_B.csv,Global.csv,Global,B,,,,,,0,Instruct,User,4,"You have completed this section. Please click next.",,Instruct166,5236,,,-1,-1,,,,,1
65dd6ca1a06e762a792e26f2,uzy5imun6b,Ex2A_Prolific,1,99,2024-02-29T01:40:16+00:00,30.361098051071,4,Stim_B.csv,Global.csv,Global,B,,,,,,0,FreeRecall,30,30,"Please type as many words as you can that begin with the letter ""T"". The computer will automatically advance to the next screen in 30 seconds.",,FILLER,30157,"glacier, ski, climb, climber, sit, sitting, summit, valler, hill",0,631,21271,0,0,,,0.971
65dd6ca1a06e762a792e26f2,uzy5imun6b,Ex2A_Prolific,1,100,2024-02-29T01:40:18+00:00,2.0848450660706,4,Stim_B.csv,Global.csv,Global,B,,,,,,0,Instruct,User,-,"You have completed this section. Please click next.",,Instruct166,1775,,,-1,-1,,,,,0.714
65dd6ca1a06e762a792e26f2,uzy5imun6b,Ex2A_Prolific,1,101,2024-02-29T01:40:22+00:00,4.3202328681946,4,Stim_B.csv,Global.csv,Global,B,,,,,,0,Instruct,User,4,"You will now complete a memory test for the words you just studied. Please type as many words from the previous list as you can seperated by a comma. Spelling will not count against you and you can recall the words in any order. This test will be timed for one minute, and the computer will automatically advance once time is up. Click next when you are ready to begin.",,Instruct1666,4126,,,-1,-1,,,,,1
65dd6ca1a06e762a792e26f2,uzy5imun6b,Ex2A_Prolific,1,102,2024-02-29T01:41:23+00:00,60.593566179276,4,Stim_B.csv,Global.csv,Global,B,,,,,,0,FreeRecall,60,60,"Please type as many words as you can from the previous study list in any order. Please separate each word with a comma. Spelling will not count against you. This screen will automatically advance in one minute.",,RECALL_Test,60390,"sit, sitting, climb, hill, summit, valley, glacier, ski,",0,1681,22867,0,0,,,0.766
65dd6ca1a06e762a792e26f2,uzy5imun6b,Ex2A_Prolific,1,103,2024-02-29T01:44:43+00:00,200.19740200043,4,Stim_B.csv,Global.csv,Global,B,,,,,,0,Instruct,User,3,"You will now be presented with a new study list. Click next when you are ready to begin.",,NEXT_LIST,199870,,,-1,-1,,,,,0.229
65dd6ca1a06e762a792e26f2,uzy5imun6b,Ex2A_Prolific,1,104,2024-02-29T01:44:45+00:00,2.0670638084412,4,Stim_B.csv,Global.csv,Global,B,band,,S1,,,62,Study,User,1.25,,Slow,S1,1781,,,-1,-1,,,,,1
65dd6ca1a06e762a792e26f2,uzy5imun6b,Ex2A_Prolific,1,105,2024-02-29T01:44:47+00:00,1.8959171772003,4,Stim_B.csv,Global.csv,Global,B,concert,,S2,,,63,Study,User,1.25,,Slow,S2,1707,,,-1,-1,,,,,1
65dd6ca1a06e762a792e26f2,uzy5imun6b,Ex2A_Prolific,1,106,2024-02-29T01:44:50+00:00,2.8601689338684,4,Stim_B.csv,Global.csv,Global,B,jazz,,S3,,,64,Study,User,1.25,,Slow,S3,2672,,,-1,-1,,,,,1
65dd6ca1a06e762a792e26f2,uzy5imun6b,Ex2A_Prolific,1,107,2024-02-29T01:44:52+00:00,1.9377720355988,4,Stim_B.csv,Global.csv,Global,B,symphony,,S4,,,65,Study,User,1.25,,Slow,S4,1750,,,-1,-1,,,,,1
65dd6ca1a06e762a792e26f2,uzy5imun6b,Ex2A_Prolific,1,108,2024-02-29T01:44:54+00:00,1.6499178409576,4,Stim_B.csv,Global.csv,Global,B,orchestra,,S5,,,66,Study,User,1.25,,Slow,S5,1452,,,-1,-1,,,,,1
65dd6ca1a06e762a792e26f2,uzy5imun6b,Ex2A_Prolific,1,109,2024-02-29T01:44:55+00:00,1.9533071517944,4,Stim_B.csv,Global.csv,Global,B,rhythm,,S6,,,67,Study,User,1.25,,Slow,S6,1766,,,-1,-1,,,,,1
65dd6ca1a06e762a792e26f2,uzy5imun6b,Ex2A_Prolific,1,110,2024-02-29T01:44:59+00:00,3.0460238456726,4,Stim_B.csv,Global.csv,Global,B,radio,,S7,,,68,Study,User,1.25,,Slow,S7,2853,,,-1,-1,,,,,1
65dd6ca1a06e762a792e26f2,uzy5imun6b,Ex2A_Prolific,1,111,2024-02-29T01:45:10+00:00,11.31032705307,4,Stim_B.csv,Global.csv,Global,B,melody,,S8,,,69,Study,User,1.25,,Slow,S8,11122,,,-1,-1,,,,,1
65dd6ca1a06e762a792e26f2,uzy5imun6b,Ex2A_Prolific,1,112,2024-02-29T01:45:12+00:00,1.9725580215454,4,Stim_B.csv,Global.csv,Global,B,piano,,S9,,,70,Study,User,1.25,,Slow,S9,1786,,,-1,-1,,,,,1
65dd6ca1a06e762a792e26f2,uzy5imun6b,Ex2A_Prolific,1,113,2024-02-29T01:45:14+00:00,2.2123799324036,4,Stim_B.csv,Global.csv,Global,B,sound,,S10,,,71,Study,User,1.25,,Slow,S10,2025,,,-1,-1,,,,,1
65dd6ca1a06e762a792e26f2,uzy5imun6b,Ex2A_Prolific,1,114,2024-02-29T01:45:16+00:00,1.8472950458527,4,Stim_B.csv,Global.csv,Global,B,instrument,,S11,,,72,Study,User,1.25,,Slow,S11,1628,,,-1,-1,,,,,1
65dd6ca1a06e762a792e26f2,uzy5imun6b,Ex2A_Prolific,1,115,2024-02-29T01:45:18+00:00,1.8255469799042,4,Stim_B.csv,Global.csv,Global,B,note,,S12,,,73,Study,User,1.25,,Slow,S12,1634,,,-1,-1,,,,,1
65dd6ca1a06e762a792e26f2,uzy5imun6b,Ex2A_Prolific,1,116,2024-02-29T01:45:20+00:00,2.0147759914398,4,Stim_B.csv,Global.csv,Global,B,,,,,,0,Instruct,User,-,"You have completed this section and will now be asked to judge your ability to remember the list items you just studied. You will have four seconds to type your rating. Please click next to continue.",,Next_List1,1826,,,-1,-1,,,,,1
65dd6ca1a06e762a792e26f2,uzy5imun6b,Ex2A_Prolific,1,117,2024-02-29T01:45:25+00:00,5.1993880271912,4,Stim_B.csv,Global.csv,Global,B,,,,,,0,JOL_GLOBAL,5,5,"How likely are you to correctly recall each of the items you just studied?|Type your response on a scale from 0-100 and then press Enter (0 = WILL NOT REMEMBER; 100 = DEFINITELY WILL REMEMBER).",Related,JOL6,5001,,,2030,2330,,,,40,1
65dd6ca1a06e762a792e26f2,uzy5imun6b,Ex2A_Prolific,1,118,2024-02-29T01:45:26+00:00,1.4659221172333,4,Stim_B.csv,Global.csv,Global,B,,,,,,0,Instruct,User,-,"You have completed this section. Please click next.",,Instruct166,1273,,,-1,-1,,,,,1
65dd6ca1a06e762a792e26f2,uzy5imun6b,Ex2A_Prolific,1,119,2024-02-29T01:45:57+00:00,30.538442850113,4,Stim_B.csv,Global.csv,Global,B,,,,,,0,FreeRecall,30,30,"Please type as many words as you can that begin with the letter ""L"". The computer will automatically advance to the next screen in 30 seconds.",,FILLER,30339,,0,-1,-1,0,0,,,0.778
65dd6ca1a06e762a792e26f2,uzy5imun6b,Ex2A_Prolific,1,120,2024-02-29T01:46:33+00:00,36.080728054047,4,Stim_B.csv,Global.csv,Global,B,,,,,,0,Instruct,User,1.25,"You have completed this section. Please click next.",,Instruct166,35859,,,-1,-1,,,,,0.143
65dd6ca1a06e762a792e26f2,uzy5imun6b,Ex2A_Prolific,1,121,2024-02-29T01:46:37+00:00,4.2184100151062,4,Stim_B.csv,Global.csv,Global,B,,,,,,0,Instruct,User,1.25,"You will now complete a memory test for the words you just studied. Please type as many words from the previous list as you can seperated by a comma. Spelling will not count against you and you can recall the words in any order. This test will be timed for one minute, and the computer will automatically advance once time is up. Click next when you are ready to begin.",,Instruct1666,4011,,,-1,-1,,,,,1
65dd6ca1a06e762a792e26f2,uzy5imun6b,Ex2A_Prolific,1,122,2024-02-29T01:47:38+00:00,60.697812080383,4,Stim_B.csv,Global.csv,Global,B,,,,,,0,FreeRecall,60,60,"Please type as many words as you can from the previous study list in any order. Please separate each word with a comma. Spelling will not count against you. This screen will automatically advance in one minute.",,RECALL_Test,60492,"piano, radio, melody, symphany, orchestra, band, ",0,918,23260,0,0,,,0.801
65dd6ca1a06e762a792e26f2,uzy5imun6b,Ex2A_Prolific,1,123,2024-02-29T01:48:20+00:00,42.231101989746,4,Stim_B.csv,Global.csv,Global,B,,,,,,0,Instruct,User,3,"You will now be presented with a new study list. Click next when you are ready to begin.",,NEXT_LIST,41925,,,-1,-1,,,,,0.2
65dd6ca1a06e762a792e26f2,uzy5imun6b,Ex2A_Prolific,1,124,2024-02-29T01:48:22+00:00,2.0687758922577,4,Stim_B.csv,Global.csv,Global,B,foam,,RR1,,,74,Study,User,1.25,,River,RR1,1871,,,-1,-1,,,,,1
65dd6ca1a06e762a792e26f2,uzy5imun6b,Ex2A_Prolific,1,125,2024-02-29T01:48:24+00:00,1.8865530490875,4,Stim_B.csv,Global.csv,Global,B,latex,,RR2,,,75,Study,User,1.25,,River,RR2,1692,,,-1,-1,,,,,1
65dd6ca1a06e762a792e26f2,uzy5imun6b,Ex2A_Prolific,1,126,2024-02-29T01:48:26+00:00,2.2761080265045,4,Stim_B.csv,Global.csv,Global,B,galoshes,,RR3,,,76,Study,User,1.25,,River,RR3,2084,,,-1,-1,,,,,1
65dd6ca1a06e762a792e26f2,uzy5imun6b,Ex2A_Prolific,1,127,2024-02-29T01:48:29+00:00,2.2484719753265,4,Stim_B.csv,Global.csv,Global,B,tire,,RR4,,,77,Study,User,1.25,,River,RR4,2053,,,-1,-1,,,,,1
65dd6ca1a06e762a792e26f2,uzy5imun6b,Ex2A_Prolific,1,128,2024-02-29T01:48:34+00:00,5.7471470832825,4,Stim_B.csv,Global.csv,Global,B,flexible,,RR5,,,78,Study,User,1.25,,River,RR5,5556,,,-1,-1,,,,,1
65dd6ca1a06e762a792e26f2,uzy5imun6b,Ex2A_Prolific,1,129,2024-02-29T01:48:36+00:00,2.0791518688202,4,Stim_B.csv,Global.csv,Global,B,elastic,,RR6,,,79,Study,User,1.25,,River,RR6,1883,,,-1,-1,,,,,1
65dd6ca1a06e762a792e26f2,uzy5imun6b,Ex2A_Prolific,1,130,2024-02-29T01:48:39+00:00,2.5190160274506,4,Stim_B.csv,Global.csv,Global,B,gloves,,RR7,,,80,Study,User,1.25,,River,RR7,2321,,,-1,-1,,,,,1
65dd6ca1a06e762a792e26f2,uzy5imun6b,Ex2A_Prolific,1,131,2024-02-29T01:48:43+00:00,3.838084936142,4,Stim_B.csv,Global.csv,Global,B,eraser,,RR8,,,81,Study,User,1.25,,River,RR8,3649,,,-1,-1,,,,,1
65dd6ca1a06e762a792e26f2,uzy5imun6b,Ex2A_Prolific,1,132,2024-02-29T01:48:49+00:00,6.1631519794464,4,Stim_B.csv,Global.csv,Global,B,bounce,,RR9,,,82,Study,User,1.25,,River,RR9,1772,,,-1,-1,,,,,1
65dd6ca1a06e762a792e26f2,uzy5imun6b,Ex2A_Prolific,1,133,2024-02-29T01:48:51+00:00,2.0337500572205,4,Stim_B.csv,Global.csv,Global,B,ball,,RR10,,,83,Study,User,1.25,,River,RR10,1838,,,-1,-1,,,,,1
65dd6ca1a06e762a792e26f2,uzy5imun6b,Ex2A_Prolific,1,134,2024-02-29T01:48:53+00:00,2.1190841197968,4,Stim_B.csv,Global.csv,Global,B,soles,,RR11,,,84,Study,User,1.25,,River,RR11,1906,,,-1,-1,,,,,1
65dd6ca1a06e762a792e26f2,uzy5imun6b,Ex2A_Prolific,1,135,2024-02-29T01:48:55+00:00,1.8633668422699,4,Stim_B.csv,Global.csv,Global,B,springy,,RR12,,,85,Study,User,1.25,,River,RR12,1668,,,-1,-1,,,,,1
65dd6ca1a06e762a792e26f2,uzy5imun6b,Ex2A_Prolific,1,136,2024-02-29T01:48:56+00:00,1.4743530750275,4,Stim_B.csv,Global.csv,Global,B,,,,,,0,Instruct,User,-,"You have completed this section and will now be asked to judge your ability to remember the list items you just studied. You will have four seconds to type your rating. Please click next to continue.",,Next_List1,1275,,,-1,-1,,,,,1
65dd6ca1a06e762a792e26f2,uzy5imun6b,Ex2A_Prolific,1,137,2024-02-29T01:49:02+00:00,5.1871581077576,4,Stim_B.csv,Global.csv,Global,B,,,,,,0,JOL_GLOBAL,5,5,"How likely are you to correctly recall each of the items you just studied?|Type your response on a scale from 0-100 and then press Enter (0 = WILL NOT REMEMBER; 100 = DEFINITELY WILL REMEMBER).",Related,JOL7,5001,,,1256,1455,,,,45,1
65dd6ca1a06e762a792e26f2,uzy5imun6b,Ex2A_Prolific,1,138,2024-02-29T01:49:03+00:00,1.3928649425507,4,Stim_B.csv,Global.csv,Global,B,,,,,,0,Instruct,User,-,"You have completed this section. Please click next.",,Instruct166,1211,,,-1,-1,,,,,1
65dd6ca1a06e762a792e26f2,uzy5imun6b,Ex2A_Prolific,1,139,2024-02-29T01:49:34+00:00,30.86708688736,4,Stim_B.csv,Global.csv,Global,B,,,,,,0,FreeRecall,30,30,"Please type as many words as you can that begin with the letter ""C"". The computer will automatically advance to the next screen in 30 seconds.",,FILLER,30662,,0,-1,-1,0,0,,,0.871
65dd6ca1a06e762a792e26f2,uzy5imun6b,Ex2A_Prolific,1,140,2024-02-29T01:49:37+00:00,3.2693610191345,4,Stim_B.csv,Global.csv,Global,B,,,,,,0,Instruct,User,-,"You have completed this section. Please click next.",,Instruct166,3016,,,-1,-1,,,,,0.5
65dd6ca1a06e762a792e26f2,uzy5imun6b,Ex2A_Prolific,1,141,2024-02-29T01:49:42+00:00,5.0359451770782,4,Stim_B.csv,Global.csv,Global,B,,,,,,0,Instruct,User,4,"You will now complete a memory test for the words you just studied. Please type as many words from the previous list as you can seperated by a comma. Spelling will not count against you and you can recall the words in any order. This test will be timed for one minute, and the computer will automatically advance once time is up. Click next when you are ready to begin.",,Instruct1666,4841,,,-1,-1,,,,,1
65dd6ca1a06e762a792e26f2,uzy5imun6b,Ex2A_Prolific,1,142,2024-02-29T01:50:43+00:00,60.687688827515,4,Stim_B.csv,Global.csv,Global,B,,,,,,0,FreeRecall,60,60,"Please type as many words as you can from the previous study list in any order. Please separate each word with a comma. Spelling will not count against you. This screen will automatically advance in one minute.",,RECALL_Test,60496,"latex, rubber, gloves, eraser, ball, bounce, bat, ",0,796,22980,0,0,,,0.892
65dd6ca1a06e762a792e26f2,uzy5imun6b,Ex2A_Prolific,1,143,2024-02-29T01:50:58+00:00,15.431084156036,4,Stim_B.csv,Global.csv,Global,B,,,,,,0,Instruct,User,1.25,"You will now be presented with a new study list. Click next when you are ready to begin.",,NEXT_LIST,15160,,,-1,-1,,,,,0.273
65dd6ca1a06e762a792e26f2,uzy5imun6b,Ex2A_Prolific,1,144,2024-02-29T01:51:01+00:00,2.8732488155365,4,Stim_B.csv,Global.csv,Global,B,toe,,B1,,,86,Study,User,1.25,,Bread,B1,2677,,,-1,-1,,,,,1
65dd6ca1a06e762a792e26f2,uzy5imun6b,Ex2A_Prolific,1,145,2024-02-29T01:51:03+00:00,1.8976891040802,4,Stim_B.csv,Global.csv,Global,B,inch,,B2,,,87,Study,User,1.25,,Bread,B2,1705,,,-1,-1,,,,,1
65dd6ca1a06e762a792e26f2,uzy5imun6b,Ex2A_Prolific,1,146,2024-02-29T01:51:05+00:00,1.7781338691711,4,Stim_B.csv,Global.csv,Global,B,ankle,,B3,,,88,Study,User,1.25,,Bread,B3,1598,,,-1,-1,,,,,1
65dd6ca1a06e762a792e26f2,uzy5imun6b,Ex2A_Prolific,1,147,2024-02-29T01:51:07+00:00,1.9407851696014,4,Stim_B.csv,Global.csv,Global,B,shoe,,B4,,,89,Study,User,1.25,,Bread,B4,1740,,,-1,-1,,,,,1
65dd6ca1a06e762a792e26f2,uzy5imun6b,Ex2A_Prolific,1,148,2024-02-29T01:51:10+00:00,3.4829709529877,4,Stim_B.csv,Global.csv,Global,B,sandals,,B5,,,90,Study,User,1.25,,Bread,B5,3296,,,-1,-1,,,,,1
65dd6ca1a06e762a792e26f2,uzy5imun6b,Ex2A_Prolific,1,149,2024-02-29T01:51:12+00:00,1.9833118915558,4,Stim_B.csv,Global.csv,Global,B,sock,,B6,,,91,Study,User,1.25,,Bread,B6,1789,,,-1,-1,,,,,1
65dd6ca1a06e762a792e26f2,uzy5imun6b,Ex2A_Prolific,1,150,2024-02-29T01:51:16+00:00,3.7664470672607,4,Stim_B.csv,Global.csv,Global,B,hand,,B7,,,92,Study,User,1.25,,Bread,B7,3576,,,-1,-1,,,,,1
65dd6ca1a06e762a792e26f2,uzy5imun6b,Ex2A_Prolific,1,151,2024-02-29T01:51:28+00:00,11.525749921799,4,Stim_B.csv,Global.csv,Global,B,boot,,B8,,,93,Study,User,1.25,,Bread,B8,11320,,,-1,-1,,,,,1
65dd6ca1a06e762a792e26f2,uzy5imun6b,Ex2A_Prolific,1,152,2024-02-29T01:51:29+00:00,1.8727421760559,4,Stim_B.csv,Global.csv,Global,B,yard,,B9,,,94,Study,User,1.25,,Bread,B9,1677,,,-1,-1,,,,,1
65dd6ca1a06e762a792e26f2,uzy5imun6b,Ex2A_Prolific,1,153,2024-02-29T01:51:31+00:00,1.8583338260651,4,Stim_B.csv,Global.csv,Global,B,kick,,B10,,,95,Study,User,1.25,,Bread,B10,1667,,,-1,-1,,,,,1
65dd6ca1a06e762a792e26f2,uzy5imun6b,Ex2A_Prolific,1,154,2024-02-29T01:51:33+00:00,1.5567781925201,4,Stim_B.csv,Global.csv,Global,B,knee,,B11,,,96,Study,User,1.25,,Bread,B11,1372,,,-1,-1,,,,,1
65dd6ca1a06e762a792e26f2,uzy5imun6b,Ex2A_Prolific,1,155,2024-02-29T01:51:35+00:00,1.8648629188538,4,Stim_B.csv,Global.csv,Global,B,walk,,B12,,,97,Study,User,1.25,,Bread,B12,1688,,,-1,-1,,,,,1
65dd6ca1a06e762a792e26f2,uzy5imun6b,Ex2A_Prolific,1,156,2024-02-29T01:51:36+00:00,1.1596009731293,4,Stim_B.csv,Global.csv,Global,B,,,,,,0,Instruct,User,-,"You have completed this section and will now be asked to judge your ability to remember the list items you just studied. You will have four seconds to type your rating. Please click next to continue.",,Next_List1,969,,,-1,-1,,,,,1
65dd6ca1a06e762a792e26f2,uzy5imun6b,Ex2A_Prolific,1,157,2024-02-29T01:51:41+00:00,5.1788339614868,4,Stim_B.csv,Global.csv,Global,B,,,,,,0,JOL_GLOBAL,5,5,"How likely are you to correctly recall each of the items you just studied?|Type your response on a scale from 0-100 and then press Enter (0 = WILL NOT REMEMBER; 100 = DEFINITELY WILL REMEMBER).",Related,JOL8,5002,,,1019,1250,,,,45,1
65dd6ca1a06e762a792e26f2,uzy5imun6b,Ex2A_Prolific,1,158,2024-02-29T01:51:47+00:00,5.9118981361389,4,Stim_B.csv,Global.csv,Global,B,,,,,,0,Instruct,User,4,"You have completed this section. Please click next.",,Instruct166,5732,,,-1,-1,,,,,1
65dd6ca1a06e762a792e26f2,uzy5imun6b,Ex2A_Prolific,1,159,2024-02-29T01:52:18+00:00,30.927309989929,4,Stim_B.csv,Global.csv,Global,B,,,,,,0,FreeRecall,30,30,"Please type as many words as you can that begin with the letter ""W"". The computer will automatically advance to the next screen in 30 seconds.",,FILLER,30701,"walk, ",0,5671,7233,0,0,,,0.904
65dd6ca1a06e762a792e26f2,uzy5imun6b,Ex2A_Prolific,1,160,2024-02-29T01:52:45+00:00,26.771764039993,4,Stim_B.csv,Global.csv,Global,B,,,,,,0,Instruct,User,-,"You have completed this section. Please click next.",,Instruct166,26489,,,-1,-1,,,,,0.156
65dd6ca1a06e762a792e26f2,uzy5imun6b,Ex2A_Prolific,1,161,2024-02-29T01:52:50+00:00,4.9040579795837,4,Stim_B.csv,Global.csv,Global,B,,,,,,0,Instruct,User,4,"You will now complete a memory test for the words you just studied. Please type as many words from the previous list as you can seperated by a comma. Spelling will not count against you and you can recall the words in any order. This test will be timed for one minute, and the computer will automatically advance once time is up. Click next when you are ready to begin.",,Instruct1666,4707,,,-1,-1,,,,,1
65dd6ca1a06e762a792e26f2,uzy5imun6b,Ex2A_Prolific,1,162,2024-02-29T01:53:50+00:00,60.326225996017,4,Stim_B.csv,Global.csv,Global,B,,,,,,0,FreeRecall,60,60,"Please type as many words as you can from the previous study list in any order. Please separate each word with a comma. Spelling will not count against you. This screen will automatically advance in one minute.",,RECALL_Test,60105,"inch, shoe, sandal, sock, kick, knee, walk, foot, both, candle, ",0,4050,37612,0,0,,,0.903
65dd6ca1a06e762a792e26f2,uzy5imun6b,Ex2A_Prolific,1,163,2024-02-29T01:53:56+00:00,5.7417550086975,4,Stim_B.csv,Global.csv,Global,B,,,,,,0,Instruct,User,3,"You will now be presented with a new study list. Click next when you are ready to begin.",,NEXT_LIST,5281,,,-1,-1,,,,,0.455
65dd6ca1a06e762a792e26f2,uzy5imun6b,Ex2A_Prolific,1,164,2024-02-29T01:53:58+00:00,2.2418148517609,4,Stim_B.csv,Global.csv,Global,B,boy,,F1,,,98,Study,User,1.25,,Flag,F1,2061,,,-1,-1,,,,,1
65dd6ca1a06e762a792e26f2,uzy5imun6b,Ex2A_Prolific,1,165,2024-02-29T01:54:00+00:00,1.9791841506958,4,Stim_B.csv,Global.csv,Global,B,dolls,,F2,,,99,Study,User,1.25,,Flag,F2,1811,,,-1,-1,,,,,1
65dd6ca1a06e762a792e26f2,uzy5imun6b,Ex2A_Prolific,1,166,2024-02-29T01:54:02+00:00,1.9958159923553,4,Stim_B.csv,Global.csv,Global,B,pretty,,F3,,,100,Study,User,1.25,,Flag,F3,1804,,,-1,-1,,,,,1
65dd6ca1a06e762a792e26f2,uzy5imun6b,Ex2A_Prolific,1,167,2024-02-29T01:54:04+00:00,2.1801660060883,4,Stim_B.csv,Global.csv,Global,B,female,,F4,,,101,Study,User,1.25,,Flag,F4,1746,,,-1,-1,,,,,1
65dd6ca1a06e762a792e26f2,uzy5imun6b,Ex2A_Prolific,1,168,2024-02-29T01:54:06+00:00,1.8199470043182,4,Stim_B.csv,Global.csv,Global,B,dress,,F5,,,102,Study,User,1.25,,Flag,F5,1639,,,-1,-1,,,,,1
65dd6ca1a06e762a792e26f2,uzy5imun6b,Ex2A_Prolific,1,169,2024-02-29T01:54:08+00:00,1.8270587921143,4,Stim_B.csv,Global.csv,Global,B,date,,F6,,,103,Study,User,1.25,,Flag,F6,1645,,,-1,-1,,,,,1
65dd6ca1a06e762a792e26f2,uzy5imun6b,Ex2A_Prolific,1,170,2024-02-29T01:54:10+00:00,1.9057531356812,4,Stim_B.csv,Global.csv,Global,B,beautiful,,F7,,,104,Study,User,1.25,,Flag,F7,1740,,,-1,-1,,,,,1
65dd6ca1a06e762a792e26f2,uzy5imun6b,Ex2A_Prolific,1,171,2024-02-29T01:54:12+00:00,1.9294929504395,4,Stim_B.csv,Global.csv,Global,B,daughter,,F8,,,105,Study,User,1.25,,Flag,F8,1745,,,-1,-1,,,,,1
65dd6ca1a06e762a792e26f2,uzy5imun6b,Ex2A_Prolific,1,172,2024-02-29T01:54:13+00:00,1.8777289390564,4,Stim_B.csv,Global.csv,Global,B,sister,,F9,,,106,Study,User,1.25,,Flag,F9,1698,,,-1,-1,,,,,1
65dd6ca1a06e762a792e26f2,uzy5imun6b,Ex2A_Prolific,1,173,2024-02-29T01:54:17+00:00,3.4702930450439,4,Stim_B.csv,Global.csv,Global,B,cute,,F10,,,107,Study,User,1.25,,Flag,F10,3294,,,-1,-1,,,,,1
65dd6ca1a06e762a792e26f2,uzy5imun6b,Ex2A_Prolific,1,174,2024-02-29T01:54:19+00:00,1.6803121566772,4,Stim_B.csv,Global.csv,Global,B,niece,,F11,,,108,Study,User,1.25,,Flag,F11,1475,,,-1,-1,,,,,1
65dd6ca1a06e762a792e26f2,uzy5imun6b,Ex2A_Prolific,1,175,2024-02-29T01:54:20+00:00,1.8197009563446,4,Stim_B.csv,Global.csv,Global,B,young,,F12,,,109,Study,User,1.25,,Flag,F12,1630,,,-1,-1,,,,,1
65dd6ca1a06e762a792e26f2,uzy5imun6b,Ex2A_Prolific,1,176,2024-02-29T01:54:22+00:00,1.2818219661713,4,Stim_B.csv,Global.csv,Global,B,,,,,,0,Instruct,User,-,"You have completed this section and will now be asked to judge your ability to remember the list items you just studied. You will have four seconds to type your rating. Please click next to continue.",,Next_List1,1097,,,-1,-1,,,,,1
65dd6ca1a06e762a792e26f2,uzy5imun6b,Ex2A_Prolific,1,177,2024-02-29T01:54:27+00:00,5.2103409767151,4,Stim_B.csv,Global.csv,Global,B,,,,,,0,JOL_GLOBAL,5,5,"How likely are you to correctly recall each of the items you just studied?|Type your response on a scale from 0-100 and then press Enter (0 = WILL NOT REMEMBER; 100 = DEFINITELY WILL REMEMBER).",Related,JOL9,5003,,,1442,1851,,,,30,1
65dd6ca1a06e762a792e26f2,uzy5imun6b,Ex2A_Prolific,1,178,2024-02-29T01:54:32+00:00,4.8866789340973,4,Stim_B.csv,Global.csv,Global,B,,,,,,0,Instruct,User,4,"You have completed this section. Please click next.",,Instruct166,4697,,,-1,-1,,,,,1
65dd6ca1a06e762a792e26f2,uzy5imun6b,Ex2A_Prolific,1,179,2024-02-29T01:55:03+00:00,31.147485971451,4,Stim_B.csv,Global.csv,Global,B,,,,,,0,FreeRecall,30,30,"Please type as many words as you can that begin with the letter ""M"". The computer will automatically advance to the next screen in 30 seconds.",,FILLER,30942,"mother, ",0,2320,3691,0,0,,,0.672
65dd6ca1a06e762a792e26f2,uzy5imun6b,Ex2A_Prolific,1,180,2024-02-29T01:55:38+00:00,34.740890979767,4,Stim_B.csv,Global.csv,Global,B,,,,,,0,Instruct,User,4,"You have completed this section. Please click next.",,Instruct166,34501,,,-1,-1,,,,,0.146
65dd6ca1a06e762a792e26f2,uzy5imun6b,Ex2A_Prolific,1,181,2024-02-29T01:55:43+00:00,4.9130899906158,4,Stim_B.csv,Global.csv,Global,B,,,,,,0,Instruct,User,4,"You will now complete a memory test for the words you just studied. Please type as many words from the previous list as you can seperated by a comma. Spelling will not count against you and you can recall the words in any order. This test will be timed for one minute, and the computer will automatically advance once time is up. Click next when you are ready to begin.",,Instruct1666,4434,,,-1,-1,,,,,1
65dd6ca1a06e762a792e26f2,uzy5imun6b,Ex2A_Prolific,1,182,2024-02-29T01:56:43+00:00,60.360768079758,4,Stim_B.csv,Global.csv,Global,B,,,,,,0,FreeRecall,60,60,"Please type as many words as you can from the previous study list in any order. Please separate each word with a comma. Spelling will not count against you. This screen will automatically advance in one minute.",,RECALL_Test,60087,"daughter, niece, girl, doll, cute, pretty, ",0,1189,20284,0,0,,,0.733
65dd6ca1a06e762a792e26f2,uzy5imun6b,Ex2A_Prolific,1,183,2024-02-29T01:58:00+00:00,77.194832086563,4,Stim_B.csv,Global.csv,Global,B,,,,,,0,Instruct,User,3,"You will now be presented with a new study list. Click next when you are ready to begin.",,NEXT_LIST,76853,,,-1,-1,,,,,0.172
65dd6ca1a06e762a792e26f2,uzy5imun6b,Ex2A_Prolific,1,184,2024-02-29T01:58:02+00:00,2.0665938854218,4,Stim_B.csv,Global.csv,Global,B,white,,SS1,,,110,Study,User,1.25,,Shirt,SS1,1848,,,-1,-1,,,,,1
65dd6ca1a06e762a792e26f2,uzy5imun6b,Ex2A_Prolific,1,185,2024-02-29T01:58:04+00:00,1.8360941410065,4,Stim_B.csv,Global.csv,Global,B,gray,,SS2,,,111,Study,User,1.25,,Shirt,SS2,1638,,,-1,-1,,,,,1
65dd6ca1a06e762a792e26f2,uzy5imun6b,Ex2A_Prolific,1,186,2024-02-29T01:58:06+00:00,1.8542950153351,4,Stim_B.csv,Global.csv,Global,B,brown,,SS3,,,112,Study,User,1.25,,Shirt,SS3,1661,,,-1,-1,,,,,1
65dd6ca1a06e762a792e26f2,uzy5imun6b,Ex2A_Prolific,1,187,2024-02-29T01:58:08+00:00,2.0899169445038,4,Stim_B.csv,Global.csv,Global,B,coal,,SS4,,,113,Study,User,1.25,,Shirt,SS4,1895,,,-1,-1,,,,,1
65dd6ca1a06e762a792e26f2,uzy5imun6b,Ex2A_Prolific,1,188,2024-02-29T01:58:11+00:00,2.7080419063568,4,Stim_B.csv,Global.csv,Global,B,dark,,SS5,,,114,Study,User,1.25,,Shirt,SS5,2521,,,-1,-1,,,,,1
65dd6ca1a06e762a792e26f2,uzy5imun6b,Ex2A_Prolific,1,189,2024-02-29T01:58:13+00:00,2.1938121318817,4,Stim_B.csv,Global.csv,Global,B,color,,SS6,,,115,Study,User,1.25,,Shirt,SS6,2009,,,-1,-1,,,,,1
65dd6ca1a06e762a792e26f2,uzy5imun6b,Ex2A_Prolific,1,190,2024-02-29T01:58:15+00:00,1.7222239971161,4,Stim_B.csv,Global.csv,Global,B,funeral,,SS7,,,116,Study,User,1.25,,Shirt,SS7,1524,,,-1,-1,,,,,1
65dd6ca1a06e762a792e26f2,uzy5imun6b,Ex2A_Prolific,1,191,2024-02-29T01:58:17+00:00,1.9370658397675,4,Stim_B.csv,Global.csv,Global,B,blue,,SS8,,,117,Study,User,1.25,,Shirt,SS8,1741,,,-1,-1,,,,,1
65dd6ca1a06e762a792e26f2,uzy5imun6b,Ex2A_Prolific,1,192,2024-02-29T01:58:18+00:00,1.9467849731445,4,Stim_B.csv,Global.csv,Global,B,charred,,SS9,,,118,Study,User,1.25,,Shirt,SS9,1751,,,-1,-1,,,,,1
65dd6ca1a06e762a792e26f2,uzy5imun6b,Ex2A_Prolific,1,193,2024-02-29T01:58:21+00:00,2.0367271900177,4,Stim_B.csv,Global.csv,Global,B,ink,,SS10,,,119,Study,User,1.25,,Shirt,SS10,1834,,,-1,-1,,,,,1
65dd6ca1a06e762a792e26f2,uzy5imun6b,Ex2A_Prolific,1,194,2024-02-29T01:58:22+00:00,1.8172969818115,4,Stim_B.csv,Global.csv,Global,B,death,,SS11,,,120,Study,User,1.25,,Shirt,SS11,1621,,,-1,-1,,,,,1
65dd6ca1a06e762a792e26f2,uzy5imun6b,Ex2A_Prolific,1,195,2024-02-29T01:58:24+00:00,1.9297678470612,4,Stim_B.csv,Global.csv,Global,B,cat,,SS12,,,121,Study,User,1.25,,Shirt,SS12,1732,,,-1,-1,,,,,1
65dd6ca1a06e762a792e26f2,uzy5imun6b,Ex2A_Prolific,1,196,2024-02-29T01:58:26+00:00,1.8776431083679,4,Stim_B.csv,Global.csv,Global,B,,,,,,0,Instruct,User,1.25,"You have completed this section and will now be asked to judge your ability to remember the list items you just studied. You will have four seconds to type your rating. Please click next to continue.",,Next_List1,1683,,,-1,-1,,,,,1
65dd6ca1a06e762a792e26f2,uzy5imun6b,Ex2A_Prolific,1,197,2024-02-29T01:58:31+00:00,5.1919040679932,4,Stim_B.csv,Global.csv,Global,B,,,,,,0,JOL_GLOBAL,5,5,"How likely are you to correctly recall each of the items you just studied?|Type your response on a scale from 0-100 and then press Enter (0 = WILL NOT REMEMBER; 100 = DEFINITELY WILL REMEMBER).",Related,JOL10,5002,,,1168,1329,,,,55,1
65dd6ca1a06e762a792e26f2,uzy5imun6b,Ex2A_Prolific,1,198,2024-02-29T01:58:33+00:00,1.3217158317566,4,Stim_B.csv,Global.csv,Global,B,,,,,,0,Instruct,User,-,"You have completed this section. Please click next.",,Instruct166,1118,,,-1,-1,,,,,1
65dd6ca1a06e762a792e26f2,uzy5imun6b,Ex2A_Prolific,1,199,2024-02-29T01:59:03+00:00,30.199460029602,4,Stim_B.csv,Global.csv,Global,B,,,,,,0,FreeRecall,30,30,"Please type as many words as you can that begin with the letter ""K"". The computer will automatically advance to the next screen in 30 seconds.",,FILLER,30001,"gray, blue, charred, brown, death, funeral, blue, ",0,1195,29643,0,0,,,1
65dd6ca1a06e762a792e26f2,uzy5imun6b,Ex2A_Prolific,1,200,2024-02-29T01:59:10+00:00,7.0218689441681,4,Stim_B.csv,Global.csv,Global,B,,,,,,0,Instruct,User,1.25,"You have completed this section. Please click next.",,Instruct166,6813,,,-1,-1,,,,,1
65dd6ca1a06e762a792e26f2,uzy5imun6b,Ex2A_Prolific,1,201,2024-02-29T01:59:15+00:00,4.7523040771484,4,Stim_B.csv,Global.csv,Global,B,,,,,,0,Instruct,User,4,"You will now complete a memory test for the words you just studied. Please type as many words from the previous list as you can seperated by a comma. Spelling will not count against you and you can recall the words in any order. This test will be timed for one minute, and the computer will automatically advance once time is up. Click next when you are ready to begin.",,Instruct1666,4556,,,-1,-1,,,,,1
65dd6ca1a06e762a792e26f2,uzy5imun6b,Ex2A_Prolific,1,202,2024-02-29T02:00:15+00:00,60.278640031815,4,Stim_B.csv,Global.csv,Global,B,,,,,,0,FreeRecall,60,60,"Please type as many words as you can from the previous study list in any order. Please separate each word with a comma. Spelling will not count against you. This screen will automatically advance in one minute.",,RECALL_Test,60053,"gray, blue, brown, funeral, death, charred, ",0,1008,15616,0,0,,,0.669
65dd6ca1a06e762a792e26f2,uzy5imun6b,Ex2A_Prolific,1,203,2024-02-29T02:00:27+00:00,11.681021928787,4,Stim_B.csv,Global.csv,Global,B,,,,,,0,Instruct,User,-,"You have completed this section. Please click next.",,Instruct7,11457,,,-1,-1,,,,,0.333
65dd6ca1a06e762a792e26f2,uzy5imun6b,Ex2A_Prolific,1,204,2024-02-29T02:00:29+00:00,2.0885050296783,4,Stim_B.csv,Global.csv,Global,B,,,,,,0,Instruct,User,-,"The following screen will ask you a few questions abour your experience today. You must complete these questions to receive credit.",,Instruct8,1889,,,-1,-1,,,,,1
