Username,ID,ExperimentName,Session,Trial,Date,TimeDif,"Condition Number","Stimuli File","Order File","Condition Description","Condition Notes",Stimuli*Cue,Stimuli*Answer,Stimuli*Shuffle,"Stimuli*Stimuli Notes",Stimuli*Value,Procedure*Item,"Procedure*Trial Type","Procedure*Max Time","Procedure*Min Time",Procedure*Text,"Procedure*Procedure Notes",Procedure*Shuffle,Response*RT,Response*Response,Response*Accuracy,Response*RTfirst,Response*RTlast,Response*strictAcc,Response*lenientAcc,Response*focus,Response*JOL,Response*Focus
60c9003363ca81b7d3b004a4,wtvpzwesh9,Ex2A_Prolific,1,1,2024-02-29T01:59:28+00:00,6.1854729652405,3,Stim_A.csv,Global.csv,Global,A,,,,,,0,Instruct,-,5,"In this section, you will be presented with a series of words. Please study each word carefully. Your memory will be tested!",Initial_Instruct,Instruct1,5999,,,-1,-1,,,,,1
60c9003363ca81b7d3b004a4,wtvpzwesh9,Ex2A_Prolific,1,2,2024-02-29T01:59:39+00:00,10.862033128738,3,Stim_A.csv,Global.csv,Global,A,,,,,,0,Instruct,User,5,"After studying each LIST of words, you will be asked to rate your ability to remember ALL of the words in the list on a later test. You will make these ratings using a scale of 0 to 100. A rating of 0 = WILL NOT REMEMBER, while a rating of 100 = WILL DEFINITELY REMEMBER. Please try to be as accurate as possible with these ratings!",,BLIPBLOOP,10619,,,-1,-1,,,,,1
60c9003363ca81b7d3b004a4,wtvpzwesh9,Ex2A_Prolific,1,3,2024-02-29T01:59:41+00:00,2.0393090248108,3,Stim_A.csv,Global.csv,Global,A,,,,,,0,Instruct,User,1.25,"You will now begin the study. Click next when you are ready to begin.",,Instruct16,1802,,,-1,-1,,,,,1
60c9003363ca81b7d3b004a4,wtvpzwesh9,Ex2A_Prolific,1,4,2024-02-29T01:59:44+00:00,2.7004618644714,3,Stim_A.csv,Global.csv,Global,A,pane,,Win_1,,,2,Study,User,1.25,,Window,Win_1,2436,,,-1,-1,,,,,1
60c9003363ca81b7d3b004a4,wtvpzwesh9,Ex2A_Prolific,1,5,2024-02-29T01:59:45+00:00,1.682137966156,3,Stim_A.csv,Global.csv,Global,A,sill,,Win_2,,,3,Study,User,1.25,,Window,Win_2,1437,,,-1,-1,,,,,1
60c9003363ca81b7d3b004a4,wtvpzwesh9,Ex2A_Prolific,1,6,2024-02-29T01:59:49+00:00,3.7990579605103,3,Stim_A.csv,Global.csv,Global,A,shutter,,Win_3,,,4,Study,User,1.25,,Window,Win_3,3559,,,-1,-1,,,,,1
60c9003363ca81b7d3b004a4,wtvpzwesh9,Ex2A_Prolific,1,7,2024-02-29T01:59:59+00:00,9.6736950874329,3,Stim_A.csv,Global.csv,Global,A,curtain,,Win_4,,,5,Study,User,1.25,,Window,Win_4,9437,,,-1,-1,,,,,1
60c9003363ca81b7d3b004a4,wtvpzwesh9,Ex2A_Prolific,1,8,2024-02-29T02:00:03+00:00,3.8961539268494,3,Stim_A.csv,Global.csv,Global,A,door,,Win_5,,,6,Study,User,1.25,,Window,Win_5,3654,,,-1,-1,,,,,1
60c9003363ca81b7d3b004a4,wtvpzwesh9,Ex2A_Prolific,1,9,2024-02-29T02:00:08+00:00,5.4575340747833,3,Stim_A.csv,Global.csv,Global,A,ledge,,Win_6,,,7,Study,User,1.25,,Window,Win_6,5220,,,-1,-1,,,,,1
60c9003363ca81b7d3b004a4,wtvpzwesh9,Ex2A_Prolific,1,10,2024-02-29T02:00:38+00:00,29.457525968552,3,Stim_A.csv,Global.csv,Global,A,glass,,Win_7,,,8,Study,User,1.25,,Window,Win_7,29219,,,-1,-1,,,,,1
60c9003363ca81b7d3b004a4,wtvpzwesh9,Ex2A_Prolific,1,11,2024-02-29T02:00:40+00:00,2.1368889808655,3,Stim_A.csv,Global.csv,Global,A,view,,Win_8,,,9,Study,User,1.25,,Window,Win_8,1882,,,-1,-1,,,,,1
60c9003363ca81b7d3b004a4,wtvpzwesh9,Ex2A_Prolific,1,12,2024-02-29T02:00:42+00:00,1.8711080551147,3,Stim_A.csv,Global.csv,Global,A,screen,,Win_9,,,10,Study,User,1.25,,Window,Win_9,1637,,,-1,-1,,,,,1
60c9003363ca81b7d3b004a4,wtvpzwesh9,Ex2A_Prolific,1,13,2024-02-29T02:00:45+00:00,3.0142750740051,3,Stim_A.csv,Global.csv,Global,A,shade,,Win_10,,,11,Study,User,1.25,,Window,Win_10,2767,,,-1,-1,,,,,1
60c9003363ca81b7d3b004a4,wtvpzwesh9,Ex2A_Prolific,1,14,2024-02-29T02:00:47+00:00,2.1319680213928,3,Stim_A.csv,Global.csv,Global,A,open,,Win_11,,,12,Study,User,1.25,,Window,Win_11,1899,,,-1,-1,,,,,1
60c9003363ca81b7d3b004a4,wtvpzwesh9,Ex2A_Prolific,1,15,2024-02-29T02:00:50+00:00,3.0200929641724,3,Stim_A.csv,Global.csv,Global,A,frame,,Win_12,,,13,Study,User,1.25,,Window,Win_12,2780,,,-1,-1,,,,,1
60c9003363ca81b7d3b004a4,wtvpzwesh9,Ex2A_Prolific,1,16,2024-02-29T02:00:52+00:00,2.6975429058075,3,Stim_A.csv,Global.csv,Global,A,,,,,,0,Instruct,User,-,"You have completed this section and will now be asked to judge your ability to remember the list items you just studied. You will have four seconds to type your rating. Please click next to continue.",,Next_List1,2467,,,-1,-1,,,,,1
60c9003363ca81b7d3b004a4,wtvpzwesh9,Ex2A_Prolific,1,17,2024-02-29T02:00:58+00:00,5.2354340553284,3,Stim_A.csv,Global.csv,Global,A,,,,,,0,JOL_GLOBAL,5,5,"How likely are you to correctly recall each of the items you just studied?|Type your response on a scale from 0-100 and then press Enter (0 = WILL NOT REMEMBER; 100 = DEFINITELY WILL REMEMBER).",Related,JOL1,5003,,,2282,3404,,,,50,1
60c9003363ca81b7d3b004a4,wtvpzwesh9,Ex2A_Prolific,1,18,2024-02-29T02:01:02+00:00,4.3399651050568,3,Stim_A.csv,Global.csv,Global,A,,,,,,0,Instruct,User,4,"You have completed this section. Please click next.",,Instruct166,4103,,,-1,-1,,,,,1
60c9003363ca81b7d3b004a4,wtvpzwesh9,Ex2A_Prolific,1,19,2024-02-29T02:01:32+00:00,30.246652841568,3,Stim_A.csv,Global.csv,Global,A,,,,,,0,FreeRecall,30,30,"Please type as many words as you can that begin with the letter ""L"". The computer will automatically advance to the next screen in 30 seconds.",,FILLER,30001,"LAME LATE LOVE LOVER LAVA LAKE LURE LIGHT LOR",0,7260,28827,0,0,,,1
60c9003363ca81b7d3b004a4,wtvpzwesh9,Ex2A_Prolific,1,20,2024-02-29T02:01:35+00:00,2.5381300449371,3,Stim_A.csv,Global.csv,Global,A,,,,,,0,Instruct,User,-,"You have completed this section. Please click next.",,Instruct166,2253,,,-1,-1,,,,,1
60c9003363ca81b7d3b004a4,wtvpzwesh9,Ex2A_Prolific,1,21,2024-02-29T02:01:49+00:00,13.95916390419,3,Stim_A.csv,Global.csv,Global,A,,,,,,0,Instruct,User,4,"You will now complete a memory test for the words you just studied. Please type as many words from the previous list as you can seperated by a comma. Spelling will not count against you and you can recall the words in any order. This test will be timed for one minute, and the computer will automatically advance once time is up. Click next when you are ready to begin.",,Instruct1666,13714,,,-1,-1,,,,,1
60c9003363ca81b7d3b004a4,wtvpzwesh9,Ex2A_Prolific,1,22,2024-02-29T02:02:49+00:00,60.252081155777,3,Stim_A.csv,Global.csv,Global,A,,,,,,0,FreeRecall,60,60,"Please type as many words as you can from the previous study list in any order. Please separate each word with a comma. Spelling will not count against you. This screen will automatically advance in one minute.",,RECALL_Test,60001,"PANE SHUTTER OPEN SHADE ",0,988,10426,0,0,,,1
60c9003363ca81b7d3b004a4,wtvpzwesh9,Ex2A_Prolific,1,23,2024-02-29T02:02:52+00:00,2.6358618736267,3,Stim_A.csv,Global.csv,Global,A,,,,,,0,Instruct,User,1.25,"You will now be presented with a new study list. Click next when you are ready to begin.",,NEXT_LIST,2364,,,-1,-1,,,,,1
60c9003363ca81b7d3b004a4,wtvpzwesh9,Ex2A_Prolific,1,24,2024-02-29T02:03:04+00:00,12.369884967804,3,Stim_A.csv,Global.csv,Global,A,sandpaper,,R1,,,14,Study,User,1.25,,Rough,R1,12135,,,-1,-1,,,,,1
60c9003363ca81b7d3b004a4,wtvpzwesh9,Ex2A_Prolific,1,25,2024-02-29T02:03:06+00:00,2.1732020378113,3,Stim_A.csv,Global.csv,Global,A,smooth,,R2,,,15,Study,User,1.25,,Rough,R2,1931,,,-1,-1,,,,,1
60c9003363ca81b7d3b004a4,wtvpzwesh9,Ex2A_Prolific,1,26,2024-02-29T02:03:08+00:00,1.8690121173859,3,Stim_A.csv,Global.csv,Global,A,coarse,,R3,,,16,Study,User,1.25,,Rough,R3,1638,,,-1,-1,,,,,1
60c9003363ca81b7d3b004a4,wtvpzwesh9,Ex2A_Prolific,1,27,2024-02-29T02:03:10+00:00,2.1754560470581,3,Stim_A.csv,Global.csv,Global,A,tough,,R4,,,17,Study,User,1.25,,Rough,R4,1930,,,-1,-1,,,,,1
60c9003363ca81b7d3b004a4,wtvpzwesh9,Ex2A_Prolific,1,28,2024-02-29T02:03:15+00:00,4.9368929862976,3,Stim_A.csv,Global.csv,Global,A,rugged,,R5,,,18,Study,User,1.25,,Rough,R5,4700,,,-1,-1,,,,,1
60c9003363ca81b7d3b004a4,wtvpzwesh9,Ex2A_Prolific,1,29,2024-02-29T02:03:18+00:00,2.4216628074646,3,Stim_A.csv,Global.csv,Global,A,bumpy,,R6,,,19,Study,User,1.25,,Rough,R6,2187,,,-1,-1,,,,,1
60c9003363ca81b7d3b004a4,wtvpzwesh9,Ex2A_Prolific,1,30,2024-02-29T02:03:20+00:00,2.1700780391693,3,Stim_A.csv,Global.csv,Global,A,jagged,,R7,,,20,Study,User,1.25,,Rough,R7,1928,,,-1,-1,,,,,1
60c9003363ca81b7d3b004a4,wtvpzwesh9,Ex2A_Prolific,1,31,2024-02-29T02:03:22+00:00,2.1108751296997,3,Stim_A.csv,Global.csv,Global,A,riders,,R8,,,21,Study,User,1.25,,Rough,R8,1868,,,-1,-1,,,,,1
60c9003363ca81b7d3b004a4,wtvpzwesh9,Ex2A_Prolific,1,32,2024-02-29T02:03:24+00:00,2.0760128498077,3,Stim_A.csv,Global.csv,Global,A,uneven,,R9,,,22,Study,User,1.25,,Rough,R9,1840,,,-1,-1,,,,,1
60c9003363ca81b7d3b004a4,wtvpzwesh9,Ex2A_Prolific,1,33,2024-02-29T02:03:26+00:00,1.6579830646515,3,Stim_A.csv,Global.csv,Global,A,road,,R10,,,23,Study,User,1.25,,Rough,R10,1425,,,-1,-1,,,,,1
60c9003363ca81b7d3b004a4,wtvpzwesh9,Ex2A_Prolific,1,34,2024-02-29T02:03:29+00:00,3.3844969272614,3,Stim_A.csv,Global.csv,Global,A,ready,,R11,,,24,Study,User,1.25,,Rough,R11,3144,,,-1,-1,,,,,1
60c9003363ca81b7d3b004a4,wtvpzwesh9,Ex2A_Prolific,1,35,2024-02-29T02:03:32+00:00,2.6755740642548,3,Stim_A.csv,Global.csv,Global,A,sand,,R12,,,25,Study,User,1.25,,Rough,R12,2440,,,-1,-1,,,,,1
60c9003363ca81b7d3b004a4,wtvpzwesh9,Ex2A_Prolific,1,36,2024-02-29T02:03:36+00:00,4.2587919235229,3,Stim_A.csv,Global.csv,Global,A,,,,,,0,Instruct,User,-,"You have completed this section and will now be asked to judge your ability to remember the list items you just studied. You will have four seconds to type your rating. Please click next to continue.",,Next_List1,4020,,,-1,-1,,,,,1
60c9003363ca81b7d3b004a4,wtvpzwesh9,Ex2A_Prolific,1,37,2024-02-29T02:03:41+00:00,5.238480091095,3,Stim_A.csv,Global.csv,Global,A,,,,,,0,JOL_GLOBAL,5,5,"How likely are you to correctly recall each of the items you just studied?|Type your response on a scale from 0-100 and then press Enter (0 = WILL NOT REMEMBER; 100 = DEFINITELY WILL REMEMBER).",Unrelated,JOL2,5002,,,1916,2091,,,,30,1
60c9003363ca81b7d3b004a4,wtvpzwesh9,Ex2A_Prolific,1,38,2024-02-29T02:03:43+00:00,1.9015729427338,3,Stim_A.csv,Global.csv,Global,A,,,,,,0,Instruct,User,-,"You have completed this section. Please click next.",,Instruct166,1667,,,-1,-1,,,,,1
60c9003363ca81b7d3b004a4,wtvpzwesh9,Ex2A_Prolific,1,39,2024-02-29T02:04:13+00:00,30.259262084961,3,Stim_A.csv,Global.csv,Global,A,,,,,,0,FreeRecall,30,30,"Please type as many words as you can that begin with the letter ""M"". The computer will automatically advance to the next screen in 30 seconds.",,FILLER,30002,"MAN MANY MORE MATE MADE MAKE MINT MELON MELONY MELODY MANDATE MARBLE MOP MELT ME",0,1607,29976,0,0,,,1
60c9003363ca81b7d3b004a4,wtvpzwesh9,Ex2A_Prolific,1,40,2024-02-29T02:04:19+00:00,5.7595200538635,3,Stim_A.csv,Global.csv,Global,A,,,,,,0,Instruct,User,4,"You have completed this section. Please click next.",,Instruct166,5501,,,-1,-1,,,,,1
60c9003363ca81b7d3b004a4,wtvpzwesh9,Ex2A_Prolific,1,41,2024-02-29T02:04:24+00:00,4.4335558414459,3,Stim_A.csv,Global.csv,Global,A,,,,,,0,Instruct,User,4,"You will now complete a memory test for the words you just studied. Please type as many words from the previous list as you can seperated by a comma. Spelling will not count against you and you can recall the words in any order. This test will be timed for one minute, and the computer will automatically advance once time is up. Click next when you are ready to begin.",,Instruct1666,4197,,,-1,-1,,,,,1
60c9003363ca81b7d3b004a4,wtvpzwesh9,Ex2A_Prolific,1,42,2024-02-29T02:05:24+00:00,60.265413045883,3,Stim_A.csv,Global.csv,Global,A,,,,,,0,FreeRecall,60,60,"Please type as many words as you can from the previous study list in any order. Please separate each word with a comma. Spelling will not count against you. This screen will automatically advance in one minute.",,RECALL_Test,60000,"TOUGH JADE SANDPAPER SAND SHUTTER COARSE ",0,895,39673,0,0,,,1
60c9003363ca81b7d3b004a4,wtvpzwesh9,Ex2A_Prolific,1,43,2024-02-29T02:05:28+00:00,3.9720139503479,3,Stim_A.csv,Global.csv,Global,A,,,,,,0,Instruct,User,3,"You will now be presented with a new study list. Click next when you are ready to begin.",,NEXT_LIST,3699,,,-1,-1,,,,,1
60c9003363ca81b7d3b004a4,wtvpzwesh9,Ex2A_Prolific,1,44,2024-02-29T02:05:32+00:00,3.8855860233307,3,Stim_A.csv,Global.csv,Global,A,rage,,A1,,,26,Study,User,1.25,,Anger,A1,3652,,,-1,-1,,,,,1
60c9003363ca81b7d3b004a4,wtvpzwesh9,Ex2A_Prolific,1,45,2024-02-29T02:05:34+00:00,1.8700051307678,3,Stim_A.csv,Global.csv,Global,A,mad,,A2,,,27,Study,User,1.25,,Anger,A2,1637,,,-1,-1,,,,,1
60c9003363ca81b7d3b004a4,wtvpzwesh9,Ex2A_Prolific,1,46,2024-02-29T02:05:36+00:00,2.8537340164185,3,Stim_A.csv,Global.csv,Global,A,enrage,,A3,,,28,Study,User,1.25,,Anger,A3,2619,,,-1,-1,,,,,1
60c9003363ca81b7d3b004a4,wtvpzwesh9,Ex2A_Prolific,1,47,2024-02-29T02:05:39+00:00,2.2633090019226,3,Stim_A.csv,Global.csv,Global,A,fury,,A4,,,29,Study,User,1.25,,Anger,A4,2021,,,-1,-1,,,,,1
60c9003363ca81b7d3b004a4,wtvpzwesh9,Ex2A_Prolific,1,48,2024-02-29T02:05:41+00:00,2.1247029304504,3,Stim_A.csv,Global.csv,Global,A,temper,,A5,,,30,Study,User,1.25,,Anger,A5,1885,,,-1,-1,,,,,1
60c9003363ca81b7d3b004a4,wtvpzwesh9,Ex2A_Prolific,1,49,2024-02-29T02:05:43+00:00,2.5494449138641,3,Stim_A.csv,Global.csv,Global,A,ire,,A6,,,31,Study,User,1.25,,Anger,A6,2315,,,-1,-1,,,,,1
60c9003363ca81b7d3b004a4,wtvpzwesh9,Ex2A_Prolific,1,50,2024-02-29T02:05:46+00:00,2.782879114151,3,Stim_A.csv,Global.csv,Global,A,wrath,,A7,,,32,Study,User,1.25,,Anger,A7,2549,,,-1,-1,,,,,1
60c9003363ca81b7d3b004a4,wtvpzwesh9,Ex2A_Prolific,1,51,2024-02-29T02:05:48+00:00,2.1631100177765,3,Stim_A.csv,Global.csv,Global,A,mean,,A8,,,33,Study,User,1.25,,Anger,A8,1915,,,-1,-1,,,,,1
60c9003363ca81b7d3b004a4,wtvpzwesh9,Ex2A_Prolific,1,52,2024-02-29T02:05:50+00:00,2.1896278858185,3,Stim_A.csv,Global.csv,Global,A,hatred,,A9,,,34,Study,User,1.25,,Anger,A9,1946,,,-1,-1,,,,,1
60c9003363ca81b7d3b004a4,wtvpzwesh9,Ex2A_Prolific,1,53,2024-02-29T02:05:52+00:00,1.7986409664154,3,Stim_A.csv,Global.csv,Global,A,fight,,A10,,,35,Study,User,1.25,,Anger,A10,1547,,,-1,-1,,,,,1
60c9003363ca81b7d3b004a4,wtvpzwesh9,Ex2A_Prolific,1,54,2024-02-29T02:05:54+00:00,2.0579462051392,3,Stim_A.csv,Global.csv,Global,A,hate,,A11,,,36,Study,User,1.25,,Anger,A11,1825,,,-1,-1,,,,,1
60c9003363ca81b7d3b004a4,wtvpzwesh9,Ex2A_Prolific,1,55,2024-02-29T02:05:56+00:00,1.7546429634094,3,Stim_A.csv,Global.csv,Global,A,fear,,A12,,,37,Study,User,1.25,,Anger,A12,1515,,,-1,-1,,,,,1
60c9003363ca81b7d3b004a4,wtvpzwesh9,Ex2A_Prolific,1,56,2024-02-29T02:05:58+00:00,1.6112978458405,3,Stim_A.csv,Global.csv,Global,A,,,,,,0,Instruct,User,-,"You have completed this section and will now be asked to judge your ability to remember the list items you just studied. You will have four seconds to type your rating. Please click next to continue.",,Next_List1,1365,,,-1,-1,,,,,1
60c9003363ca81b7d3b004a4,wtvpzwesh9,Ex2A_Prolific,1,57,2024-02-29T02:06:03+00:00,5.2449300289154,3,Stim_A.csv,Global.csv,Global,A,,,,,,0,JOL_GLOBAL,5,5,"How likely are you to correctly recall each of the items you just studied?|Type your response on a scale from 0-100 and then press Enter (0 = WILL NOT REMEMBER; 100 = DEFINITELY WILL REMEMBER).",Related,JOL3,5001,,,1541,3569,,,,8070,1
60c9003363ca81b7d3b004a4,wtvpzwesh9,Ex2A_Prolific,1,58,2024-02-29T02:06:05+00:00,1.9421119689941,3,Stim_A.csv,Global.csv,Global,A,,,,,,0,Instruct,User,-,"You have completed this section. Please click next.",,Instruct166,1716,,,-1,-1,,,,,1
60c9003363ca81b7d3b004a4,wtvpzwesh9,Ex2A_Prolific,1,59,2024-02-29T02:06:35+00:00,30.237321138382,3,Stim_A.csv,Global.csv,Global,A,,,,,,0,FreeRecall,30,30,"Please type as many words as you can that begin with the letter ""M"". The computer will automatically advance to the next screen in 30 seconds.",,FILLER,30000,"MAD MENTOR MINT MENTHOL MEN MEAN MEANT MARBLE MANTAIN MAN",0,2829,29709,0,0,,,1
60c9003363ca81b7d3b004a4,wtvpzwesh9,Ex2A_Prolific,1,60,2024-02-29T02:06:38+00:00,3.1350729465485,3,Stim_A.csv,Global.csv,Global,A,,,,,,0,Instruct,User,-,"You have completed this section. Please click next.",,Instruct166,2866,,,-1,-1,,,,,1
60c9003363ca81b7d3b004a4,wtvpzwesh9,Ex2A_Prolific,1,61,2024-02-29T02:06:43+00:00,4.2600119113922,3,Stim_A.csv,Global.csv,Global,A,,,,,,0,Instruct,User,4,"You will now complete a memory test for the words you just studied. Please type as many words from the previous list as you can seperated by a comma. Spelling will not count against you and you can recall the words in any order. This test will be timed for one minute, and the computer will automatically advance once time is up. Click next when you are ready to begin.",,Instruct1666,4031,,,-1,-1,,,,,1
60c9003363ca81b7d3b004a4,wtvpzwesh9,Ex2A_Prolific,1,62,2024-02-29T02:07:43+00:00,60.258361101151,3,Stim_A.csv,Global.csv,Global,A,,,,,,0,FreeRecall,60,60,"Please type as many words as you can from the previous study list in any order. Please separate each word with a comma. Spelling will not count against you. This screen will automatically advance in one minute.",,RECALL_Test,60001,"TEMPER MAD ENRAGE IRE RAGE MEAN FIGHT WRATH ",0,1153,22998,0,0,,,1
60c9003363ca81b7d3b004a4,wtvpzwesh9,Ex2A_Prolific,1,63,2024-02-29T02:07:46+00:00,3.4817810058594,3,Stim_A.csv,Global.csv,Global,A,,,,,,0,Instruct,User,3,"You will now be presented with a new study list. Click next when you are ready to begin.",,NEXT_LIST,3217,,,-1,-1,,,,,1
60c9003363ca81b7d3b004a4,wtvpzwesh9,Ex2A_Prolific,1,64,2024-02-29T02:07:50+00:00,3.4014139175415,3,Stim_A.csv,Global.csv,Global,A,garbage,,T1,,,38,Study,User,1.25,,Trash,T1,3164,,,-1,-1,,,,,1
60c9003363ca81b7d3b004a4,wtvpzwesh9,Ex2A_Prolific,1,65,2024-02-29T02:07:52+00:00,2.3246071338654,3,Stim_A.csv,Global.csv,Global,A,rubbish,,T2,,,39,Study,User,1.25,,Trash,T2,2085,,,-1,-1,,,,,1
60c9003363ca81b7d3b004a4,wtvpzwesh9,Ex2A_Prolific,1,66,2024-02-29T02:07:56+00:00,4.0181639194489,3,Stim_A.csv,Global.csv,Global,A,debris,,T3,,,40,Study,User,1.25,,Trash,T3,3779,,,-1,-1,,,,,1
60c9003363ca81b7d3b004a4,wtvpzwesh9,Ex2A_Prolific,1,67,2024-02-29T02:07:59+00:00,2.5795340538025,3,Stim_A.csv,Global.csv,Global,A,dump,,T4,,,41,Study,User,1.25,,Trash,T4,2346,,,-1,-1,,,,,1
60c9003363ca81b7d3b004a4,wtvpzwesh9,Ex2A_Prolific,1,68,2024-02-29T02:08:01+00:00,2.5583219528198,3,Stim_A.csv,Global.csv,Global,A,litter,,T5,,,42,Study,User,1.25,,Trash,T5,2317,,,-1,-1,,,,,1
60c9003363ca81b7d3b004a4,wtvpzwesh9,Ex2A_Prolific,1,69,2024-02-29T02:08:03+00:00,2.1479270458221,3,Stim_A.csv,Global.csv,Global,A,landfill,,T6,,,43,Study,User,1.25,,Trash,T6,1913,,,-1,-1,,,,,1
60c9003363ca81b7d3b004a4,wtvpzwesh9,Ex2A_Prolific,1,70,2024-02-29T02:08:06+00:00,2.3019349575043,3,Stim_A.csv,Global.csv,Global,A,junk,,T7,,,44,Study,User,1.25,,Trash,T7,2067,,,-1,-1,,,,,1
60c9003363ca81b7d3b004a4,wtvpzwesh9,Ex2A_Prolific,1,71,2024-02-29T02:08:08+00:00,2.203222990036,3,Stim_A.csv,Global.csv,Global,A,waste,,T8,,,45,Study,User,1.25,,Trash,T8,1970,,,-1,-1,,,,,1
60c9003363ca81b7d3b004a4,wtvpzwesh9,Ex2A_Prolific,1,72,2024-02-29T02:08:10+00:00,2.2441990375519,3,Stim_A.csv,Global.csv,Global,A,sewage,,T9,,,46,Study,User,1.25,,Trash,T9,2006,,,-1,-1,,,,,1
60c9003363ca81b7d3b004a4,wtvpzwesh9,Ex2A_Prolific,1,73,2024-02-29T02:08:12+00:00,2.1413459777832,3,Stim_A.csv,Global.csv,Global,A,pile,,T10,,,47,Study,User,1.25,,Trash,T10,1900,,,-1,-1,,,,,1
60c9003363ca81b7d3b004a4,wtvpzwesh9,Ex2A_Prolific,1,74,2024-02-29T02:08:14+00:00,2.1572980880737,3,Stim_A.csv,Global.csv,Global,A,scraps,,T11,,,48,Study,User,1.25,,Trash,T11,1917,,,-1,-1,,,,,1
60c9003363ca81b7d3b004a4,wtvpzwesh9,Ex2A_Prolific,1,75,2024-02-29T02:08:17+00:00,2.1869759559631,3,Stim_A.csv,Global.csv,Global,A,refuse,,T12,,,49,Study,User,1.25,,Trash,T12,1946,,,-1,-1,,,,,1
60c9003363ca81b7d3b004a4,wtvpzwesh9,Ex2A_Prolific,1,76,2024-02-29T02:08:18+00:00,1.6988308429718,3,Stim_A.csv,Global.csv,Global,A,,,,,,0,Instruct,User,-,"You have completed this section and will now be asked to judge your ability to remember the list items you just studied. You will have four seconds to type your rating. Please click next to continue.",,Next_List1,1454,,,-1,-1,,,,,1
60c9003363ca81b7d3b004a4,wtvpzwesh9,Ex2A_Prolific,1,77,2024-02-29T02:08:23+00:00,5.242644071579,3,Stim_A.csv,Global.csv,Global,A,,,,,,0,JOL_GLOBAL,5,5,"How likely are you to correctly recall each of the items you just studied?|Type your response on a scale from 0-100 and then press Enter (0 = WILL NOT REMEMBER; 100 = DEFINITELY WILL REMEMBER).",Related,JOL4,5001,,,1000,2619,,,,90,1
60c9003363ca81b7d3b004a4,wtvpzwesh9,Ex2A_Prolific,1,78,2024-02-29T02:08:26+00:00,2.6858141422272,3,Stim_A.csv,Global.csv,Global,A,,,,,,0,Instruct,User,-,"You have completed this section. Please click next.",,Instruct166,2453,,,-1,-1,,,,,1
60c9003363ca81b7d3b004a4,wtvpzwesh9,Ex2A_Prolific,1,79,2024-02-29T02:08:56+00:00,30.25057888031,3,Stim_A.csv,Global.csv,Global,A,,,,,,0,FreeRecall,30,1.25,"Please type as many words as you can that begin with the letter ""N"". The computer will automatically advance to the next screen in 30 seconds.",,FILLER,30001,"NIGHT NAME NORTH NAVY NOUN NIFTY NINE N",0,2779,27272,0,0,,,1
60c9003363ca81b7d3b004a4,wtvpzwesh9,Ex2A_Prolific,1,80,2024-02-29T02:09:01+00:00,4.5277841091156,3,Stim_A.csv,Global.csv,Global,A,,,,,,0,Instruct,User,4,"You have completed this section. Please click next.",,Instruct166,4272,,,-1,-1,,,,,1
60c9003363ca81b7d3b004a4,wtvpzwesh9,Ex2A_Prolific,1,81,2024-02-29T02:09:06+00:00,4.8623077869415,3,Stim_A.csv,Global.csv,Global,A,,,,,,0,Instruct,User,4,"You will now complete a memory test for the words you just studied. Please type as many words from the previous list as you can seperated by a comma. Spelling will not count against you and you can recall the words in any order. This test will be timed for one minute, and the computer will automatically advance once time is up. Click next when you are ready to begin.",,Instruct1666,4620,,,-1,-1,,,,,1
60c9003363ca81b7d3b004a4,wtvpzwesh9,Ex2A_Prolific,1,82,2024-02-29T02:10:07+00:00,61.359206199646,3,Stim_A.csv,Global.csv,Global,A,,,,,,0,FreeRecall,60,60,"Please type as many words as you can from the previous study list in any order. Please separate each word with a comma. Spelling will not count against you. This screen will automatically advance in one minute.",,RECALL_Test,60994,"REFUSE GARBAGE RUBBISH LITTER DEBRIS LANDFILL PILE WASTE JUNK SCRAPS SEWEGE ",0,171,44816,0,0,,,0.993
60c9003363ca81b7d3b004a4,wtvpzwesh9,Ex2A_Prolific,1,83,2024-02-29T02:10:11+00:00,3.7566728591919,3,Stim_A.csv,Global.csv,Global,A,,,,,,0,Instruct,User,3,"You will now be presented with a new study list. Click next when you are ready to begin.",,NEXT_LIST,3344,,,-1,-1,,,,,0.813
60c9003363ca81b7d3b004a4,wtvpzwesh9,Ex2A_Prolific,1,84,2024-02-29T02:10:15+00:00,3.5945920944214,3,Stim_A.csv,Global.csv,Global,A,physician,,D1,,,50,Study,User,1.25,,Doctor,D1,3346,,,-1,-1,,,,,1
60c9003363ca81b7d3b004a4,wtvpzwesh9,Ex2A_Prolific,1,85,2024-02-29T02:10:16+00:00,1.826504945755,3,Stim_A.csv,Global.csv,Global,A,nurse,,D2,,,51,Study,User,1.25,,Doctor,D2,1596,,,-1,-1,,,,,1
60c9003363ca81b7d3b004a4,wtvpzwesh9,Ex2A_Prolific,1,86,2024-02-29T02:10:27+00:00,11.037910938263,3,Stim_A.csv,Global.csv,Global,A,stethoscope,,D3,,,52,Study,User,1.25,,Doctor,D3,10795,,,-1,-1,,,,,1
60c9003363ca81b7d3b004a4,wtvpzwesh9,Ex2A_Prolific,1,87,2024-02-29T02:10:30+00:00,2.2863991260529,3,Stim_A.csv,Global.csv,Global,A,surgeon,,D4,,,53,Study,User,1.25,,Doctor,D4,2052,,,-1,-1,,,,,1
60c9003363ca81b7d3b004a4,wtvpzwesh9,Ex2A_Prolific,1,88,2024-02-29T02:10:34+00:00,4.821809053421,3,Stim_A.csv,Global.csv,Global,A,patient,,D5,,,54,Study,User,1.25,,Doctor,D5,4588,,,-1,-1,,,,,1
60c9003363ca81b7d3b004a4,wtvpzwesh9,Ex2A_Prolific,1,89,2024-02-29T02:10:37+00:00,2.0970089435577,3,Stim_A.csv,Global.csv,Global,A,clinic,,D6,,,55,Study,User,1.25,,Doctor,D6,1868,,,-1,-1,,,,,1
60c9003363ca81b7d3b004a4,wtvpzwesh9,Ex2A_Prolific,1,90,2024-02-29T02:10:39+00:00,2.2309188842773,3,Stim_A.csv,Global.csv,Global,A,dentist,,D7,,,56,Study,User,1.25,,Doctor,D7,2005,,,-1,-1,,,,,1
60c9003363ca81b7d3b004a4,wtvpzwesh9,Ex2A_Prolific,1,91,2024-02-29T02:10:42+00:00,2.8771550655365,3,Stim_A.csv,Global.csv,Global,A,medicine,,D8,,,57,Study,User,1.25,,Doctor,D8,2637,,,-1,-1,,,,,1
60c9003363ca81b7d3b004a4,wtvpzwesh9,Ex2A_Prolific,1,92,2024-02-29T02:10:44+00:00,2.2968339920044,3,Stim_A.csv,Global.csv,Global,A,lawyer,,D9,,,58,Study,User,1.25,,Doctor,D9,2051,,,-1,-1,,,,,1
60c9003363ca81b7d3b004a4,wtvpzwesh9,Ex2A_Prolific,1,93,2024-02-29T02:10:46+00:00,2.3229761123657,3,Stim_A.csv,Global.csv,Global,A,health,,D10,,,59,Study,User,1.25,,Doctor,D10,2083,,,-1,-1,,,,,1
60c9003363ca81b7d3b004a4,wtvpzwesh9,Ex2A_Prolific,1,94,2024-02-29T02:10:49+00:00,2.265261888504,3,Stim_A.csv,Global.csv,Global,A,sick,,D11,,,60,Study,User,1.25,,Doctor,D11,2006,,,-1,-1,,,,,1
60c9003363ca81b7d3b004a4,wtvpzwesh9,Ex2A_Prolific,1,95,2024-02-29T02:10:51+00:00,2.3588950634003,3,Stim_A.csv,Global.csv,Global,A,cure,,D12,,,61,Study,User,1.25,,Doctor,D12,2132,,,-1,-1,,,,,1
60c9003363ca81b7d3b004a4,wtvpzwesh9,Ex2A_Prolific,1,96,2024-02-29T02:10:52+00:00,1.4347360134125,3,Stim_A.csv,Global.csv,Global,A,,,,,,0,Instruct,User,-,"You have completed this section and will now be asked to judge your ability to remember the list items you just studied. You will have four seconds to type your rating. Please click next to continue.",,Next_List1,1201,,,-1,-1,,,,,1
60c9003363ca81b7d3b004a4,wtvpzwesh9,Ex2A_Prolific,1,97,2024-02-29T02:10:55+00:00,2.9163148403168,3,Stim_A.csv,Global.csv,Global,A,,,,,,0,JOL_GLOBAL,5,1.25,"How likely are you to correctly recall each of the items you just studied?|Type your response on a scale from 0-100 and then press Enter (0 = WILL NOT REMEMBER; 100 = DEFINITELY WILL REMEMBER).",Related,JOL5,2670,,,1034,1314,,,,70,1
60c9003363ca81b7d3b004a4,wtvpzwesh9,Ex2A_Prolific,1,98,2024-02-29T02:10:57+00:00,2.1674551963806,3,Stim_A.csv,Global.csv,Global,A,,,,,,0,Instruct,User,-,"You have completed this section. Please click next.",,Instruct166,1931,,,-1,-1,,,,,1
60c9003363ca81b7d3b004a4,wtvpzwesh9,Ex2A_Prolific,1,99,2024-02-29T02:11:28+00:00,30.250619888306,3,Stim_A.csv,Global.csv,Global,A,,,,,,0,FreeRecall,30,30,"Please type as many words as you can that begin with the letter ""S"". The computer will automatically advance to the next screen in 30 seconds.",,FILLER,30002,"SAND SLIME SLIM SHORT SHIFT SHINE SHAME SHOOT SHOUT SCREAM SLOPPY ST",0,2035,29874,0,0,,,1
60c9003363ca81b7d3b004a4,wtvpzwesh9,Ex2A_Prolific,1,100,2024-02-29T02:11:33+00:00,5.1408870220184,3,Stim_A.csv,Global.csv,Global,A,,,,,,0,Instruct,User,4,"You have completed this section. Please click next.",,Instruct166,4654,,,-1,-1,,,,,1
60c9003363ca81b7d3b004a4,wtvpzwesh9,Ex2A_Prolific,1,101,2024-02-29T02:11:38+00:00,4.9060459136963,3,Stim_A.csv,Global.csv,Global,A,,,,,,0,Instruct,User,4,"You will now complete a memory test for the words you just studied. Please type as many words from the previous list as you can seperated by a comma. Spelling will not count against you and you can recall the words in any order. This test will be timed for one minute, and the computer will automatically advance once time is up. Click next when you are ready to begin.",,Instruct1666,4668,,,-1,-1,,,,,1
60c9003363ca81b7d3b004a4,wtvpzwesh9,Ex2A_Prolific,1,102,2024-02-29T02:12:15+00:00,37.223003149033,3,Stim_A.csv,Global.csv,Global,A,,,,,,0,FreeRecall,60,1.25,"Please type as many words as you can from the previous study list in any order. Please separate each word with a comma. Spelling will not count against you. This screen will automatically advance in one minute.",,RECALL_Test,36986,"PHYSICIAN NURSE DENTIST stethoscope PATIENT CURE SICK DESEASE ",0,873,34219,0,0,,,1
60c9003363ca81b7d3b004a4,wtvpzwesh9,Ex2A_Prolific,1,103,2024-02-29T02:12:20+00:00,4.7345428466797,3,Stim_A.csv,Global.csv,Global,A,,,,,,0,Instruct,User,3,"You will now be presented with a new study list. Click next when you are ready to begin.",,NEXT_LIST,4469,,,-1,-1,,,,,1
60c9003363ca81b7d3b004a4,wtvpzwesh9,Ex2A_Prolific,1,104,2024-02-29T02:12:23+00:00,2.8492150306702,3,Stim_A.csv,Global.csv,Global,A,fast,,S1,,,62,Study,User,1.25,,Slow,S1,2618,,,-1,-1,,,,,1
60c9003363ca81b7d3b004a4,wtvpzwesh9,Ex2A_Prolific,1,105,2024-02-29T02:12:25+00:00,2.1279320716858,3,Stim_A.csv,Global.csv,Global,A,snail,,S2,,,63,Study,User,1.25,,Slow,S2,1898,,,-1,-1,,,,,1
60c9003363ca81b7d3b004a4,wtvpzwesh9,Ex2A_Prolific,1,106,2024-02-29T02:12:27+00:00,1.8648889064789,3,Stim_A.csv,Global.csv,Global,A,turtle,,S3,,,64,Study,User,1.25,,Slow,S3,1620,,,-1,-1,,,,,1
60c9003363ca81b7d3b004a4,wtvpzwesh9,Ex2A_Prolific,1,107,2024-02-29T02:12:30+00:00,3.3121290206909,3,Stim_A.csv,Global.csv,Global,A,sluggish,,S4,,,65,Study,User,1.25,,Slow,S4,3069,,,-1,-1,,,,,1
60c9003363ca81b7d3b004a4,wtvpzwesh9,Ex2A_Prolific,1,108,2024-02-29T02:12:32+00:00,2.1469950675964,3,Stim_A.csv,Global.csv,Global,A,quick,,S5,,,66,Study,User,1.25,,Slow,S5,1915,,,-1,-1,,,,,1
60c9003363ca81b7d3b004a4,wtvpzwesh9,Ex2A_Prolific,1,109,2024-02-29T02:12:35+00:00,2.8601930141449,3,Stim_A.csv,Global.csv,Global,A,molasses,,S6,,,67,Study,User,1.25,,Slow,S6,2638,,,-1,-1,,,,,1
60c9003363ca81b7d3b004a4,wtvpzwesh9,Ex2A_Prolific,1,110,2024-02-29T02:12:38+00:00,2.6407039165497,3,Stim_A.csv,Global.csv,Global,A,lethargic,,S7,,,68,Study,User,1.25,,Slow,S7,2402,,,-1,-1,,,,,1
60c9003363ca81b7d3b004a4,wtvpzwesh9,Ex2A_Prolific,1,111,2024-02-29T02:12:40+00:00,2.1098771095276,3,Stim_A.csv,Global.csv,Global,A,speed,,S8,,,69,Study,User,1.25,,Slow,S8,1885,,,-1,-1,,,,,1
60c9003363ca81b7d3b004a4,wtvpzwesh9,Ex2A_Prolific,1,112,2024-02-29T02:12:42+00:00,2.0862438678741,3,Stim_A.csv,Global.csv,Global,A,delay,,S9,,,70,Study,User,1.25,,Slow,S9,1850,,,-1,-1,,,,,1
60c9003363ca81b7d3b004a4,wtvpzwesh9,Ex2A_Prolific,1,113,2024-02-29T02:12:44+00:00,2.0589470863342,3,Stim_A.csv,Global.csv,Global,A,hesitant,,S10,,,71,Study,User,1.25,,Slow,S10,1820,,,-1,-1,,,,,1
60c9003363ca81b7d3b004a4,wtvpzwesh9,Ex2A_Prolific,1,114,2024-02-29T02:12:46+00:00,1.8258910179138,3,Stim_A.csv,Global.csv,Global,A,cautious,,S11,,,72,Study,User,1.25,,Slow,S11,1582,,,-1,-1,,,,,1
60c9003363ca81b7d3b004a4,wtvpzwesh9,Ex2A_Prolific,1,115,2024-02-29T02:12:48+00:00,2.0912079811096,3,Stim_A.csv,Global.csv,Global,A,traffic,,S12,,,73,Study,User,1.25,,Slow,S12,1851,,,-1,-1,,,,,1
60c9003363ca81b7d3b004a4,wtvpzwesh9,Ex2A_Prolific,1,116,2024-02-29T02:12:51+00:00,3.0491149425507,3,Stim_A.csv,Global.csv,Global,A,,,,,,0,Instruct,User,-,"You have completed this section and will now be asked to judge your ability to remember the list items you just studied. You will have four seconds to type your rating. Please click next to continue.",,Next_List1,2820,,,-1,-1,,,,,1
60c9003363ca81b7d3b004a4,wtvpzwesh9,Ex2A_Prolific,1,117,2024-02-29T02:12:56+00:00,5.237380027771,3,Stim_A.csv,Global.csv,Global,A,,,,,,0,JOL_GLOBAL,5,5,"How likely are you to correctly recall each of the items you just studied?|Type your response on a scale from 0-100 and then press Enter (0 = WILL NOT REMEMBER; 100 = DEFINITELY WILL REMEMBER).",Related,JOL6,5004,,,1218,2913,,,,70,1
60c9003363ca81b7d3b004a4,wtvpzwesh9,Ex2A_Prolific,1,118,2024-02-29T02:12:58+00:00,2.4184460639954,3,Stim_A.csv,Global.csv,Global,A,,,,,,0,Instruct,User,-,"You have completed this section. Please click next.",,Instruct166,2191,,,-1,-1,,,,,1
60c9003363ca81b7d3b004a4,wtvpzwesh9,Ex2A_Prolific,1,119,2024-02-29T02:13:29+00:00,30.262933015823,3,Stim_A.csv,Global.csv,Global,A,,,,,,0,FreeRecall,30,30,"Please type as many words as you can that begin with the letter ""K"". The computer will automatically advance to the next screen in 30 seconds.",,FILLER,30000,"KEY KANE K",0,1635,21860,0,0,,,1
60c9003363ca81b7d3b004a4,wtvpzwesh9,Ex2A_Prolific,1,120,2024-02-29T02:14:39+00:00,70.717634916306,3,Stim_A.csv,Global.csv,Global,A,,,,,,0,Instruct,User,4,"You have completed this section. Please click next.",,Instruct166,70348,,,-1,-1,,,,,1
60c9003363ca81b7d3b004a4,wtvpzwesh9,Ex2A_Prolific,1,121,2024-02-29T02:14:45+00:00,5.5037341117859,3,Stim_A.csv,Global.csv,Global,A,,,,,,0,Instruct,User,1.25,"You will now complete a memory test for the words you just studied. Please type as many words from the previous list as you can seperated by a comma. Spelling will not count against you and you can recall the words in any order. This test will be timed for one minute, and the computer will automatically advance once time is up. Click next when you are ready to begin.",,Instruct1666,5269,,,-1,-1,,,,,1
60c9003363ca81b7d3b004a4,wtvpzwesh9,Ex2A_Prolific,1,122,2024-02-29T02:15:46+00:00,61.191015005112,3,Stim_A.csv,Global.csv,Global,A,,,,,,0,FreeRecall,60,60,"Please type as many words as you can from the previous study list in any order. Please separate each word with a comma. Spelling will not count against you. This screen will automatically advance in one minute.",,RECALL_Test,60938,"FAST SPEED TURTLE SNAIL HESISTANT QUICK TRAFIC SLUGGISH ",0,5312,47706,0,0,,,0.997
60c9003363ca81b7d3b004a4,wtvpzwesh9,Ex2A_Prolific,1,123,2024-02-29T02:15:50+00:00,3.7030718326569,3,Stim_A.csv,Global.csv,Global,A,,,,,,0,Instruct,User,3,"You will now be presented with a new study list. Click next when you are ready to begin.",,NEXT_LIST,3344,,,-1,-1,,,,,0.786
60c9003363ca81b7d3b004a4,wtvpzwesh9,Ex2A_Prolific,1,124,2024-02-29T02:15:58+00:00,7.8200211524963,3,Stim_A.csv,Global.csv,Global,A,mississippi,,RR1,,,74,Study,User,1.25,,River,RR1,7589,,,-1,-1,,,,,0.714
60c9003363ca81b7d3b004a4,wtvpzwesh9,Ex2A_Prolific,1,125,2024-02-29T02:16:00+00:00,2.0462098121643,3,Stim_A.csv,Global.csv,Global,A,creek,,RR2,,,75,Study,User,1.25,,River,RR2,1819,,,-1,-1,,,,,1
60c9003363ca81b7d3b004a4,wtvpzwesh9,Ex2A_Prolific,1,126,2024-02-29T02:16:02+00:00,2.0478141307831,3,Stim_A.csv,Global.csv,Global,A,stream,,RR3,,,76,Study,User,1.25,,River,RR3,1822,,,-1,-1,,,,,1
60c9003363ca81b7d3b004a4,wtvpzwesh9,Ex2A_Prolific,1,127,2024-02-29T02:16:04+00:00,2.4747939109802,3,Stim_A.csv,Global.csv,Global,A,flow,,RR4,,,77,Study,User,1.25,,River,RR4,2238,,,-1,-1,,,,,1
60c9003363ca81b7d3b004a4,wtvpzwesh9,Ex2A_Prolific,1,128,2024-02-29T02:16:06+00:00,2.0680661201477,3,Stim_A.csv,Global.csv,Global,A,bridge,,RR5,,,78,Study,User,1.25,,River,RR5,1838,,,-1,-1,,,,,1
60c9003363ca81b7d3b004a4,wtvpzwesh9,Ex2A_Prolific,1,129,2024-02-29T02:16:08+00:00,2.032103061676,3,Stim_A.csv,Global.csv,Global,A,brook,,RR6,,,79,Study,User,1.25,,River,RR6,1801,,,-1,-1,,,,,1
60c9003363ca81b7d3b004a4,wtvpzwesh9,Ex2A_Prolific,1,130,2024-02-29T02:16:10+00:00,1.8878319263458,3,Stim_A.csv,Global.csv,Global,A,lake,,RR7,,,80,Study,User,1.25,,River,RR7,1666,,,-1,-1,,,,,1
60c9003363ca81b7d3b004a4,wtvpzwesh9,Ex2A_Prolific,1,131,2024-02-29T02:16:12+00:00,1.8178470134735,3,Stim_A.csv,Global.csv,Global,A,barge,,RR8,,,81,Study,User,1.25,,River,RR8,1602,,,-1,-1,,,,,1
60c9003363ca81b7d3b004a4,wtvpzwesh9,Ex2A_Prolific,1,132,2024-02-29T02:16:14+00:00,2.0692880153656,3,Stim_A.csv,Global.csv,Global,A,water,,RR9,,,82,Study,User,1.25,,River,RR9,1851,,,-1,-1,,,,,1
60c9003363ca81b7d3b004a4,wtvpzwesh9,Ex2A_Prolific,1,133,2024-02-29T02:16:16+00:00,1.6167879104614,3,Stim_A.csv,Global.csv,Global,A,boat,,RR10,,,83,Study,User,1.25,,River,RR10,1398,,,-1,-1,,,,,1
60c9003363ca81b7d3b004a4,wtvpzwesh9,Ex2A_Prolific,1,134,2024-02-29T02:16:17+00:00,1.5000560283661,3,Stim_A.csv,Global.csv,Global,A,tide,,RR11,,,84,Study,User,1.25,,River,RR11,1281,,,-1,-1,,,,,1
60c9003363ca81b7d3b004a4,wtvpzwesh9,Ex2A_Prolific,1,135,2024-02-29T02:16:19+00:00,1.519651889801,3,Stim_A.csv,Global.csv,Global,A,swim,,RR12,,,85,Study,User,1.25,,River,RR12,1304,,,-1,-1,,,,,1
60c9003363ca81b7d3b004a4,wtvpzwesh9,Ex2A_Prolific,1,136,2024-02-29T02:16:20+00:00,1.2491412162781,3,Stim_A.csv,Global.csv,Global,A,,,,,,0,Instruct,User,-,"You have completed this section and will now be asked to judge your ability to remember the list items you just studied. You will have four seconds to type your rating. Please click next to continue.",,Next_List1,1035,,,-1,-1,,,,,1
60c9003363ca81b7d3b004a4,wtvpzwesh9,Ex2A_Prolific,1,137,2024-02-29T02:16:25+00:00,5.2198538780212,3,Stim_A.csv,Global.csv,Global,A,,,,,,0,JOL_GLOBAL,5,5,"How likely are you to correctly recall each of the items you just studied?|Type your response on a scale from 0-100 and then press Enter (0 = WILL NOT REMEMBER; 100 = DEFINITELY WILL REMEMBER).",Related,JOL7,5002,,,909,1777,,,,60,1
60c9003363ca81b7d3b004a4,wtvpzwesh9,Ex2A_Prolific,1,138,2024-02-29T02:16:27+00:00,2.0320460796356,3,Stim_A.csv,Global.csv,Global,A,,,,,,0,Instruct,User,1.25,"You have completed this section. Please click next.",,Instruct166,1818,,,-1,-1,,,,,1
60c9003363ca81b7d3b004a4,wtvpzwesh9,Ex2A_Prolific,1,139,2024-02-29T02:16:57+00:00,30.301643848419,3,Stim_A.csv,Global.csv,Global,A,,,,,,0,FreeRecall,30,30,"Please type as many words as you can that begin with the letter ""W"". The computer will automatically advance to the next screen in 30 seconds.",,FILLER,30001,"WIN WORD WOLD WELCOME WET WAR WORE WEAR WENT WRITE WHITE WHOLE WHOLESOME WANT ",0,1954,28823,0,0,,,1
60c9003363ca81b7d3b004a4,wtvpzwesh9,Ex2A_Prolific,1,140,2024-02-29T02:17:03+00:00,5.5900340080261,3,Stim_A.csv,Global.csv,Global,A,,,,,,0,Instruct,User,4,"You have completed this section. Please click next.",,Instruct166,4887,,,-1,-1,,,,,1
60c9003363ca81b7d3b004a4,wtvpzwesh9,Ex2A_Prolific,1,141,2024-02-29T02:17:09+00:00,5.5936529636383,3,Stim_A.csv,Global.csv,Global,A,,,,,,0,Instruct,User,4,"You will now complete a memory test for the words you just studied. Please type as many words from the previous list as you can seperated by a comma. Spelling will not count against you and you can recall the words in any order. This test will be timed for one minute, and the computer will automatically advance once time is up. Click next when you are ready to begin.",,Instruct1666,5148,,,-1,-1,,,,,1
60c9003363ca81b7d3b004a4,wtvpzwesh9,Ex2A_Prolific,1,142,2024-02-29T02:18:09+00:00,60.68896317482,3,Stim_A.csv,Global.csv,Global,A,,,,,,0,FreeRecall,60,60,"Please type as many words as you can from the previous study list in any order. Please separate each word with a comma. Spelling will not count against you. This screen will automatically advance in one minute.",,RECALL_Test,60010,"STREAM CREEK BROOK FLOW BRIDGE LAKE",0,960,31086,0,0,,,1
60c9003363ca81b7d3b004a4,wtvpzwesh9,Ex2A_Prolific,1,143,2024-02-29T02:18:18+00:00,8.2515408992767,3,Stim_A.csv,Global.csv,Global,A,,,,,,0,Instruct,User,3,"You will now be presented with a new study list. Click next when you are ready to begin.",,NEXT_LIST,7163,,,-1,-1,,,,,1
60c9003363ca81b7d3b004a4,wtvpzwesh9,Ex2A_Prolific,1,144,2024-02-29T02:18:24+00:00,6.1473240852356,3,Stim_A.csv,Global.csv,Global,A,rye,,B1,,,86,Study,User,1.25,,Bread,B1,5517,,,-1,-1,,,,,1
60c9003363ca81b7d3b004a4,wtvpzwesh9,Ex2A_Prolific,1,145,2024-02-29T02:18:26+00:00,2.1214299201965,3,Stim_A.csv,Global.csv,Global,A,loaf,,B2,,,87,Study,User,1.25,,Bread,B2,1456,,,-1,-1,,,,,1
60c9003363ca81b7d3b004a4,wtvpzwesh9,Ex2A_Prolific,1,146,2024-02-29T02:18:28+00:00,2.1838910579681,3,Stim_A.csv,Global.csv,Global,A,butter,,B3,,,88,Study,User,1.25,,Bread,B3,1432,,,-1,-1,,,,,1
60c9003363ca81b7d3b004a4,wtvpzwesh9,Ex2A_Prolific,1,147,2024-02-29T02:18:33+00:00,4.9958829879761,3,Stim_A.csv,Global.csv,Global,A,toast,,B4,,,89,Study,User,1.25,,Bread,B4,4225,,,-1,-1,,,,,1
60c9003363ca81b7d3b004a4,wtvpzwesh9,Ex2A_Prolific,1,148,2024-02-29T02:18:53+00:00,19.551029920578,3,Stim_A.csv,Global.csv,Global,A,dough,,B5,,,90,Study,User,1.25,,Bread,B5,18846,,,-1,-1,,,,,1
60c9003363ca81b7d3b004a4,wtvpzwesh9,Ex2A_Prolific,1,149,2024-02-29T02:18:55+00:00,2.2959351539612,3,Stim_A.csv,Global.csv,Global,A,crust,,B6,,,91,Study,User,1.25,,Bread,B6,1540,,,-1,-1,,,,,1
60c9003363ca81b7d3b004a4,wtvpzwesh9,Ex2A_Prolific,1,150,2024-02-29T02:18:58+00:00,3.3170208930969,3,Stim_A.csv,Global.csv,Global,A,flour,,B7,,,92,Study,User,1.25,,Bread,B7,2554,,,-1,-1,,,,,1
60c9003363ca81b7d3b004a4,wtvpzwesh9,Ex2A_Prolific,1,151,2024-02-29T02:19:01+00:00,2.5543830394745,3,Stim_A.csv,Global.csv,Global,A,sandwich,,B8,,,93,Study,User,1.25,,Bread,B8,1812,,,-1,-1,,,,,1
60c9003363ca81b7d3b004a4,wtvpzwesh9,Ex2A_Prolific,1,152,2024-02-29T02:19:03+00:00,2.1896829605103,3,Stim_A.csv,Global.csv,Global,A,jam,,B9,,,94,Study,User,1.25,,Bread,B9,1407,,,-1,-1,,,,,1
60c9003363ca81b7d3b004a4,wtvpzwesh9,Ex2A_Prolific,1,153,2024-02-29T02:19:05+00:00,2.055419921875,3,Stim_A.csv,Global.csv,Global,A,jelly,,B10,,,95,Study,User,1.25,,Bread,B10,1278,,,-1,-1,,,,,1
60c9003363ca81b7d3b004a4,wtvpzwesh9,Ex2A_Prolific,1,154,2024-02-29T02:19:07+00:00,2.1865770816803,3,Stim_A.csv,Global.csv,Global,A,slice,,B11,,,96,Study,User,1.25,,Bread,B11,1429,,,-1,-1,,,,,1
60c9003363ca81b7d3b004a4,wtvpzwesh9,Ex2A_Prolific,1,155,2024-02-29T02:19:09+00:00,2.1626501083374,3,Stim_A.csv,Global.csv,Global,A,milk,,B12,,,97,Study,User,1.25,,Bread,B12,1418,,,-1,-1,,,,,1
60c9003363ca81b7d3b004a4,wtvpzwesh9,Ex2A_Prolific,1,156,2024-02-29T02:19:12+00:00,2.6515519618988,3,Stim_A.csv,Global.csv,Global,A,,,,,,0,Instruct,User,-,"You have completed this section and will now be asked to judge your ability to remember the list items you just studied. You will have four seconds to type your rating. Please click next to continue.",,Next_List1,1860,,,-1,-1,,,,,1
60c9003363ca81b7d3b004a4,wtvpzwesh9,Ex2A_Prolific,1,157,2024-02-29T02:19:18+00:00,5.7275199890137,3,Stim_A.csv,Global.csv,Global,A,,,,,,0,JOL_GLOBAL,5,5,"How likely are you to correctly recall each of the items you just studied?|Type your response on a scale from 0-100 and then press Enter (0 = WILL NOT REMEMBER; 100 = DEFINITELY WILL REMEMBER).",Related,JOL8,5005,,,1920,2789,,,,70,1
60c9003363ca81b7d3b004a4,wtvpzwesh9,Ex2A_Prolific,1,158,2024-02-29T02:19:21+00:00,3.4786128997803,3,Stim_A.csv,Global.csv,Global,A,,,,,,0,Instruct,User,-,"You have completed this section. Please click next.",,Instruct166,2706,,,-1,-1,,,,,1
60c9003363ca81b7d3b004a4,wtvpzwesh9,Ex2A_Prolific,1,159,2024-02-29T02:19:52+00:00,30.919183015823,3,Stim_A.csv,Global.csv,Global,A,,,,,,0,FreeRecall,30,30,"Please type as many words as you can that begin with the letter ""C"". The computer will automatically advance to the next screen in 30 seconds.",,FILLER,30007,"CUTE CALM COAL COLD CRY CITE CITY CLOVE CLOVER CAT CRUST CLUMSY CLE",0,2921,29820,0,0,,,1
60c9003363ca81b7d3b004a4,wtvpzwesh9,Ex2A_Prolific,1,160,2024-02-29T02:19:57+00:00,5.3462121486664,3,Stim_A.csv,Global.csv,Global,A,,,,,,0,Instruct,User,4,"You have completed this section. Please click next.",,Instruct166,4393,,,-1,-1,,,,,1
60c9003363ca81b7d3b004a4,wtvpzwesh9,Ex2A_Prolific,1,161,2024-02-29T02:20:03+00:00,5.2579669952393,3,Stim_A.csv,Global.csv,Global,A,,,,,,0,Instruct,User,4,"You will now complete a memory test for the words you just studied. Please type as many words from the previous list as you can seperated by a comma. Spelling will not count against you and you can recall the words in any order. This test will be timed for one minute, and the computer will automatically advance once time is up. Click next when you are ready to begin.",,Instruct1666,4226,,,-1,-1,,,,,1
60c9003363ca81b7d3b004a4,wtvpzwesh9,Ex2A_Prolific,1,162,2024-02-29T02:21:04+00:00,61.022142887115,3,Stim_A.csv,Global.csv,Global,A,,,,,,0,FreeRecall,60,60,"Please type as many words as you can from the previous study list in any order. Please separate each word with a comma. Spelling will not count against you. This screen will automatically advance in one minute.",,RECALL_Test,60007,"RYE SLICE FLOUR MILK BUTTER LOAF ",0,843,16064,0,0,,,1
60c9003363ca81b7d3b004a4,wtvpzwesh9,Ex2A_Prolific,1,163,2024-02-29T02:21:15+00:00,11.539582967758,3,Stim_A.csv,Global.csv,Global,A,,,,,,0,Instruct,User,3,"You will now be presented with a new study list. Click next when you are ready to begin.",,NEXT_LIST,11287,,,-1,-1,,,,,1
60c9003363ca81b7d3b004a4,wtvpzwesh9,Ex2A_Prolific,1,164,2024-02-29T02:21:18+00:00,2.6881799697876,3,Stim_A.csv,Global.csv,Global,A,banner,,F1,,,98,Study,User,1.25,,Flag,F1,2452,,,-1,-1,,,,,1
60c9003363ca81b7d3b004a4,wtvpzwesh9,Ex2A_Prolific,1,165,2024-02-29T02:21:20+00:00,2.0656960010529,3,Stim_A.csv,Global.csv,Global,A,checkered,,F2,,,99,Study,User,1.25,,Flag,F2,1837,,,-1,-1,,,,,1
60c9003363ca81b7d3b004a4,wtvpzwesh9,Ex2A_Prolific,1,166,2024-02-29T02:21:22+00:00,1.9601759910583,3,Stim_A.csv,Global.csv,Global,A,american,,F3,,,100,Study,User,1.25,,Flag,F3,1729,,,-1,-1,,,,,1
60c9003363ca81b7d3b004a4,wtvpzwesh9,Ex2A_Prolific,1,167,2024-02-29T02:21:24+00:00,2.0237970352173,3,Stim_A.csv,Global.csv,Global,A,stripes,,F4,,,101,Study,User,1.25,,Flag,F4,1802,,,-1,-1,,,,,1
60c9003363ca81b7d3b004a4,wtvpzwesh9,Ex2A_Prolific,1,168,2024-02-29T02:21:26+00:00,2.0950720310211,3,Stim_A.csv,Global.csv,Global,A,pole,,F5,,,102,Study,User,1.25,,Flag,F5,1867,,,-1,-1,,,,,1
60c9003363ca81b7d3b004a4,wtvpzwesh9,Ex2A_Prolific,1,169,2024-02-29T02:21:28+00:00,1.9269731044769,3,Stim_A.csv,Global.csv,Global,A,anthem,,F6,,,103,Study,User,1.25,,Flag,F6,1701,,,-1,-1,,,,,1
60c9003363ca81b7d3b004a4,wtvpzwesh9,Ex2A_Prolific,1,170,2024-02-29T02:21:30+00:00,2.129467010498,3,Stim_A.csv,Global.csv,Global,A,emblem,,F7,,,104,Study,User,1.25,,Flag,F7,1904,,,-1,-1,,,,,1
60c9003363ca81b7d3b004a4,wtvpzwesh9,Ex2A_Prolific,1,171,2024-02-29T02:21:32+00:00,1.7039217948914,3,Stim_A.csv,Global.csv,Global,A,national,,F8,,,105,Study,User,1.25,,Flag,F8,1471,,,-1,-1,,,,,1
60c9003363ca81b7d3b004a4,wtvpzwesh9,Ex2A_Prolific,1,172,2024-02-29T02:21:33+00:00,1.598562002182,3,Stim_A.csv,Global.csv,Global,A,freedom,,F9,,,106,Study,User,1.25,,Flag,F9,1372,,,-1,-1,,,,,1
60c9003363ca81b7d3b004a4,wtvpzwesh9,Ex2A_Prolific,1,173,2024-02-29T02:21:35+00:00,1.525160074234,3,Stim_A.csv,Global.csv,Global,A,symbol,,F10,,,107,Study,User,1.25,,Flag,F10,1296,,,-1,-1,,,,,1
60c9003363ca81b7d3b004a4,wtvpzwesh9,Ex2A_Prolific,1,174,2024-02-29T02:21:37+00:00,1.6407859325409,3,Stim_A.csv,Global.csv,Global,A,wave,,F11,,,108,Study,User,1.25,,Flag,F11,1415,,,-1,-1,,,,,1
60c9003363ca81b7d3b004a4,wtvpzwesh9,Ex2A_Prolific,1,175,2024-02-29T02:21:38+00:00,1.5227670669556,3,Stim_A.csv,Global.csv,Global,A,stars,,F12,,,109,Study,User,1.25,,Flag,F12,1290,,,-1,-1,,,,,1
60c9003363ca81b7d3b004a4,wtvpzwesh9,Ex2A_Prolific,1,176,2024-02-29T02:21:40+00:00,2.0460629463196,3,Stim_A.csv,Global.csv,Global,A,,,,,,0,Instruct,User,1.25,"You have completed this section and will now be asked to judge your ability to remember the list items you just studied. You will have four seconds to type your rating. Please click next to continue.",,Next_List1,1819,,,-1,-1,,,,,1
60c9003363ca81b7d3b004a4,wtvpzwesh9,Ex2A_Prolific,1,177,2024-02-29T02:21:45+00:00,5.2319240570068,3,Stim_A.csv,Global.csv,Global,A,,,,,,0,JOL_GLOBAL,5,5,"How likely are you to correctly recall each of the items you just studied?|Type your response on a scale from 0-100 and then press Enter (0 = WILL NOT REMEMBER; 100 = DEFINITELY WILL REMEMBER).",Related,JOL9,5001,,,1604,4021,,,,80,1
60c9003363ca81b7d3b004a4,wtvpzwesh9,Ex2A_Prolific,1,178,2024-02-29T02:21:50+00:00,4.3502910137177,3,Stim_A.csv,Global.csv,Global,A,,,,,,0,Instruct,User,4,"You have completed this section. Please click next.",,Instruct166,4132,,,-1,-1,,,,,1
60c9003363ca81b7d3b004a4,wtvpzwesh9,Ex2A_Prolific,1,179,2024-02-29T02:22:20+00:00,30.254426002502,3,Stim_A.csv,Global.csv,Global,A,,,,,,0,FreeRecall,30,30,"Please type as many words as you can that begin with the letter ""R"". The computer will automatically advance to the next screen in 30 seconds.",,FILLER,30002,"RIGHT ROBE RAIL ROUND RED REBEL RELAY RING RYTHM RYE ROTTEN RAPID R",0,2871,29930,0,0,,,1
60c9003363ca81b7d3b004a4,wtvpzwesh9,Ex2A_Prolific,1,180,2024-02-29T02:22:22+00:00,1.8139650821686,3,Stim_A.csv,Global.csv,Global,A,,,,,,0,Instruct,User,-,"You have completed this section. Please click next.",,Instruct166,1548,,,-1,-1,,,,,1
60c9003363ca81b7d3b004a4,wtvpzwesh9,Ex2A_Prolific,1,181,2024-02-29T02:22:31+00:00,8.7554368972778,3,Stim_A.csv,Global.csv,Global,A,,,,,,0,Instruct,User,4,"You will now complete a memory test for the words you just studied. Please type as many words from the previous list as you can seperated by a comma. Spelling will not count against you and you can recall the words in any order. This test will be timed for one minute, and the computer will automatically advance once time is up. Click next when you are ready to begin.",,Instruct1666,8516,,,-1,-1,,,,,1
60c9003363ca81b7d3b004a4,wtvpzwesh9,Ex2A_Prolific,1,182,2024-02-29T02:23:31+00:00,60.255722045898,3,Stim_A.csv,Global.csv,Global,A,,,,,,0,FreeRecall,60,60,"Please type as many words as you can from the previous study list in any order. Please separate each word with a comma. Spelling will not count against you. This screen will automatically advance in one minute.",,RECALL_Test,60001,"STARS STRIPES POLE AMERICAN ANTHEM NATION ",0,4413,26224,0,0,,,1
60c9003363ca81b7d3b004a4,wtvpzwesh9,Ex2A_Prolific,1,183,2024-02-29T02:23:37+00:00,5.9165110588074,3,Stim_A.csv,Global.csv,Global,A,,,,,,0,Instruct,User,3,"You will now be presented with a new study list. Click next when you are ready to begin.",,NEXT_LIST,5660,,,-1,-1,,,,,0.957
60c9003363ca81b7d3b004a4,wtvpzwesh9,Ex2A_Prolific,1,184,2024-02-29T02:23:39+00:00,2.2478518486023,3,Stim_A.csv,Global.csv,Global,A,blouse,,SS1,,,110,Study,User,1.25,,Shirt,SS1,2021,,,-1,-1,,,,,1
60c9003363ca81b7d3b004a4,wtvpzwesh9,Ex2A_Prolific,1,185,2024-02-29T02:23:41+00:00,1.5162320137024,3,Stim_A.csv,Global.csv,Global,A,sleeves,,SS2,,,111,Study,User,1.25,,Shirt,SS2,1282,,,-1,-1,,,,,1
60c9003363ca81b7d3b004a4,wtvpzwesh9,Ex2A_Prolific,1,186,2024-02-29T02:23:43+00:00,2.8366570472717,3,Stim_A.csv,Global.csv,Global,A,collar,,SS3,,,112,Study,User,1.25,,Shirt,SS3,2603,,,-1,-1,,,,,1
60c9003363ca81b7d3b004a4,wtvpzwesh9,Ex2A_Prolific,1,187,2024-02-29T02:23:45+00:00,1.5842859745026,3,Stim_A.csv,Global.csv,Global,A,shorts,,SS4,,,113,Study,User,1.25,,Shirt,SS4,1352,,,-1,-1,,,,,1
60c9003363ca81b7d3b004a4,wtvpzwesh9,Ex2A_Prolific,1,188,2024-02-29T02:23:47+00:00,2.0761709213257,3,Stim_A.csv,Global.csv,Global,A,button,,SS5,,,114,Study,User,1.25,,Shirt,SS5,1853,,,-1,-1,,,,,1
60c9003363ca81b7d3b004a4,wtvpzwesh9,Ex2A_Prolific,1,189,2024-02-29T02:23:49+00:00,1.7793161869049,3,Stim_A.csv,Global.csv,Global,A,pants,,SS6,,,115,Study,User,1.25,,Shirt,SS6,1545,,,-1,-1,,,,,1
60c9003363ca81b7d3b004a4,wtvpzwesh9,Ex2A_Prolific,1,190,2024-02-29T02:23:50+00:00,1.655975818634,3,Stim_A.csv,Global.csv,Global,A,polo,,SS7,,,116,Study,User,1.25,,Shirt,SS7,1414,,,-1,-1,,,,,1
60c9003363ca81b7d3b004a4,wtvpzwesh9,Ex2A_Prolific,1,191,2024-02-29T02:23:52+00:00,1.6518959999084,3,Stim_A.csv,Global.csv,Global,A,jersey,,SS8,,,117,Study,User,1.25,,Shirt,SS8,1422,,,-1,-1,,,,,1
60c9003363ca81b7d3b004a4,wtvpzwesh9,Ex2A_Prolific,1,192,2024-02-29T02:23:54+00:00,1.6192581653595,3,Stim_A.csv,Global.csv,Global,A,vest,,SS9,,,118,Study,User,1.25,,Shirt,SS9,1379,,,-1,-1,,,,,1
60c9003363ca81b7d3b004a4,wtvpzwesh9,Ex2A_Prolific,1,193,2024-02-29T02:23:55+00:00,1.5889868736267,3,Stim_A.csv,Global.csv,Global,A,cuffs,,SS10,,,119,Study,User,1.25,,Shirt,SS10,1363,,,-1,-1,,,,,1
60c9003363ca81b7d3b004a4,wtvpzwesh9,Ex2A_Prolific,1,194,2024-02-29T02:23:57+00:00,1.6067440509796,3,Stim_A.csv,Global.csv,Global,A,tie,,SS11,,,120,Study,User,1.25,,Shirt,SS11,1378,,,-1,-1,,,,,1
60c9003363ca81b7d3b004a4,wtvpzwesh9,Ex2A_Prolific,1,195,2024-02-29T02:23:59+00:00,1.6409230232239,3,Stim_A.csv,Global.csv,Global,A,pocket,,SS12,,,121,Study,User,1.25,,Shirt,SS12,1405,,,-1,-1,,,,,1
60c9003363ca81b7d3b004a4,wtvpzwesh9,Ex2A_Prolific,1,196,2024-02-29T02:24:01+00:00,2.6172070503235,3,Stim_A.csv,Global.csv,Global,A,,,,,,0,Instruct,User,-,"You have completed this section and will now be asked to judge your ability to remember the list items you just studied. You will have four seconds to type your rating. Please click next to continue.",,Next_List1,2378,,,-1,-1,,,,,1
60c9003363ca81b7d3b004a4,wtvpzwesh9,Ex2A_Prolific,1,197,2024-02-29T02:24:06+00:00,5.2336239814758,3,Stim_A.csv,Global.csv,Global,A,,,,,,0,JOL_GLOBAL,5,5,"How likely are you to correctly recall each of the items you just studied?|Type your response on a scale from 0-100 and then press Enter (0 = WILL NOT REMEMBER; 100 = DEFINITELY WILL REMEMBER).",Related,JOL10,5001,,,683,4525,,,,75,1
60c9003363ca81b7d3b004a4,wtvpzwesh9,Ex2A_Prolific,1,198,2024-02-29T02:24:13+00:00,6.1486370563507,3,Stim_A.csv,Global.csv,Global,A,,,,,,0,Instruct,User,4,"You have completed this section. Please click next.",,Instruct166,5918,,,-1,-1,,,,,1
60c9003363ca81b7d3b004a4,wtvpzwesh9,Ex2A_Prolific,1,199,2024-02-29T02:24:43+00:00,30.245289802551,3,Stim_A.csv,Global.csv,Global,A,,,,,,0,FreeRecall,30,30,"Please type as many words as you can that begin with the letter ""T"". The computer will automatically advance to the next screen in 30 seconds.",,FILLER,30002,"TEA TABLE TSHIRT TAR TRIP TRIPPLE TOP TAN TIDE TEST TASTY TERRIBLE T",0,2341,29975,0,0,,,1
60c9003363ca81b7d3b004a4,wtvpzwesh9,Ex2A_Prolific,1,200,2024-02-29T02:24:47+00:00,4.0664260387421,3,Stim_A.csv,Global.csv,Global,A,,,,,,0,Instruct,User,1.25,"You have completed this section. Please click next.",,Instruct166,3823,,,-1,-1,,,,,1
60c9003363ca81b7d3b004a4,wtvpzwesh9,Ex2A_Prolific,1,201,2024-02-29T02:24:52+00:00,4.9780161380768,3,Stim_A.csv,Global.csv,Global,A,,,,,,0,Instruct,User,4,"You will now complete a memory test for the words you just studied. Please type as many words from the previous list as you can seperated by a comma. Spelling will not count against you and you can recall the words in any order. This test will be timed for one minute, and the computer will automatically advance once time is up. Click next when you are ready to begin.",,Instruct1666,4746,,,-1,-1,,,,,1
60c9003363ca81b7d3b004a4,wtvpzwesh9,Ex2A_Prolific,1,202,2024-02-29T02:25:52+00:00,60.248965978622,3,Stim_A.csv,Global.csv,Global,A,,,,,,0,FreeRecall,60,60,"Please type as many words as you can from the previous study list in any order. Please separate each word with a comma. Spelling will not count against you. This screen will automatically advance in one minute.",,RECALL_Test,60001,"SHORTS PANTS VEST POLP JERSY SLEEVES COAT ",0,1191,36707,0,0,,,1
60c9003363ca81b7d3b004a4,wtvpzwesh9,Ex2A_Prolific,1,203,2024-02-29T02:25:59+00:00,6.909460067749,3,Stim_A.csv,Global.csv,Global,A,,,,,,0,Instruct,User,-,"You have completed this section. Please click next.",,Instruct7,6619,,,-1,-1,,,,,1
60c9003363ca81b7d3b004a4,wtvpzwesh9,Ex2A_Prolific,1,204,2024-02-29T02:26:00+00:00,1.2132179737091,3,Stim_A.csv,Global.csv,Global,A,,,,,,0,Instruct,User,-,"The following screen will ask you a few questions abour your experience today. You must complete these questions to receive credit.",,Instruct8,947,,,-1,-1,,,,,1
