Username,ID,ExperimentName,Session,Trial,Date,TimeDif,"Condition Number","Stimuli File","Order File","Condition Description","Condition Notes",Stimuli*Cue,Stimuli*Answer,Stimuli*Shuffle,"Stimuli*Stimuli Notes",Stimuli*Value,Procedure*Item,"Procedure*Trial Type","Procedure*Max Time","Procedure*Min Time",Procedure*Text,"Procedure*Procedure Notes",Procedure*Shuffle,Response*RT,Response*Response,Response*Accuracy,Response*RTfirst,Response*RTlast,Response*strictAcc,Response*lenientAcc,Response*focus,Response*JOL,Response*Focus
6555036c583bbf5fc6e0d702,uhmzwvk2c0,Ex2A_Prolific,1,1,2024-02-27T23:57:09+00:00,6.2627940177917,4,Stim_B.csv,Global.csv,Global,B,,,,,,0,Instruct,-,5,"In this section, you will be presented with a series of words. Please study each word carefully. Your memory will be tested!",Initial_Instruct,Instruct1,6177,,,-1,-1,,,,,1
6555036c583bbf5fc6e0d702,uhmzwvk2c0,Ex2A_Prolific,1,2,2024-02-27T23:57:19+00:00,9.6817021369934,4,Stim_B.csv,Global.csv,Global,B,,,,,,0,Instruct,User,5,"After studying each LIST of words, you will be asked to rate your ability to remember ALL of the words in the list on a later test. You will make these ratings using a scale of 0 to 100. A rating of 0 = WILL NOT REMEMBER, while a rating of 100 = WILL DEFINITELY REMEMBER. Please try to be as accurate as possible with these ratings!",,BLIPBLOOP,9410,,,-1,-1,,,,,1
6555036c583bbf5fc6e0d702,uhmzwvk2c0,Ex2A_Prolific,1,3,2024-02-27T23:57:22+00:00,3.1926369667053,4,Stim_B.csv,Global.csv,Global,B,,,,,,0,Instruct,User,1.25,"You will now begin the study. Click next when you are ready to begin.",,Instruct16,2919,,,-1,-1,,,,,1
6555036c583bbf5fc6e0d702,uhmzwvk2c0,Ex2A_Prolific,1,4,2024-02-27T23:57:26+00:00,3.4966130256653,4,Stim_B.csv,Global.csv,Global,B,aroma,,Win_1,,,2,Study,User,1.25,,Window,Win_1,3345,,,-1,-1,,,,,1
6555036c583bbf5fc6e0d702,uhmzwvk2c0,Ex2A_Prolific,1,5,2024-02-27T23:57:30+00:00,4.6100988388062,4,Stim_B.csv,Global.csv,Global,B,scent,,Win_2,,,3,Study,User,1.25,,Window,Win_2,4457,,,-1,-1,,,,,1
6555036c583bbf5fc6e0d702,uhmzwvk2c0,Ex2A_Prolific,1,6,2024-02-27T23:57:33+00:00,2.9114620685577,4,Stim_B.csv,Global.csv,Global,B,whiff,,Win_3,,,4,Study,User,1.25,,Window,Win_3,2757,,,-1,-1,,,,,1
6555036c583bbf5fc6e0d702,uhmzwvk2c0,Ex2A_Prolific,1,7,2024-02-27T23:57:43+00:00,10.043131113052,4,Stim_B.csv,Global.csv,Global,B,stench,,Win_4,,,5,Study,User,1.25,,Window,Win_4,9768,,,-1,-1,,,,,1
6555036c583bbf5fc6e0d702,uhmzwvk2c0,Ex2A_Prolific,1,8,2024-02-27T23:57:49+00:00,6.1631169319153,4,Stim_B.csv,Global.csv,Global,B,reek,,Win_5,,,6,Study,User,1.25,,Window,Win_5,6013,,,-1,-1,,,,,1
6555036c583bbf5fc6e0d702,uhmzwvk2c0,Ex2A_Prolific,1,9,2024-02-27T23:57:59+00:00,9.6054859161377,4,Stim_B.csv,Global.csv,Global,B,sniff,,Win_6,,,7,Study,User,1.25,,Window,Win_6,9456,,,-1,-1,,,,,1
6555036c583bbf5fc6e0d702,uhmzwvk2c0,Ex2A_Prolific,1,10,2024-02-27T23:58:02+00:00,3.3645651340485,4,Stim_B.csv,Global.csv,Global,B,perfume,,Win_7,,,8,Study,User,1.25,,Window,Win_7,3212,,,-1,-1,,,,,1
6555036c583bbf5fc6e0d702,uhmzwvk2c0,Ex2A_Prolific,1,11,2024-02-27T23:58:05+00:00,2.3458499908447,4,Stim_B.csv,Global.csv,Global,B,fragrance,,Win_8,,,9,Study,User,1.25,,Window,Win_8,2194,,,-1,-1,,,,,1
6555036c583bbf5fc6e0d702,uhmzwvk2c0,Ex2A_Prolific,1,12,2024-02-27T23:58:07+00:00,2.4667010307312,4,Stim_B.csv,Global.csv,Global,B,nose,,Win_9,,,10,Study,User,1.25,,Window,Win_9,2311,,,-1,-1,,,,,1
6555036c583bbf5fc6e0d702,uhmzwvk2c0,Ex2A_Prolific,1,13,2024-02-27T23:58:09+00:00,1.9297089576721,4,Stim_B.csv,Global.csv,Global,B,rose,,Win_10,,,11,Study,User,1.25,,Window,Win_10,1775,,,-1,-1,,,,,1
6555036c583bbf5fc6e0d702,uhmzwvk2c0,Ex2A_Prolific,1,14,2024-02-27T23:58:11+00:00,1.9656159877777,4,Stim_B.csv,Global.csv,Global,B,salts,,Win_11,,,12,Study,User,1.25,,Window,Win_11,1813,,,-1,-1,,,,,1
6555036c583bbf5fc6e0d702,uhmzwvk2c0,Ex2A_Prolific,1,15,2024-02-27T23:58:13+00:00,1.951061964035,4,Stim_B.csv,Global.csv,Global,B,breathe,,Win_12,,,13,Study,User,1.25,,Window,Win_12,1801,,,-1,-1,,,,,1
6555036c583bbf5fc6e0d702,uhmzwvk2c0,Ex2A_Prolific,1,16,2024-02-27T23:58:15+00:00,1.8804280757904,4,Stim_B.csv,Global.csv,Global,B,,,,,,0,Instruct,User,-,"You have completed this section and will now be asked to judge your ability to remember the list items you just studied. You will have four seconds to type your rating. Please click next to continue.",,Next_List1,1728,,,-1,-1,,,,,1
6555036c583bbf5fc6e0d702,uhmzwvk2c0,Ex2A_Prolific,1,17,2024-02-27T23:58:20+00:00,5.2790849208832,4,Stim_B.csv,Global.csv,Global,B,,,,,,0,JOL_GLOBAL,5,5,"How likely are you to correctly recall each of the items you just studied?|Type your response on a scale from 0-100 and then press Enter (0 = WILL NOT REMEMBER; 100 = DEFINITELY WILL REMEMBER).",Related,JOL1,5002,,,-1,-1,,,,,1
6555036c583bbf5fc6e0d702,uhmzwvk2c0,Ex2A_Prolific,1,18,2024-02-27T23:58:25+00:00,4.9534571170807,4,Stim_B.csv,Global.csv,Global,B,,,,,,0,Instruct,User,4,"You have completed this section. Please click next.",,Instruct166,4803,,,-1,-1,,,,,1
6555036c583bbf5fc6e0d702,uhmzwvk2c0,Ex2A_Prolific,1,19,2024-02-27T23:58:55+00:00,30.276224851608,4,Stim_B.csv,Global.csv,Global,B,,,,,,0,FreeRecall,30,30,"Please type as many words as you can that begin with the letter ""R"". The computer will automatically advance to the next screen in 30 seconds.",,FILLER,30000,"Rose Riddle Read Ride Reverse R",0,8574,26374,0,0,,,1
6555036c583bbf5fc6e0d702,uhmzwvk2c0,Ex2A_Prolific,1,20,2024-02-27T23:59:02+00:00,6.3683490753174,4,Stim_B.csv,Global.csv,Global,B,,,,,,0,Instruct,User,4,"You have completed this section. Please click next.",,Instruct166,6154,,,-1,-1,,,,,1
6555036c583bbf5fc6e0d702,uhmzwvk2c0,Ex2A_Prolific,1,21,2024-02-27T23:59:07+00:00,5.6284239292145,4,Stim_B.csv,Global.csv,Global,B,,,,,,0,Instruct,User,4,"You will now complete a memory test for the words you just studied. Please type as many words from the previous list as you can seperated by a comma. Spelling will not count against you and you can recall the words in any order. This test will be timed for one minute, and the computer will automatically advance once time is up. Click next when you are ready to begin.",,Instruct1666,5468,,,-1,-1,,,,,1
6555036c583bbf5fc6e0d702,uhmzwvk2c0,Ex2A_Prolific,1,22,2024-02-28T00:00:08+00:00,60.273468017578,4,Stim_B.csv,Global.csv,Global,B,,,,,,0,FreeRecall,60,60,"Please type as many words as you can from the previous study list in any order. Please separate each word with a comma. Spelling will not count against you. This screen will automatically advance in one minute.",,RECALL_Test,60001,"Aroma, Scent, Whiff, Stench, Reek, Rose, Nose Perfume Fragrance Breathe ",0,5411,59719,0,0,,,1
6555036c583bbf5fc6e0d702,uhmzwvk2c0,Ex2A_Prolific,1,23,2024-02-28T00:00:11+00:00,3.6954419612885,4,Stim_B.csv,Global.csv,Global,B,,,,,,0,Instruct,User,3,"You will now be presented with a new study list. Click next when you are ready to begin.",,NEXT_LIST,3545,,,-1,-1,,,,,1
6555036c583bbf5fc6e0d702,uhmzwvk2c0,Ex2A_Prolific,1,24,2024-02-28T00:00:15+00:00,3.3818261623383,4,Stim_B.csv,Global.csv,Global,B,hard,,R1,,,14,Study,User,1.25,,Rough,R1,3231,,,-1,-1,,,,,1
6555036c583bbf5fc6e0d702,uhmzwvk2c0,Ex2A_Prolific,1,25,2024-02-28T00:00:17+00:00,2.2806098461151,4,Stim_B.csv,Global.csv,Global,B,loud,,R2,,,15,Study,User,1.25,,Rough,R2,2129,,,-1,-1,,,,,1
6555036c583bbf5fc6e0d702,uhmzwvk2c0,Ex2A_Prolific,1,26,2024-02-28T00:00:20+00:00,3.0576190948486,4,Stim_B.csv,Global.csv,Global,B,tender,,R3,,,16,Study,User,1.25,,Rough,R3,2905,,,-1,-1,,,,,1
6555036c583bbf5fc6e0d702,uhmzwvk2c0,Ex2A_Prolific,1,27,2024-02-28T00:00:27+00:00,7.0411360263824,4,Stim_B.csv,Global.csv,Global,B,fluffy,,R4,,,17,Study,User,1.25,,Rough,R4,6887,,,-1,-1,,,,,1
6555036c583bbf5fc6e0d702,uhmzwvk2c0,Ex2A_Prolific,1,28,2024-02-28T00:00:36+00:00,9.2903020381927,4,Stim_B.csv,Global.csv,Global,B,pillow,,R5,,,18,Study,User,1.25,,Rough,R5,9136,,,-1,-1,,,,,1
6555036c583bbf5fc6e0d702,uhmzwvk2c0,Ex2A_Prolific,1,29,2024-02-28T00:00:42+00:00,5.4541749954224,4,Stim_B.csv,Global.csv,Global,B,downy,,R6,,,19,Study,User,1.25,,Rough,R6,5303,,,-1,-1,,,,,1
6555036c583bbf5fc6e0d702,uhmzwvk2c0,Ex2A_Prolific,1,30,2024-02-28T00:00:44+00:00,2.4593269824982,4,Stim_B.csv,Global.csv,Global,B,plush,,R7,,,20,Study,User,1.25,,Rough,R7,2302,,,-1,-1,,,,,1
6555036c583bbf5fc6e0d702,uhmzwvk2c0,Ex2A_Prolific,1,31,2024-02-28T00:00:46+00:00,2.1204128265381,4,Stim_B.csv,Global.csv,Global,B,cotton,,R8,,,21,Study,User,1.25,,Rough,R8,1957,,,-1,-1,,,,,1
6555036c583bbf5fc6e0d702,uhmzwvk2c0,Ex2A_Prolific,1,32,2024-02-28T00:00:49+00:00,2.2258989810944,4,Stim_B.csv,Global.csv,Global,B,skin,,R9,,,22,Study,User,1.25,,Rough,R9,2070,,,-1,-1,,,,,1
6555036c583bbf5fc6e0d702,uhmzwvk2c0,Ex2A_Prolific,1,33,2024-02-28T00:00:51+00:00,2.151575088501,4,Stim_B.csv,Global.csv,Global,B,fur,,R10,,,23,Study,User,1.25,,Rough,R10,1996,,,-1,-1,,,,,1
6555036c583bbf5fc6e0d702,uhmzwvk2c0,Ex2A_Prolific,1,34,2024-02-28T00:00:53+00:00,2.0235559940338,4,Stim_B.csv,Global.csv,Global,B,touch,,R11,,,24,Study,User,1.25,,Rough,R11,1870,,,-1,-1,,,,,1
6555036c583bbf5fc6e0d702,uhmzwvk2c0,Ex2A_Prolific,1,35,2024-02-28T00:00:55+00:00,2.3182621002197,4,Stim_B.csv,Global.csv,Global,B,furry,,R12,,,25,Study,User,1.25,,Rough,R12,2157,,,-1,-1,,,,,1
6555036c583bbf5fc6e0d702,uhmzwvk2c0,Ex2A_Prolific,1,36,2024-02-28T00:00:58+00:00,2.8232848644257,4,Stim_B.csv,Global.csv,Global,B,,,,,,0,Instruct,User,-,"You have completed this section and will now be asked to judge your ability to remember the list items you just studied. You will have four seconds to type your rating. Please click next to continue.",,Next_List1,2671,,,-1,-1,,,,,1
6555036c583bbf5fc6e0d702,uhmzwvk2c0,Ex2A_Prolific,1,37,2024-02-28T00:01:03+00:00,5.1521940231323,4,Stim_B.csv,Global.csv,Global,B,,,,,,0,JOL_GLOBAL,5,5,"How likely are you to correctly recall each of the items you just studied?|Type your response on a scale from 0-100 and then press Enter (0 = WILL NOT REMEMBER; 100 = DEFINITELY WILL REMEMBER).",Unrelated,JOL2,5001,,,1621,1820,,,,50,1
6555036c583bbf5fc6e0d702,uhmzwvk2c0,Ex2A_Prolific,1,38,2024-02-28T00:01:04+00:00,1.2982499599457,4,Stim_B.csv,Global.csv,Global,B,,,,,,0,Instruct,User,-,"You have completed this section. Please click next.",,Instruct166,1148,,,-1,-1,,,,,1
6555036c583bbf5fc6e0d702,uhmzwvk2c0,Ex2A_Prolific,1,39,2024-02-28T00:01:35+00:00,30.151264190674,4,Stim_B.csv,Global.csv,Global,B,,,,,,0,FreeRecall,30,30,"Please type as many words as you can that begin with the letter ""S"". The computer will automatically advance to the next screen in 30 seconds.",,FILLER,30000,"Scent Seek Surprise Still Suck Serpent Snake Saloon Salon S",0,2578,29966,0,0,,,1
6555036c583bbf5fc6e0d702,uhmzwvk2c0,Ex2A_Prolific,1,40,2024-02-28T00:01:36+00:00,1.8552269935608,4,Stim_B.csv,Global.csv,Global,B,,,,,,0,Instruct,User,-,"You have completed this section. Please click next.",,Instruct166,1700,,,-1,-1,,,,,1
6555036c583bbf5fc6e0d702,uhmzwvk2c0,Ex2A_Prolific,1,41,2024-02-28T00:01:41+00:00,4.5588889122009,4,Stim_B.csv,Global.csv,Global,B,,,,,,0,Instruct,User,4,"You will now complete a memory test for the words you just studied. Please type as many words from the previous list as you can seperated by a comma. Spelling will not count against you and you can recall the words in any order. This test will be timed for one minute, and the computer will automatically advance once time is up. Click next when you are ready to begin.",,Instruct1666,4391,,,-1,-1,,,,,1
6555036c583bbf5fc6e0d702,uhmzwvk2c0,Ex2A_Prolific,1,42,2024-02-28T00:02:41+00:00,60.269773960114,4,Stim_B.csv,Global.csv,Global,B,,,,,,0,FreeRecall,60,60,"Please type as many words as you can from the previous study list in any order. Please separate each word with a comma. Spelling will not count against you. This screen will automatically advance in one minute.",,RECALL_Test,60000,"Hard, Loud, Downy, Fluffy, Pillow, Touch, Tender, Plush ",0,1115,52672,0,0,,,1
6555036c583bbf5fc6e0d702,uhmzwvk2c0,Ex2A_Prolific,1,43,2024-02-28T00:02:45+00:00,3.8675360679626,4,Stim_B.csv,Global.csv,Global,B,,,,,,0,Instruct,User,3,"You will now be presented with a new study list. Click next when you are ready to begin.",,NEXT_LIST,3714,,,-1,-1,,,,,1
6555036c583bbf5fc6e0d702,uhmzwvk2c0,Ex2A_Prolific,1,44,2024-02-28T00:02:49+00:00,3.6979558467865,4,Stim_B.csv,Global.csv,Global,B,honey,,A1,,,26,Study,User,1.25,,Anger,A1,3547,,,-1,-1,,,,,1
6555036c583bbf5fc6e0d702,uhmzwvk2c0,Ex2A_Prolific,1,45,2024-02-28T00:02:52+00:00,3.4438331127167,4,Stim_B.csv,Global.csv,Global,B,bitter,,A2,,,27,Study,User,1.25,,Anger,A2,3171,,,-1,-1,,,,,1
6555036c583bbf5fc6e0d702,uhmzwvk2c0,Ex2A_Prolific,1,46,2024-02-28T00:02:57+00:00,5.0593988895416,4,Stim_B.csv,Global.csv,Global,B,sugar,,A3,,,28,Study,User,1.25,,Anger,A3,4911,,,-1,-1,,,,,1
6555036c583bbf5fc6e0d702,uhmzwvk2c0,Ex2A_Prolific,1,47,2024-02-28T00:03:05+00:00,7.3591520786285,4,Stim_B.csv,Global.csv,Global,B,sour,,A4,,,29,Study,User,1.25,,Anger,A4,7086,,,-1,-1,,,,,1
6555036c583bbf5fc6e0d702,uhmzwvk2c0,Ex2A_Prolific,1,48,2024-02-28T00:03:12+00:00,7.3406660556793,4,Stim_B.csv,Global.csv,Global,B,candy,,A5,,,30,Study,User,1.25,,Anger,A5,7053,,,-1,-1,,,,,1
6555036c583bbf5fc6e0d702,uhmzwvk2c0,Ex2A_Prolific,1,49,2024-02-28T00:03:16+00:00,4.320592880249,4,Stim_B.csv,Global.csv,Global,B,tart,,A6,,,31,Study,User,1.25,,Anger,A6,4163,,,-1,-1,,,,,1
6555036c583bbf5fc6e0d702,uhmzwvk2c0,Ex2A_Prolific,1,50,2024-02-28T00:03:23+00:00,6.4247360229492,4,Stim_B.csv,Global.csv,Global,B,chocolate,,A7,,,32,Study,User,1.25,,Anger,A7,6147,,,-1,-1,,,,,1
6555036c583bbf5fc6e0d702,uhmzwvk2c0,Ex2A_Prolific,1,51,2024-02-28T00:03:36+00:00,13.065675973892,4,Stim_B.csv,Global.csv,Global,B,nice,,A8,,,33,Study,User,1.25,,Anger,A8,12787,,,-1,-1,,,,,1
6555036c583bbf5fc6e0d702,uhmzwvk2c0,Ex2A_Prolific,1,52,2024-02-28T00:03:38+00:00,1.9715371131897,4,Stim_B.csv,Global.csv,Global,B,taste,,A9,,,34,Study,User,1.25,,Anger,A9,1823,,,-1,-1,,,,,1
6555036c583bbf5fc6e0d702,uhmzwvk2c0,Ex2A_Prolific,1,53,2024-02-28T00:03:40+00:00,2.6548690795898,4,Stim_B.csv,Global.csv,Global,B,cake,,A10,,,35,Study,User,1.25,,Anger,A10,2381,,,-1,-1,,,,,1
6555036c583bbf5fc6e0d702,uhmzwvk2c0,Ex2A_Prolific,1,54,2024-02-28T00:03:42+00:00,1.9098529815674,4,Stim_B.csv,Global.csv,Global,B,good,,A11,,,36,Study,User,1.25,,Anger,A11,1757,,,-1,-1,,,,,1
6555036c583bbf5fc6e0d702,uhmzwvk2c0,Ex2A_Prolific,1,55,2024-02-28T00:03:45+00:00,2.3141758441925,4,Stim_B.csv,Global.csv,Global,B,tooth,,A12,,,37,Study,User,1.25,,Anger,A12,2157,,,-1,-1,,,,,1
6555036c583bbf5fc6e0d702,uhmzwvk2c0,Ex2A_Prolific,1,56,2024-02-28T00:03:46+00:00,1.0807580947876,4,Stim_B.csv,Global.csv,Global,B,,,,,,0,Instruct,User,-,"You have completed this section and will now be asked to judge your ability to remember the list items you just studied. You will have four seconds to type your rating. Please click next to continue.",,Next_List1,923,,,-1,-1,,,,,1
6555036c583bbf5fc6e0d702,uhmzwvk2c0,Ex2A_Prolific,1,57,2024-02-28T00:03:51+00:00,5.2758629322052,4,Stim_B.csv,Global.csv,Global,B,,,,,,0,JOL_GLOBAL,5,5,"How likely are you to correctly recall each of the items you just studied?|Type your response on a scale from 0-100 and then press Enter (0 = WILL NOT REMEMBER; 100 = DEFINITELY WILL REMEMBER).",Related,JOL3,5001,,,1355,1514,,,,50,1
6555036c583bbf5fc6e0d702,uhmzwvk2c0,Ex2A_Prolific,1,58,2024-02-28T00:03:54+00:00,2.5842139720917,4,Stim_B.csv,Global.csv,Global,B,,,,,,0,Instruct,User,1.25,"You have completed this section. Please click next.",,Instruct166,2428,,,-1,-1,,,,,1
6555036c583bbf5fc6e0d702,uhmzwvk2c0,Ex2A_Prolific,1,59,2024-02-28T00:04:24+00:00,30.278793096542,4,Stim_B.csv,Global.csv,Global,B,,,,,,0,FreeRecall,30,30,"Please type as many words as you can that begin with the letter ""L"". The computer will automatically advance to the next screen in 30 seconds.",,FILLER,30001,"Long Lesson Lag Leg Loose Love Leprosy ",0,2140,21841,0,0,,,1
6555036c583bbf5fc6e0d702,uhmzwvk2c0,Ex2A_Prolific,1,60,2024-02-28T00:04:27+00:00,2.8033339977264,4,Stim_B.csv,Global.csv,Global,B,,,,,,0,Instruct,User,-,"You have completed this section. Please click next.",,Instruct166,2650,,,114,2545,,,,,1
6555036c583bbf5fc6e0d702,uhmzwvk2c0,Ex2A_Prolific,1,61,2024-02-28T00:04:31+00:00,4.7498350143433,4,Stim_B.csv,Global.csv,Global,B,,,,,,0,Instruct,User,4,"You will now complete a memory test for the words you just studied. Please type as many words from the previous list as you can seperated by a comma. Spelling will not count against you and you can recall the words in any order. This test will be timed for one minute, and the computer will automatically advance once time is up. Click next when you are ready to begin.",,Instruct1666,4477,,,-1,-1,,,,,1
6555036c583bbf5fc6e0d702,uhmzwvk2c0,Ex2A_Prolific,1,62,2024-02-28T00:05:32+00:00,60.276452064514,4,Stim_B.csv,Global.csv,Global,B,,,,,,0,FreeRecall,60,60,"Please type as many words as you can from the previous study list in any order. Please separate each word with a comma. Spelling will not count against you. This screen will automatically advance in one minute.",,RECALL_Test,60001,"Honey, Sugar, Bitter, Sour, Candy, Tart, Chocolate, Good, Cake, Tooth",0,985,37397,0,0,,,1
6555036c583bbf5fc6e0d702,uhmzwvk2c0,Ex2A_Prolific,1,63,2024-02-28T00:05:42+00:00,10.206189870834,4,Stim_B.csv,Global.csv,Global,B,,,,,,0,Instruct,User,3,"You will now be presented with a new study list. Click next when you are ready to begin.",,NEXT_LIST,9930,,,-1,-1,,,,,1
6555036c583bbf5fc6e0d702,uhmzwvk2c0,Ex2A_Prolific,1,64,2024-02-28T00:05:45+00:00,2.6315040588379,4,Stim_B.csv,Global.csv,Global,B,table,,T1,,,38,Study,User,1.25,,Trash,T1,2461,,,-1,-1,,,,,1
6555036c583bbf5fc6e0d702,uhmzwvk2c0,Ex2A_Prolific,1,65,2024-02-28T00:05:48+00:00,2.9711420536041,4,Stim_B.csv,Global.csv,Global,B,swivel,,T2,,,39,Study,User,1.25,,Trash,T2,2806,,,-1,-1,,,,,1
6555036c583bbf5fc6e0d702,uhmzwvk2c0,Ex2A_Prolific,1,66,2024-02-28T00:05:54+00:00,6.9099040031433,4,Stim_B.csv,Global.csv,Global,B,rocking,,T3,,,40,Study,User,1.25,,Trash,T3,6757,,,-1,-1,,,,,1
6555036c583bbf5fc6e0d702,uhmzwvk2c0,Ex2A_Prolific,1,67,2024-02-28T00:05:58+00:00,3.8659508228302,4,Stim_B.csv,Global.csv,Global,B,recliner,,T4,,,41,Study,User,1.25,,Trash,T4,3579,,,-1,-1,,,,,1
6555036c583bbf5fc6e0d702,uhmzwvk2c0,Ex2A_Prolific,1,68,2024-02-28T00:06:06+00:00,7.1625590324402,4,Stim_B.csv,Global.csv,Global,B,seat,,T5,,,42,Study,User,1.25,,Trash,T5,6887,,,-1,-1,,,,,1
6555036c583bbf5fc6e0d702,uhmzwvk2c0,Ex2A_Prolific,1,69,2024-02-28T00:06:21+00:00,15.169859170914,4,Stim_B.csv,Global.csv,Global,B,stool,,T6,,,43,Study,User,1.25,,Trash,T6,14894,,,-1,-1,,,,,1
6555036c583bbf5fc6e0d702,uhmzwvk2c0,Ex2A_Prolific,1,70,2024-02-28T00:06:24+00:00,2.9282557964325,4,Stim_B.csv,Global.csv,Global,B,desk,,T7,,,44,Study,User,1.25,,Trash,T7,2772,,,-1,-1,,,,,1
6555036c583bbf5fc6e0d702,uhmzwvk2c0,Ex2A_Prolific,1,71,2024-02-28T00:06:26+00:00,2.2732620239258,4,Stim_B.csv,Global.csv,Global,B,couch,,T8,,,45,Study,User,1.25,,Trash,T8,2121,,,-1,-1,,,,,1
6555036c583bbf5fc6e0d702,uhmzwvk2c0,Ex2A_Prolific,1,72,2024-02-28T00:06:28+00:00,1.8644421100616,4,Stim_B.csv,Global.csv,Global,B,sit,,T9,,,46,Study,User,1.25,,Trash,T9,1710,,,-1,-1,,,,,1
6555036c583bbf5fc6e0d702,uhmzwvk2c0,Ex2A_Prolific,1,73,2024-02-28T00:06:30+00:00,2.6711728572845,4,Stim_B.csv,Global.csv,Global,B,sofa,,T10,,,47,Study,User,1.25,,Trash,T10,2398,,,-1,-1,,,,,1
6555036c583bbf5fc6e0d702,uhmzwvk2c0,Ex2A_Prolific,1,74,2024-02-28T00:06:33+00:00,2.8640220165253,4,Stim_B.csv,Global.csv,Global,B,bench,,T11,,,48,Study,User,1.25,,Trash,T11,2709,,,-1,-1,,,,,1
6555036c583bbf5fc6e0d702,uhmzwvk2c0,Ex2A_Prolific,1,75,2024-02-28T00:06:36+00:00,2.5543501377106,4,Stim_B.csv,Global.csv,Global,B,sitting,,T12,,,49,Study,User,1.25,,Trash,T12,2397,,,-1,-1,,,,,1
6555036c583bbf5fc6e0d702,uhmzwvk2c0,Ex2A_Prolific,1,76,2024-02-28T00:06:37+00:00,1.1501250267029,4,Stim_B.csv,Global.csv,Global,B,,,,,,0,Instruct,User,-,"You have completed this section and will now be asked to judge your ability to remember the list items you just studied. You will have four seconds to type your rating. Please click next to continue.",,Next_List1,986,,,-1,-1,,,,,1
6555036c583bbf5fc6e0d702,uhmzwvk2c0,Ex2A_Prolific,1,77,2024-02-28T00:06:42+00:00,5.2906348705292,4,Stim_B.csv,Global.csv,Global,B,,,,,,0,JOL_GLOBAL,5,5,"How likely are you to correctly recall each of the items you just studied?|Type your response on a scale from 0-100 and then press Enter (0 = WILL NOT REMEMBER; 100 = DEFINITELY WILL REMEMBER).",Related,JOL4,5002,,,1105,1285,,,,50,1
6555036c583bbf5fc6e0d702,uhmzwvk2c0,Ex2A_Prolific,1,78,2024-02-28T00:06:47+00:00,4.6188130378723,4,Stim_B.csv,Global.csv,Global,B,,,,,,0,Instruct,User,4,"You have completed this section. Please click next.",,Instruct166,4379,,,-1,-1,,,,,1
6555036c583bbf5fc6e0d702,uhmzwvk2c0,Ex2A_Prolific,1,79,2024-02-28T00:07:17+00:00,30.316966056824,4,Stim_B.csv,Global.csv,Global,B,,,,,,0,FreeRecall,30,30,"Please type as many words as you can that begin with the letter ""K"". The computer will automatically advance to the next screen in 30 seconds.",,FILLER,30001,"KFC Kangaroo K",0,6906,16602,0,0,,,1
6555036c583bbf5fc6e0d702,uhmzwvk2c0,Ex2A_Prolific,1,80,2024-02-28T00:07:19+00:00,2.2876689434052,4,Stim_B.csv,Global.csv,Global,B,,,,,,0,Instruct,User,1.25,"You have completed this section. Please click next.",,Instruct166,2133,,,-1,-1,,,,,1
6555036c583bbf5fc6e0d702,uhmzwvk2c0,Ex2A_Prolific,1,81,2024-02-28T00:07:24+00:00,4.8681099414825,4,Stim_B.csv,Global.csv,Global,B,,,,,,0,Instruct,User,4,"You will now complete a memory test for the words you just studied. Please type as many words from the previous list as you can seperated by a comma. Spelling will not count against you and you can recall the words in any order. This test will be timed for one minute, and the computer will automatically advance once time is up. Click next when you are ready to begin.",,Instruct1666,4594,,,-1,-1,,,,,1
6555036c583bbf5fc6e0d702,uhmzwvk2c0,Ex2A_Prolific,1,82,2024-02-28T00:08:25+00:00,60.276129007339,4,Stim_B.csv,Global.csv,Global,B,,,,,,0,FreeRecall,60,60,"Please type as many words as you can from the previous study list in any order. Please separate each word with a comma. Spelling will not count against you. This screen will automatically advance in one minute.",,RECALL_Test,60001,"Table, Swivel, Rocking, Recliner, Seat, Bench, Sitting, Sofa",0,916,46753,0,0,,,1
6555036c583bbf5fc6e0d702,uhmzwvk2c0,Ex2A_Prolific,1,83,2024-02-28T00:08:35+00:00,10.470993041992,4,Stim_B.csv,Global.csv,Global,B,,,,,,0,Instruct,User,3,"You will now be presented with a new study list. Click next when you are ready to begin.",,NEXT_LIST,10193,,,-1,-1,,,,,1
6555036c583bbf5fc6e0d702,uhmzwvk2c0,Ex2A_Prolific,1,84,2024-02-28T00:08:41+00:00,5.6624810695648,4,Stim_B.csv,Global.csv,Global,B,climber,,D1,,,50,Study,User,1.25,,Doctor,D1,5509,,,-1,-1,,,,,1
6555036c583bbf5fc6e0d702,uhmzwvk2c0,Ex2A_Prolific,1,85,2024-02-28T00:08:46+00:00,4.8017959594727,4,Stim_B.csv,Global.csv,Global,B,hill,,D2,,,51,Study,User,1.25,,Doctor,D2,4636,,,-1,-1,,,,,1
6555036c583bbf5fc6e0d702,uhmzwvk2c0,Ex2A_Prolific,1,86,2024-02-28T00:08:49+00:00,3.3072619438171,4,Stim_B.csv,Global.csv,Global,B,climb,,D3,,,52,Study,User,1.25,,Doctor,D3,3143,,,-1,-1,,,,,1
6555036c583bbf5fc6e0d702,uhmzwvk2c0,Ex2A_Prolific,1,87,2024-02-28T00:08:53+00:00,3.9836831092834,4,Stim_B.csv,Global.csv,Global,B,molehill,,D4,,,53,Study,User,1.25,,Doctor,D4,3706,,,-1,-1,,,,,1
6555036c583bbf5fc6e0d702,uhmzwvk2c0,Ex2A_Prolific,1,88,2024-02-28T00:08:59+00:00,5.8637928962708,4,Stim_B.csv,Global.csv,Global,B,peak,,D5,,,54,Study,User,1.25,,Doctor,D5,5711,,,-1,-1,,,,,1
6555036c583bbf5fc6e0d702,uhmzwvk2c0,Ex2A_Prolific,1,89,2024-02-28T00:09:02+00:00,3.1516051292419,4,Stim_B.csv,Global.csv,Global,B,valley,,D6,,,55,Study,User,1.25,,Doctor,D6,2872,,,-1,-1,,,,,1
6555036c583bbf5fc6e0d702,uhmzwvk2c0,Ex2A_Prolific,1,90,2024-02-28T00:09:05+00:00,2.6180357933044,4,Stim_B.csv,Global.csv,Global,B,summit,,D7,,,56,Study,User,1.25,,Doctor,D7,2464,,,-1,-1,,,,,1
6555036c583bbf5fc6e0d702,uhmzwvk2c0,Ex2A_Prolific,1,91,2024-02-28T00:09:08+00:00,3.2304100990295,4,Stim_B.csv,Global.csv,Global,B,steep,,D8,,,57,Study,User,1.25,,Doctor,D8,3060,,,-1,-1,,,,,1
6555036c583bbf5fc6e0d702,uhmzwvk2c0,Ex2A_Prolific,1,92,2024-02-28T00:09:11+00:00,2.8421730995178,4,Stim_B.csv,Global.csv,Global,B,ski,,D9,,,58,Study,User,1.25,,Doctor,D9,2552,,,-1,-1,,,,,1
6555036c583bbf5fc6e0d702,uhmzwvk2c0,Ex2A_Prolific,1,93,2024-02-28T00:09:13+00:00,2.4935579299927,4,Stim_B.csv,Global.csv,Global,B,bike,,D10,,,59,Study,User,1.25,,Doctor,D10,2339,,,-1,-1,,,,,1
6555036c583bbf5fc6e0d702,uhmzwvk2c0,Ex2A_Prolific,1,94,2024-02-28T00:09:16+00:00,2.6749339103699,4,Stim_B.csv,Global.csv,Global,B,goat,,D11,,,60,Study,User,1.25,,Doctor,D11,2519,,,-1,-1,,,,,1
6555036c583bbf5fc6e0d702,uhmzwvk2c0,Ex2A_Prolific,1,95,2024-02-28T00:09:18+00:00,2.6961200237274,4,Stim_B.csv,Global.csv,Global,B,glacier,,D12,,,61,Study,User,1.25,,Doctor,D12,2540,,,-1,-1,,,,,1
6555036c583bbf5fc6e0d702,uhmzwvk2c0,Ex2A_Prolific,1,96,2024-02-28T00:09:20+00:00,1.376816034317,4,Stim_B.csv,Global.csv,Global,B,,,,,,0,Instruct,User,-,"You have completed this section and will now be asked to judge your ability to remember the list items you just studied. You will have four seconds to type your rating. Please click next to continue.",,Next_List1,1101,,,-1,-1,,,,,1
6555036c583bbf5fc6e0d702,uhmzwvk2c0,Ex2A_Prolific,1,97,2024-02-28T00:09:25+00:00,5.1615829467773,4,Stim_B.csv,Global.csv,Global,B,,,,,,0,JOL_GLOBAL,5,1.25,"How likely are you to correctly recall each of the items you just studied?|Type your response on a scale from 0-100 and then press Enter (0 = WILL NOT REMEMBER; 100 = DEFINITELY WILL REMEMBER).",Related,JOL5,5002,,,2080,2255,,,,20,1
6555036c583bbf5fc6e0d702,uhmzwvk2c0,Ex2A_Prolific,1,98,2024-02-28T00:09:26+00:00,1.3877081871033,4,Stim_B.csv,Global.csv,Global,B,,,,,,0,Instruct,User,-,"You have completed this section. Please click next.",,Instruct166,1233,,,-1,-1,,,,,1
6555036c583bbf5fc6e0d702,uhmzwvk2c0,Ex2A_Prolific,1,99,2024-02-28T00:09:57+00:00,30.276619911194,4,Stim_B.csv,Global.csv,Global,B,,,,,,0,FreeRecall,30,30,"Please type as many words as you can that begin with the letter ""T"". The computer will automatically advance to the next screen in 30 seconds.",,FILLER,30000,"T-Rex Take Took Taken Too Table Tall Tarp Tart T",0,2045,24981,0,0,,,1
6555036c583bbf5fc6e0d702,uhmzwvk2c0,Ex2A_Prolific,1,100,2024-02-28T00:10:01+00:00,4.7450909614563,4,Stim_B.csv,Global.csv,Global,B,,,,,,0,Instruct,User,4,"You have completed this section. Please click next.",,Instruct166,4574,,,-1,-1,,,,,1
6555036c583bbf5fc6e0d702,uhmzwvk2c0,Ex2A_Prolific,1,101,2024-02-28T00:10:06+00:00,4.840255022049,4,Stim_B.csv,Global.csv,Global,B,,,,,,0,Instruct,User,4,"You will now complete a memory test for the words you just studied. Please type as many words from the previous list as you can seperated by a comma. Spelling will not count against you and you can recall the words in any order. This test will be timed for one minute, and the computer will automatically advance once time is up. Click next when you are ready to begin.",,Instruct1666,4688,,,-1,-1,,,,,1
6555036c583bbf5fc6e0d702,uhmzwvk2c0,Ex2A_Prolific,1,102,2024-02-28T00:11:07+00:00,60.28209400177,4,Stim_B.csv,Global.csv,Global,B,,,,,,0,FreeRecall,60,60,"Please type as many words as you can from the previous study list in any order. Please separate each word with a comma. Spelling will not count against you. This screen will automatically advance in one minute.",,RECALL_Test,60001,"Climber, Climb, Bike, Hill, Molehill, Steep ",0,1171,53031,0,0,,,1
6555036c583bbf5fc6e0d702,uhmzwvk2c0,Ex2A_Prolific,1,103,2024-02-28T00:11:50+00:00,43.597584009171,4,Stim_B.csv,Global.csv,Global,B,,,,,,0,Instruct,User,3,"You will now be presented with a new study list. Click next when you are ready to begin.",,NEXT_LIST,43303,,,-1,-1,,,,,1
6555036c583bbf5fc6e0d702,uhmzwvk2c0,Ex2A_Prolific,1,104,2024-02-28T00:11:55+00:00,5.1079530715942,4,Stim_B.csv,Global.csv,Global,B,band,,S1,,,62,Study,User,1.25,,Slow,S1,4821,,,-1,-1,,,,,1
6555036c583bbf5fc6e0d702,uhmzwvk2c0,Ex2A_Prolific,1,105,2024-02-28T00:11:58+00:00,3.1563630104065,4,Stim_B.csv,Global.csv,Global,B,concert,,S2,,,63,Study,User,1.25,,Slow,S2,2998,,,-1,-1,,,,,1
6555036c583bbf5fc6e0d702,uhmzwvk2c0,Ex2A_Prolific,1,106,2024-02-28T00:12:06+00:00,7.3577108383179,4,Stim_B.csv,Global.csv,Global,B,jazz,,S3,,,64,Study,User,1.25,,Slow,S3,7077,,,-1,-1,,,,,1
6555036c583bbf5fc6e0d702,uhmzwvk2c0,Ex2A_Prolific,1,107,2024-02-28T00:12:11+00:00,4.9037461280823,4,Stim_B.csv,Global.csv,Global,B,symphony,,S4,,,65,Study,User,1.25,,Slow,S4,4664,,,-1,-1,,,,,1
6555036c583bbf5fc6e0d702,uhmzwvk2c0,Ex2A_Prolific,1,108,2024-02-28T00:12:17+00:00,5.9154908657074,4,Stim_B.csv,Global.csv,Global,B,orchestra,,S5,,,66,Study,User,1.25,,Slow,S5,5629,,,-1,-1,,,,,1
6555036c583bbf5fc6e0d702,uhmzwvk2c0,Ex2A_Prolific,1,109,2024-02-28T00:12:23+00:00,6.1244730949402,4,Stim_B.csv,Global.csv,Global,B,rhythm,,S6,,,67,Study,User,1.25,,Slow,S6,5924,,,-1,-1,,,,,1
6555036c583bbf5fc6e0d702,uhmzwvk2c0,Ex2A_Prolific,1,110,2024-02-28T00:12:36+00:00,13.21821308136,4,Stim_B.csv,Global.csv,Global,B,radio,,S7,,,68,Study,User,1.25,,Slow,S7,12934,,,-1,-1,,,,,1
6555036c583bbf5fc6e0d702,uhmzwvk2c0,Ex2A_Prolific,1,111,2024-02-28T00:12:39+00:00,3.2160589694977,4,Stim_B.csv,Global.csv,Global,B,melody,,S8,,,69,Study,User,1.25,,Slow,S8,3057,,,-1,-1,,,,,1
6555036c583bbf5fc6e0d702,uhmzwvk2c0,Ex2A_Prolific,1,112,2024-02-28T00:12:42+00:00,2.4116728305817,4,Stim_B.csv,Global.csv,Global,B,piano,,S9,,,70,Study,User,1.25,,Slow,S9,2244,,,-1,-1,,,,,1
6555036c583bbf5fc6e0d702,uhmzwvk2c0,Ex2A_Prolific,1,113,2024-02-28T00:12:44+00:00,2.5522329807281,4,Stim_B.csv,Global.csv,Global,B,sound,,S10,,,71,Study,User,1.25,,Slow,S10,2396,,,-1,-1,,,,,1
6555036c583bbf5fc6e0d702,uhmzwvk2c0,Ex2A_Prolific,1,114,2024-02-28T00:12:47+00:00,2.663134098053,4,Stim_B.csv,Global.csv,Global,B,instrument,,S11,,,72,Study,User,1.25,,Slow,S11,2388,,,-1,-1,,,,,1
6555036c583bbf5fc6e0d702,uhmzwvk2c0,Ex2A_Prolific,1,115,2024-02-28T00:12:49+00:00,1.9041969776154,4,Stim_B.csv,Global.csv,Global,B,note,,S12,,,73,Study,User,1.25,,Slow,S12,1751,,,-1,-1,,,,,1
6555036c583bbf5fc6e0d702,uhmzwvk2c0,Ex2A_Prolific,1,116,2024-02-28T00:12:50+00:00,1.5676250457764,4,Stim_B.csv,Global.csv,Global,B,,,,,,0,Instruct,User,-,"You have completed this section and will now be asked to judge your ability to remember the list items you just studied. You will have four seconds to type your rating. Please click next to continue.",,Next_List1,1404,,,-1,-1,,,,,1
6555036c583bbf5fc6e0d702,uhmzwvk2c0,Ex2A_Prolific,1,117,2024-02-28T00:12:55+00:00,5.2844920158386,4,Stim_B.csv,Global.csv,Global,B,,,,,,0,JOL_GLOBAL,5,5,"How likely are you to correctly recall each of the items you just studied?|Type your response on a scale from 0-100 and then press Enter (0 = WILL NOT REMEMBER; 100 = DEFINITELY WILL REMEMBER).",Related,JOL6,5002,,,1236,1327,,,,60,1
6555036c583bbf5fc6e0d702,uhmzwvk2c0,Ex2A_Prolific,1,118,2024-02-28T00:13:00+00:00,4.5211229324341,4,Stim_B.csv,Global.csv,Global,B,,,,,,0,Instruct,User,4,"You have completed this section. Please click next.",,Instruct166,4368,,,-1,-1,,,,,1
6555036c583bbf5fc6e0d702,uhmzwvk2c0,Ex2A_Prolific,1,119,2024-02-28T00:13:30+00:00,30.280066013336,4,Stim_B.csv,Global.csv,Global,B,,,,,,0,FreeRecall,30,30,"Please type as many words as you can that begin with the letter ""C"". The computer will automatically advance to the next screen in 30 seconds.",,FILLER,30000,"Cook Clean Can't Candle Cookware Candy Concrete Clause C",0,1858,26458,0,0,,,1
6555036c583bbf5fc6e0d702,uhmzwvk2c0,Ex2A_Prolific,1,120,2024-02-28T00:13:31+00:00,0.53827810287476,4,Stim_B.csv,Global.csv,Global,B,,,,,,0,Instruct,User,-,"You have completed this section. Please click next.",,Instruct166,380,,,44,244,,,,,1
6555036c583bbf5fc6e0d702,uhmzwvk2c0,Ex2A_Prolific,1,121,2024-02-28T00:13:33+00:00,2.5658960342407,4,Stim_B.csv,Global.csv,Global,B,,,,,,0,Instruct,User,1.25,"You will now complete a memory test for the words you just studied. Please type as many words from the previous list as you can seperated by a comma. Spelling will not count against you and you can recall the words in any order. This test will be timed for one minute, and the computer will automatically advance once time is up. Click next when you are ready to begin.",,Instruct1666,2406,,,-1,-1,,,,,1
6555036c583bbf5fc6e0d702,uhmzwvk2c0,Ex2A_Prolific,1,122,2024-02-28T00:14:34+00:00,60.293069839478,4,Stim_B.csv,Global.csv,Global,B,,,,,,0,FreeRecall,60,60,"Please type as many words as you can from the previous study list in any order. Please separate each word with a comma. Spelling will not count against you. This screen will automatically advance in one minute.",,RECALL_Test,60001,"Band, Concert, Jazz, Symphony, Orchestra, Radio, Note, Instrument, Piano",0,909,41813,0,0,,,1
6555036c583bbf5fc6e0d702,uhmzwvk2c0,Ex2A_Prolific,1,123,2024-02-28T00:14:40+00:00,6.0554549694061,4,Stim_B.csv,Global.csv,Global,B,,,,,,0,Instruct,User,3,"You will now be presented with a new study list. Click next when you are ready to begin.",,NEXT_LIST,5771,,,-1,-1,,,,,1
6555036c583bbf5fc6e0d702,uhmzwvk2c0,Ex2A_Prolific,1,124,2024-02-28T00:14:51+00:00,10.81964802742,4,Stim_B.csv,Global.csv,Global,B,foam,,RR1,,,74,Study,User,1.25,,River,RR1,10531,,,-1,-1,,,,,1
6555036c583bbf5fc6e0d702,uhmzwvk2c0,Ex2A_Prolific,1,125,2024-02-28T00:14:54+00:00,3.5083940029144,4,Stim_B.csv,Global.csv,Global,B,latex,,RR2,,,75,Study,User,1.25,,River,RR2,3352,,,-1,-1,,,,,1
6555036c583bbf5fc6e0d702,uhmzwvk2c0,Ex2A_Prolific,1,126,2024-02-28T00:15:01+00:00,6.6964039802551,4,Stim_B.csv,Global.csv,Global,B,galoshes,,RR3,,,76,Study,User,1.25,,River,RR3,6405,,,-1,-1,,,,,1
6555036c583bbf5fc6e0d702,uhmzwvk2c0,Ex2A_Prolific,1,127,2024-02-28T00:15:05+00:00,4.3737750053406,4,Stim_B.csv,Global.csv,Global,B,tire,,RR4,,,77,Study,User,1.25,,River,RR4,4093,,,-1,-1,,,,,1
6555036c583bbf5fc6e0d702,uhmzwvk2c0,Ex2A_Prolific,1,128,2024-02-28T00:15:11+00:00,5.3975739479065,4,Stim_B.csv,Global.csv,Global,B,flexible,,RR5,,,78,Study,User,1.25,,River,RR5,5239,,,-1,-1,,,,,1
6555036c583bbf5fc6e0d702,uhmzwvk2c0,Ex2A_Prolific,1,129,2024-02-28T00:15:32+00:00,21.038595199585,4,Stim_B.csv,Global.csv,Global,B,elastic,,RR6,,,79,Study,User,1.25,,River,RR6,20750,,,-1,-1,,,,,1
6555036c583bbf5fc6e0d702,uhmzwvk2c0,Ex2A_Prolific,1,130,2024-02-28T00:15:46+00:00,13.989615917206,4,Stim_B.csv,Global.csv,Global,B,gloves,,RR7,,,80,Study,User,1.25,,River,RR7,13694,,,-1,-1,,,,,1
6555036c583bbf5fc6e0d702,uhmzwvk2c0,Ex2A_Prolific,1,131,2024-02-28T00:15:49+00:00,3.2076590061188,4,Stim_B.csv,Global.csv,Global,B,eraser,,RR8,,,81,Study,User,1.25,,River,RR8,3044,,,-1,-1,,,,,1
6555036c583bbf5fc6e0d702,uhmzwvk2c0,Ex2A_Prolific,1,132,2024-02-28T00:15:52+00:00,2.9037940502167,4,Stim_B.csv,Global.csv,Global,B,bounce,,RR9,,,82,Study,User,1.25,,River,RR9,2727,,,-1,-1,,,,,1
6555036c583bbf5fc6e0d702,uhmzwvk2c0,Ex2A_Prolific,1,133,2024-02-28T00:15:54+00:00,2.0010828971863,4,Stim_B.csv,Global.csv,Global,B,ball,,RR10,,,83,Study,User,1.25,,River,RR10,1842,,,-1,-1,,,,,1
6555036c583bbf5fc6e0d702,uhmzwvk2c0,Ex2A_Prolific,1,134,2024-02-28T00:15:56+00:00,2.510812997818,4,Stim_B.csv,Global.csv,Global,B,soles,,RR11,,,84,Study,User,1.25,,River,RR11,2225,,,-1,-1,,,,,1
6555036c583bbf5fc6e0d702,uhmzwvk2c0,Ex2A_Prolific,1,135,2024-02-28T00:15:58+00:00,2.100193977356,4,Stim_B.csv,Global.csv,Global,B,springy,,RR12,,,85,Study,User,1.25,,River,RR12,1945,,,-1,-1,,,,,1
6555036c583bbf5fc6e0d702,uhmzwvk2c0,Ex2A_Prolific,1,136,2024-02-28T00:16:02+00:00,3.4590439796448,4,Stim_B.csv,Global.csv,Global,B,,,,,,0,Instruct,User,1.25,"You have completed this section and will now be asked to judge your ability to remember the list items you just studied. You will have four seconds to type your rating. Please click next to continue.",,Next_List1,3309,,,-1,-1,,,,,1
6555036c583bbf5fc6e0d702,uhmzwvk2c0,Ex2A_Prolific,1,137,2024-02-28T00:16:07+00:00,5.2792391777039,4,Stim_B.csv,Global.csv,Global,B,,,,,,0,JOL_GLOBAL,5,5,"How likely are you to correctly recall each of the items you just studied?|Type your response on a scale from 0-100 and then press Enter (0 = WILL NOT REMEMBER; 100 = DEFINITELY WILL REMEMBER).",Related,JOL7,5001,,,1630,1685,,,,60,1
6555036c583bbf5fc6e0d702,uhmzwvk2c0,Ex2A_Prolific,1,138,2024-02-28T00:16:08+00:00,0.82343101501465,4,Stim_B.csv,Global.csv,Global,B,,,,,,0,Instruct,User,-,"You have completed this section. Please click next.",,Instruct166,671,,,-1,-1,,,,,1
6555036c583bbf5fc6e0d702,uhmzwvk2c0,Ex2A_Prolific,1,139,2024-02-28T00:16:38+00:00,30.287259817123,4,Stim_B.csv,Global.csv,Global,B,,,,,,0,FreeRecall,30,30,"Please type as many words as you can that begin with the letter ""M"". The computer will automatically advance to the next screen in 30 seconds.",,FILLER,30001,"Money Mom Mannequin Monkey More Moose Mouse M",0,1445,21165,0,0,,,1
6555036c583bbf5fc6e0d702,uhmzwvk2c0,Ex2A_Prolific,1,140,2024-02-28T00:16:43+00:00,4.5282759666443,4,Stim_B.csv,Global.csv,Global,B,,,,,,0,Instruct,User,4,"You have completed this section. Please click next.",,Instruct166,4370,,,-1,-1,,,,,1
6555036c583bbf5fc6e0d702,uhmzwvk2c0,Ex2A_Prolific,1,141,2024-02-28T00:16:48+00:00,4.9440841674805,4,Stim_B.csv,Global.csv,Global,B,,,,,,0,Instruct,User,4,"You will now complete a memory test for the words you just studied. Please type as many words from the previous list as you can seperated by a comma. Spelling will not count against you and you can recall the words in any order. This test will be timed for one minute, and the computer will automatically advance once time is up. Click next when you are ready to begin.",,Instruct1666,4669,,,-1,-1,,,,,1
6555036c583bbf5fc6e0d702,uhmzwvk2c0,Ex2A_Prolific,1,142,2024-02-28T00:17:48+00:00,60.292742013931,4,Stim_B.csv,Global.csv,Global,B,,,,,,0,FreeRecall,60,60,"Please type as many words as you can from the previous study list in any order. Please separate each word with a comma. Spelling will not count against you. This screen will automatically advance in one minute.",,RECALL_Test,60000,"Foam, Latex, Galoshes, Tire, Flexible, Elastic, Springy, Ball, Bounce",0,905,49674,0,0,,,1
6555036c583bbf5fc6e0d702,uhmzwvk2c0,Ex2A_Prolific,1,143,2024-02-28T00:17:52+00:00,3.6599760055542,4,Stim_B.csv,Global.csv,Global,B,,,,,,0,Instruct,User,3,"You will now be presented with a new study list. Click next when you are ready to begin.",,NEXT_LIST,3499,,,-1,-1,,,,,1
6555036c583bbf5fc6e0d702,uhmzwvk2c0,Ex2A_Prolific,1,144,2024-02-28T00:17:55+00:00,3.5196809768677,4,Stim_B.csv,Global.csv,Global,B,toe,,B1,,,86,Study,User,1.25,,Bread,B1,3242,,,-1,-1,,,,,1
6555036c583bbf5fc6e0d702,uhmzwvk2c0,Ex2A_Prolific,1,145,2024-02-28T00:17:59+00:00,4.0680558681488,4,Stim_B.csv,Global.csv,Global,B,inch,,B2,,,87,Study,User,1.25,,Bread,B2,3912,,,-1,-1,,,,,1
6555036c583bbf5fc6e0d702,uhmzwvk2c0,Ex2A_Prolific,1,146,2024-02-28T00:18:03+00:00,4.3183791637421,4,Stim_B.csv,Global.csv,Global,B,ankle,,B3,,,88,Study,User,1.25,,Bread,B3,4162,,,-1,-1,,,,,1
6555036c583bbf5fc6e0d702,uhmzwvk2c0,Ex2A_Prolific,1,147,2024-02-28T00:18:10+00:00,6.1944689750671,4,Stim_B.csv,Global.csv,Global,B,shoe,,B4,,,89,Study,User,1.25,,Bread,B4,5911,,,-1,-1,,,,,1
6555036c583bbf5fc6e0d702,uhmzwvk2c0,Ex2A_Prolific,1,148,2024-02-28T00:18:17+00:00,6.9384748935699,4,Stim_B.csv,Global.csv,Global,B,sandals,,B5,,,90,Study,User,1.25,,Bread,B5,6657,,,-1,-1,,,,,1
6555036c583bbf5fc6e0d702,uhmzwvk2c0,Ex2A_Prolific,1,149,2024-02-28T00:18:21+00:00,4.5955581665039,4,Stim_B.csv,Global.csv,Global,B,sock,,B6,,,91,Study,User,1.25,,Bread,B6,4439,,,-1,-1,,,,,1
6555036c583bbf5fc6e0d702,uhmzwvk2c0,Ex2A_Prolific,1,150,2024-02-28T00:18:28+00:00,6.3093409538269,4,Stim_B.csv,Global.csv,Global,B,hand,,B7,,,92,Study,User,1.25,,Bread,B7,6019,,,-1,-1,,,,,1
6555036c583bbf5fc6e0d702,uhmzwvk2c0,Ex2A_Prolific,1,151,2024-02-28T00:18:30+00:00,2.6400239467621,4,Stim_B.csv,Global.csv,Global,B,boot,,B8,,,93,Study,User,1.25,,Bread,B8,2484,,,-1,-1,,,,,1
6555036c583bbf5fc6e0d702,uhmzwvk2c0,Ex2A_Prolific,1,152,2024-02-28T00:18:32+00:00,1.933296918869,4,Stim_B.csv,Global.csv,Global,B,yard,,B9,,,94,Study,User,1.25,,Bread,B9,1779,,,-1,-1,,,,,1
6555036c583bbf5fc6e0d702,uhmzwvk2c0,Ex2A_Prolific,1,153,2024-02-28T00:18:34+00:00,2.1549780368805,4,Stim_B.csv,Global.csv,Global,B,kick,,B10,,,95,Study,User,1.25,,Bread,B10,1998,,,-1,-1,,,,,1
6555036c583bbf5fc6e0d702,uhmzwvk2c0,Ex2A_Prolific,1,154,2024-02-28T00:18:36+00:00,2.0305490493774,4,Stim_B.csv,Global.csv,Global,B,knee,,B11,,,96,Study,User,1.25,,Bread,B11,1754,,,-1,-1,,,,,1
6555036c583bbf5fc6e0d702,uhmzwvk2c0,Ex2A_Prolific,1,155,2024-02-28T00:18:38+00:00,1.7984519004822,4,Stim_B.csv,Global.csv,Global,B,walk,,B12,,,97,Study,User,1.25,,Bread,B12,1645,,,-1,-1,,,,,1
6555036c583bbf5fc6e0d702,uhmzwvk2c0,Ex2A_Prolific,1,156,2024-02-28T00:18:39+00:00,1.3078780174255,4,Stim_B.csv,Global.csv,Global,B,,,,,,0,Instruct,User,-,"You have completed this section and will now be asked to judge your ability to remember the list items you just studied. You will have four seconds to type your rating. Please click next to continue.",,Next_List1,1156,,,-1,-1,,,,,1
6555036c583bbf5fc6e0d702,uhmzwvk2c0,Ex2A_Prolific,1,157,2024-02-28T00:18:45+00:00,5.1839790344238,4,Stim_B.csv,Global.csv,Global,B,,,,,,0,JOL_GLOBAL,5,5,"How likely are you to correctly recall each of the items you just studied?|Type your response on a scale from 0-100 and then press Enter (0 = WILL NOT REMEMBER; 100 = DEFINITELY WILL REMEMBER).",Related,JOL8,5001,,,975,1070,,,,30,1
6555036c583bbf5fc6e0d702,uhmzwvk2c0,Ex2A_Prolific,1,158,2024-02-28T00:18:46+00:00,1.0398960113525,4,Stim_B.csv,Global.csv,Global,B,,,,,,0,Instruct,User,-,"You have completed this section. Please click next.",,Instruct166,764,,,-1,-1,,,,,1
6555036c583bbf5fc6e0d702,uhmzwvk2c0,Ex2A_Prolific,1,159,2024-02-28T00:19:16+00:00,30.279392957687,4,Stim_B.csv,Global.csv,Global,B,,,,,,0,FreeRecall,30,30,"Please type as many words as you can that begin with the letter ""W"". The computer will automatically advance to the next screen in 30 seconds.",,FILLER,30001,"World Wide Web Webcam Window Windex Whole Way Wipe ",0,1890,28695,0,0,,,1
6555036c583bbf5fc6e0d702,uhmzwvk2c0,Ex2A_Prolific,1,160,2024-02-28T00:19:18+00:00,1.7494421005249,4,Stim_B.csv,Global.csv,Global,B,,,,,,0,Instruct,User,-,"You have completed this section. Please click next.",,Instruct166,1591,,,-1,-1,,,,,1
6555036c583bbf5fc6e0d702,uhmzwvk2c0,Ex2A_Prolific,1,161,2024-02-28T00:19:22+00:00,4.565840959549,4,Stim_B.csv,Global.csv,Global,B,,,,,,0,Instruct,User,4,"You will now complete a memory test for the words you just studied. Please type as many words from the previous list as you can seperated by a comma. Spelling will not count against you and you can recall the words in any order. This test will be timed for one minute, and the computer will automatically advance once time is up. Click next when you are ready to begin.",,Instruct1666,4410,,,-1,-1,,,,,1
6555036c583bbf5fc6e0d702,uhmzwvk2c0,Ex2A_Prolific,1,162,2024-02-28T00:20:01+00:00,39.263402938843,4,Stim_B.csv,Global.csv,Global,B,,,,,,0,FreeRecall,60,1.25,"Please type as many words as you can from the previous study list in any order. Please separate each word with a comma. Spelling will not count against you. This screen will automatically advance in one minute.",,RECALL_Test,38978,"Toe, Inch, Ankle, Shoe, Sandal, Sock, Hand, Walk, Boot ",0,851,36251,0,0,,,1
6555036c583bbf5fc6e0d702,uhmzwvk2c0,Ex2A_Prolific,1,163,2024-02-28T00:20:08+00:00,6.3828599452972,4,Stim_B.csv,Global.csv,Global,B,,,,,,0,Instruct,User,3,"You will now be presented with a new study list. Click next when you are ready to begin.",,NEXT_LIST,6090,,,-1,-1,,,,,1
6555036c583bbf5fc6e0d702,uhmzwvk2c0,Ex2A_Prolific,1,164,2024-02-28T00:20:10+00:00,2.4037899971008,4,Stim_B.csv,Global.csv,Global,B,boy,,F1,,,98,Study,User,1.25,,Flag,F1,2216,,,-1,-1,,,,,1
6555036c583bbf5fc6e0d702,uhmzwvk2c0,Ex2A_Prolific,1,165,2024-02-28T00:20:13+00:00,2.3141160011292,4,Stim_B.csv,Global.csv,Global,B,dolls,,F2,,,99,Study,User,1.25,,Flag,F2,2154,,,-1,-1,,,,,1
6555036c583bbf5fc6e0d702,uhmzwvk2c0,Ex2A_Prolific,1,166,2024-02-28T00:20:15+00:00,2.8096601963043,4,Stim_B.csv,Global.csv,Global,B,pretty,,F3,,,100,Study,User,1.25,,Flag,F3,2523,,,-1,-1,,,,,1
6555036c583bbf5fc6e0d702,uhmzwvk2c0,Ex2A_Prolific,1,167,2024-02-28T00:20:19+00:00,3.2600920200348,4,Stim_B.csv,Global.csv,Global,B,female,,F4,,,101,Study,User,1.25,,Flag,F4,3101,,,-1,-1,,,,,1
6555036c583bbf5fc6e0d702,uhmzwvk2c0,Ex2A_Prolific,1,168,2024-02-28T00:20:23+00:00,4.2171139717102,4,Stim_B.csv,Global.csv,Global,B,dress,,F5,,,102,Study,User,1.25,,Flag,F5,4060,,,-1,-1,,,,,1
6555036c583bbf5fc6e0d702,uhmzwvk2c0,Ex2A_Prolific,1,169,2024-02-28T00:20:31+00:00,8.5994160175323,4,Stim_B.csv,Global.csv,Global,B,date,,F6,,,103,Study,User,1.25,,Flag,F6,8321,,,-1,-1,,,,,1
6555036c583bbf5fc6e0d702,uhmzwvk2c0,Ex2A_Prolific,1,170,2024-02-28T00:20:36+00:00,4.6020789146423,4,Stim_B.csv,Global.csv,Global,B,beautiful,,F7,,,104,Study,User,1.25,,Flag,F7,4322,,,-1,-1,,,,,1
6555036c583bbf5fc6e0d702,uhmzwvk2c0,Ex2A_Prolific,1,171,2024-02-28T00:20:40+00:00,3.9834530353546,4,Stim_B.csv,Global.csv,Global,B,daughter,,F8,,,105,Study,User,1.25,,Flag,F8,3822,,,-1,-1,,,,,1
6555036c583bbf5fc6e0d702,uhmzwvk2c0,Ex2A_Prolific,1,172,2024-02-28T00:20:42+00:00,1.7536919116974,4,Stim_B.csv,Global.csv,Global,B,sister,,F9,,,106,Study,User,1.25,,Flag,F9,1596,,,-1,-1,,,,,1
6555036c583bbf5fc6e0d702,uhmzwvk2c0,Ex2A_Prolific,1,173,2024-02-28T00:20:44+00:00,1.7624189853668,4,Stim_B.csv,Global.csv,Global,B,cute,,F10,,,107,Study,User,1.25,,Flag,F10,1602,,,-1,-1,,,,,1
6555036c583bbf5fc6e0d702,uhmzwvk2c0,Ex2A_Prolific,1,174,2024-02-28T00:20:46+00:00,1.9785311222076,4,Stim_B.csv,Global.csv,Global,B,niece,,F11,,,108,Study,User,1.25,,Flag,F11,1695,,,-1,-1,,,,,1
6555036c583bbf5fc6e0d702,uhmzwvk2c0,Ex2A_Prolific,1,175,2024-02-28T00:20:47+00:00,1.7428109645844,4,Stim_B.csv,Global.csv,Global,B,young,,F12,,,109,Study,User,1.25,,Flag,F12,1584,,,-1,-1,,,,,1
6555036c583bbf5fc6e0d702,uhmzwvk2c0,Ex2A_Prolific,1,176,2024-02-28T00:20:48+00:00,1.2082889080048,4,Stim_B.csv,Global.csv,Global,B,,,,,,0,Instruct,User,-,"You have completed this section and will now be asked to judge your ability to remember the list items you just studied. You will have four seconds to type your rating. Please click next to continue.",,Next_List1,1054,,,-1,-1,,,,,1
6555036c583bbf5fc6e0d702,uhmzwvk2c0,Ex2A_Prolific,1,177,2024-02-28T00:20:54+00:00,5.164085149765,4,Stim_B.csv,Global.csv,Global,B,,,,,,0,JOL_GLOBAL,5,5,"How likely are you to correctly recall each of the items you just studied?|Type your response on a scale from 0-100 and then press Enter (0 = WILL NOT REMEMBER; 100 = DEFINITELY WILL REMEMBER).",Related,JOL9,5001,,,2594,2769,,,,10,1
6555036c583bbf5fc6e0d702,uhmzwvk2c0,Ex2A_Prolific,1,178,2024-02-28T00:20:58+00:00,4.6635589599609,4,Stim_B.csv,Global.csv,Global,B,,,,,,0,Instruct,User,4,"You have completed this section. Please click next.",,Instruct166,4383,,,-1,-1,,,,,1
6555036c583bbf5fc6e0d702,uhmzwvk2c0,Ex2A_Prolific,1,179,2024-02-28T00:21:29+00:00,30.281236886978,4,Stim_B.csv,Global.csv,Global,B,,,,,,0,FreeRecall,30,30,"Please type as many words as you can that begin with the letter ""M"". The computer will automatically advance to the next screen in 30 seconds.",,FILLER,30001,"Many More Money Mimic Messy ",0,2393,22914,0,0,,,1
6555036c583bbf5fc6e0d702,uhmzwvk2c0,Ex2A_Prolific,1,180,2024-02-28T00:21:31+00:00,2.3963420391083,4,Stim_B.csv,Global.csv,Global,B,,,,,,0,Instruct,User,-,"You have completed this section. Please click next.",,Instruct166,2241,,,-1,-1,,,,,1
6555036c583bbf5fc6e0d702,uhmzwvk2c0,Ex2A_Prolific,1,181,2024-02-28T00:21:36+00:00,4.6604099273682,4,Stim_B.csv,Global.csv,Global,B,,,,,,0,Instruct,User,4,"You will now complete a memory test for the words you just studied. Please type as many words from the previous list as you can seperated by a comma. Spelling will not count against you and you can recall the words in any order. This test will be timed for one minute, and the computer will automatically advance once time is up. Click next when you are ready to begin.",,Instruct1666,4383,,,-1,-1,,,,,1
6555036c583bbf5fc6e0d702,uhmzwvk2c0,Ex2A_Prolific,1,182,2024-02-28T00:22:36+00:00,60.276524066925,4,Stim_B.csv,Global.csv,Global,B,,,,,,0,FreeRecall,60,60,"Please type as many words as you can from the previous study list in any order. Please separate each word with a comma. Spelling will not count against you. This screen will automatically advance in one minute.",,RECALL_Test,60000,"Dolls, Boy, Daughter, Sister, Pretty, Female, Dress, Cute, Young, Beautiful",0,859,52647,0,0,,,1
6555036c583bbf5fc6e0d702,uhmzwvk2c0,Ex2A_Prolific,1,183,2024-02-28T00:22:47+00:00,10.63752412796,4,Stim_B.csv,Global.csv,Global,B,,,,,,0,Instruct,User,1.25,"You will now be presented with a new study list. Click next when you are ready to begin.",,NEXT_LIST,10350,,,-1,-1,,,,,0.759
6555036c583bbf5fc6e0d702,uhmzwvk2c0,Ex2A_Prolific,1,184,2024-02-28T00:22:49+00:00,2.2662379741669,4,Stim_B.csv,Global.csv,Global,B,white,,SS1,,,110,Study,User,1.25,,Shirt,SS1,2104,,,-1,-1,,,,,1
6555036c583bbf5fc6e0d702,uhmzwvk2c0,Ex2A_Prolific,1,185,2024-02-28T00:22:51+00:00,1.7974779605865,4,Stim_B.csv,Global.csv,Global,B,gray,,SS2,,,111,Study,User,1.25,,Shirt,SS2,1642,,,-1,-1,,,,,1
6555036c583bbf5fc6e0d702,uhmzwvk2c0,Ex2A_Prolific,1,186,2024-02-28T00:22:53+00:00,1.9555490016937,4,Stim_B.csv,Global.csv,Global,B,brown,,SS3,,,112,Study,User,1.25,,Shirt,SS3,1796,,,-1,-1,,,,,1
6555036c583bbf5fc6e0d702,uhmzwvk2c0,Ex2A_Prolific,1,187,2024-02-28T00:22:55+00:00,2.0700099468231,4,Stim_B.csv,Global.csv,Global,B,coal,,SS4,,,113,Study,User,1.25,,Shirt,SS4,1911,,,-1,-1,,,,,1
6555036c583bbf5fc6e0d702,uhmzwvk2c0,Ex2A_Prolific,1,188,2024-02-28T00:22:57+00:00,1.8949770927429,4,Stim_B.csv,Global.csv,Global,B,dark,,SS5,,,114,Study,User,1.25,,Shirt,SS5,1606,,,-1,-1,,,,,1
6555036c583bbf5fc6e0d702,uhmzwvk2c0,Ex2A_Prolific,1,189,2024-02-28T00:22:58+00:00,1.7810189723969,4,Stim_B.csv,Global.csv,Global,B,color,,SS6,,,115,Study,User,1.25,,Shirt,SS6,1621,,,-1,-1,,,,,1
6555036c583bbf5fc6e0d702,uhmzwvk2c0,Ex2A_Prolific,1,190,2024-02-28T00:23:00+00:00,2.0571310520172,4,Stim_B.csv,Global.csv,Global,B,funeral,,SS7,,,116,Study,User,1.25,,Shirt,SS7,1900,,,-1,-1,,,,,1
6555036c583bbf5fc6e0d702,uhmzwvk2c0,Ex2A_Prolific,1,191,2024-02-28T00:23:02+00:00,1.7440547943115,4,Stim_B.csv,Global.csv,Global,B,blue,,SS8,,,117,Study,User,1.25,,Shirt,SS8,1583,,,-1,-1,,,,,1
6555036c583bbf5fc6e0d702,uhmzwvk2c0,Ex2A_Prolific,1,192,2024-02-28T00:23:04+00:00,2.0210270881653,4,Stim_B.csv,Global.csv,Global,B,charred,,SS9,,,118,Study,User,1.25,,Shirt,SS9,1858,,,-1,-1,,,,,1
6555036c583bbf5fc6e0d702,uhmzwvk2c0,Ex2A_Prolific,1,193,2024-02-28T00:23:06+00:00,1.8671910762787,4,Stim_B.csv,Global.csv,Global,B,ink,,SS10,,,119,Study,User,1.25,,Shirt,SS10,1582,,,-1,-1,,,,,1
6555036c583bbf5fc6e0d702,uhmzwvk2c0,Ex2A_Prolific,1,194,2024-02-28T00:23:08+00:00,1.7838699817657,4,Stim_B.csv,Global.csv,Global,B,death,,SS11,,,120,Study,User,1.25,,Shirt,SS11,1624,,,-1,-1,,,,,1
6555036c583bbf5fc6e0d702,uhmzwvk2c0,Ex2A_Prolific,1,195,2024-02-28T00:23:10+00:00,1.9672498703003,4,Stim_B.csv,Global.csv,Global,B,cat,,SS12,,,121,Study,User,1.25,,Shirt,SS12,1806,,,-1,-1,,,,,1
6555036c583bbf5fc6e0d702,uhmzwvk2c0,Ex2A_Prolific,1,196,2024-02-28T00:23:11+00:00,1.1363890171051,4,Stim_B.csv,Global.csv,Global,B,,,,,,0,Instruct,User,-,"You have completed this section and will now be asked to judge your ability to remember the list items you just studied. You will have four seconds to type your rating. Please click next to continue.",,Next_List1,980,,,-1,-1,,,,,1
6555036c583bbf5fc6e0d702,uhmzwvk2c0,Ex2A_Prolific,1,197,2024-02-28T00:23:16+00:00,5.2908170223236,4,Stim_B.csv,Global.csv,Global,B,,,,,,0,JOL_GLOBAL,5,5,"How likely are you to correctly recall each of the items you just studied?|Type your response on a scale from 0-100 and then press Enter (0 = WILL NOT REMEMBER; 100 = DEFINITELY WILL REMEMBER).",Related,JOL10,5001,,,1668,1764,,,,60,1
6555036c583bbf5fc6e0d702,uhmzwvk2c0,Ex2A_Prolific,1,198,2024-02-28T00:23:21+00:00,4.5942890644073,4,Stim_B.csv,Global.csv,Global,B,,,,,,0,Instruct,User,4,"You have completed this section. Please click next.",,Instruct166,4434,,,-1,-1,,,,,1
6555036c583bbf5fc6e0d702,uhmzwvk2c0,Ex2A_Prolific,1,199,2024-02-28T00:23:50+00:00,29.648171901703,4,Stim_B.csv,Global.csv,Global,B,,,,,,0,FreeRecall,30,1.25,"Please type as many words as you can that begin with the letter ""N"". The computer will automatically advance to the next screen in 30 seconds.",,FILLER,29352,"Naked Noon ",0,8104,18712,0,0,,,1
6555036c583bbf5fc6e0d702,uhmzwvk2c0,Ex2A_Prolific,1,200,2024-02-28T00:23:56+00:00,5.7830920219421,4,Stim_B.csv,Global.csv,Global,B,,,,,,0,Instruct,User,4,"You have completed this section. Please click next.",,Instruct166,5501,,,-1,-1,,,,,1
6555036c583bbf5fc6e0d702,uhmzwvk2c0,Ex2A_Prolific,1,201,2024-02-28T00:24:01+00:00,4.8861660957336,4,Stim_B.csv,Global.csv,Global,B,,,,,,0,Instruct,User,4,"You will now complete a memory test for the words you just studied. Please type as many words from the previous list as you can seperated by a comma. Spelling will not count against you and you can recall the words in any order. This test will be timed for one minute, and the computer will automatically advance once time is up. Click next when you are ready to begin.",,Instruct1666,4603,,,-1,-1,,,,,1
6555036c583bbf5fc6e0d702,uhmzwvk2c0,Ex2A_Prolific,1,202,2024-02-28T00:25:01+00:00,60.281334877014,4,Stim_B.csv,Global.csv,Global,B,,,,,,0,FreeRecall,60,60,"Please type as many words as you can from the previous study list in any order. Please separate each word with a comma. Spelling will not count against you. This screen will automatically advance in one minute.",,RECALL_Test,60002,"Dark, Brown, Coal, White, Blue, Funeral, Death, Charred, Cat, Ink",0,1172,40808,0,0,,,1
6555036c583bbf5fc6e0d702,uhmzwvk2c0,Ex2A_Prolific,1,203,2024-02-28T00:25:02+00:00,0.83278918266296,4,Stim_B.csv,Global.csv,Global,B,,,,,,0,Instruct,User,-,"You have completed this section. Please click next.",,Instruct7,672,,,-1,-1,,,,,1
6555036c583bbf5fc6e0d702,uhmzwvk2c0,Ex2A_Prolific,1,204,2024-02-28T00:25:04+00:00,1.6609070301056,4,Stim_B.csv,Global.csv,Global,B,,,,,,0,Instruct,User,-,"The following screen will ask you a few questions abour your experience today. You must complete these questions to receive credit.",,Instruct8,1505,,,-1,-1,,,,,1
