Username,ID,ExperimentName,Session,Trial,Date,TimeDif,"Condition Number","Stimuli File","Order File","Condition Description","Condition Notes",Stimuli*Cue,Stimuli*Answer,Stimuli*Shuffle,"Stimuli*Stimuli Notes",Stimuli*Value,Procedure*Item,"Procedure*Trial Type","Procedure*Max Time","Procedure*Min Time",Procedure*Text,"Procedure*Procedure Notes",Procedure*Shuffle,Response*RT,Response*Response,Response*Accuracy,Response*RTfirst,Response*RTlast,Response*strictAcc,Response*lenientAcc,Response*focus,Response*JOL,Response*Focus
6580b703bb0ff372f179abc7,ox7yatvx91,Ex2A_Prolific,1,1,2024-02-28T23:02:45+00:00,5.8300211429596,3,Stim_A.csv,Global.csv,Global,A,,,,,,0,Instruct,-,5,"In this section, you will be presented with a series of words. Please study each word carefully. Your memory will be tested!",Initial_Instruct,Instruct1,5670,,,-1,-1,,,,,1
6580b703bb0ff372f179abc7,ox7yatvx91,Ex2A_Prolific,1,2,2024-02-28T23:03:01+00:00,15.966439008713,3,Stim_A.csv,Global.csv,Global,A,,,,,,0,Instruct,User,5,"After studying each LIST of words, you will be asked to rate your ability to remember ALL of the words in the list on a later test. You will make these ratings using a scale of 0 to 100. A rating of 0 = WILL NOT REMEMBER, while a rating of 100 = WILL DEFINITELY REMEMBER. Please try to be as accurate as possible with these ratings!",,BLIPBLOOP,15796,,,-1,-1,,,,,1
6580b703bb0ff372f179abc7,ox7yatvx91,Ex2A_Prolific,1,3,2024-02-28T23:03:03+00:00,2.4578168392181,3,Stim_A.csv,Global.csv,Global,A,,,,,,0,Instruct,User,1.25,"You will now begin the study. Click next when you are ready to begin.",,Instruct16,2288,,,-1,-1,,,,,1
6580b703bb0ff372f179abc7,ox7yatvx91,Ex2A_Prolific,1,4,2024-02-28T23:03:06+00:00,2.8814930915833,3,Stim_A.csv,Global.csv,Global,A,pane,,Win_1,,,2,Study,User,1.25,,Window,Win_1,2730,,,-1,-1,,,,,1
6580b703bb0ff372f179abc7,ox7yatvx91,Ex2A_Prolific,1,5,2024-02-28T23:03:08+00:00,1.8238959312439,3,Stim_A.csv,Global.csv,Global,A,sill,,Win_2,,,3,Study,User,1.25,,Window,Win_2,1661,,,-1,-1,,,,,1
6580b703bb0ff372f179abc7,ox7yatvx91,Ex2A_Prolific,1,6,2024-02-28T23:03:10+00:00,1.8541870117188,3,Stim_A.csv,Global.csv,Global,A,shutter,,Win_3,,,4,Study,User,1.25,,Window,Win_3,1692,,,-1,-1,,,,,1
6580b703bb0ff372f179abc7,ox7yatvx91,Ex2A_Prolific,1,7,2024-02-28T23:03:12+00:00,2.6333570480347,3,Stim_A.csv,Global.csv,Global,A,curtain,,Win_4,,,5,Study,User,1.25,,Window,Win_4,2470,,,-1,-1,,,,,1
6580b703bb0ff372f179abc7,ox7yatvx91,Ex2A_Prolific,1,8,2024-02-28T23:03:15+00:00,2.4072189331055,3,Stim_A.csv,Global.csv,Global,A,door,,Win_5,,,6,Study,User,1.25,,Window,Win_5,2238,,,-1,-1,,,,,1
6580b703bb0ff372f179abc7,ox7yatvx91,Ex2A_Prolific,1,9,2024-02-28T23:03:17+00:00,1.8633511066437,3,Stim_A.csv,Global.csv,Global,A,ledge,,Win_6,,,7,Study,User,1.25,,Window,Win_6,1691,,,-1,-1,,,,,1
6580b703bb0ff372f179abc7,ox7yatvx91,Ex2A_Prolific,1,10,2024-02-28T23:03:19+00:00,1.9796078205109,3,Stim_A.csv,Global.csv,Global,A,glass,,Win_7,,,8,Study,User,1.25,,Window,Win_7,1816,,,-1,-1,,,,,1
6580b703bb0ff372f179abc7,ox7yatvx91,Ex2A_Prolific,1,11,2024-02-28T23:03:21+00:00,2.6726090908051,3,Stim_A.csv,Global.csv,Global,A,view,,Win_8,,,9,Study,User,1.25,,Window,Win_8,2504,,,-1,-1,,,,,1
6580b703bb0ff372f179abc7,ox7yatvx91,Ex2A_Prolific,1,12,2024-02-28T23:03:23+00:00,1.9179499149323,3,Stim_A.csv,Global.csv,Global,A,screen,,Win_9,,,10,Study,User,1.25,,Window,Win_9,1748,,,-1,-1,,,,,1
6580b703bb0ff372f179abc7,ox7yatvx91,Ex2A_Prolific,1,13,2024-02-28T23:03:25+00:00,1.6796832084656,3,Stim_A.csv,Global.csv,Global,A,shade,,Win_10,,,11,Study,User,1.25,,Window,Win_10,1504,,,-1,-1,,,,,1
6580b703bb0ff372f179abc7,ox7yatvx91,Ex2A_Prolific,1,14,2024-02-28T23:03:27+00:00,1.7538089752197,3,Stim_A.csv,Global.csv,Global,A,open,,Win_11,,,12,Study,User,1.25,,Window,Win_11,1587,,,-1,-1,,,,,1
6580b703bb0ff372f179abc7,ox7yatvx91,Ex2A_Prolific,1,15,2024-02-28T23:03:29+00:00,2.1031448841095,3,Stim_A.csv,Global.csv,Global,A,frame,,Win_12,,,13,Study,User,1.25,,Window,Win_12,1933,,,-1,-1,,,,,1
6580b703bb0ff372f179abc7,ox7yatvx91,Ex2A_Prolific,1,16,2024-02-28T23:03:41+00:00,11.848963022232,3,Stim_A.csv,Global.csv,Global,A,,,,,,0,Instruct,User,-,"You have completed this section and will now be asked to judge your ability to remember the list items you just studied. You will have four seconds to type your rating. Please click next to continue.",,Next_List1,11674,,,-1,-1,,,,,1
6580b703bb0ff372f179abc7,ox7yatvx91,Ex2A_Prolific,1,17,2024-02-28T23:03:46+00:00,5.166836977005,3,Stim_A.csv,Global.csv,Global,A,,,,,,0,JOL_GLOBAL,5,5,"How likely are you to correctly recall each of the items you just studied?|Type your response on a scale from 0-100 and then press Enter (0 = WILL NOT REMEMBER; 100 = DEFINITELY WILL REMEMBER).",Related,JOL1,5001,,,-1,-1,,,,,1
6580b703bb0ff372f179abc7,ox7yatvx91,Ex2A_Prolific,1,18,2024-02-28T23:03:55+00:00,9.0112941265106,3,Stim_A.csv,Global.csv,Global,A,,,,,,0,Instruct,User,1.25,"You have completed this section. Please click next.",,Instruct166,5030,,,-1,-1,,,,,1
6580b703bb0ff372f179abc7,ox7yatvx91,Ex2A_Prolific,1,19,2024-02-28T23:04:25+00:00,30.177795886993,3,Stim_A.csv,Global.csv,Global,A,,,,,,0,FreeRecall,30,30,"Please type as many words as you can that begin with the letter ""W"". The computer will automatically advance to the next screen in 30 seconds.",,FILLER,30001,"with, weather, without, what, why, w",0,7269,29956,0,0,,,1
6580b703bb0ff372f179abc7,ox7yatvx91,Ex2A_Prolific,1,20,2024-02-28T23:04:27+00:00,1.9201810359955,3,Stim_A.csv,Global.csv,Global,A,,,,,,0,Instruct,User,-,"You have completed this section. Please click next.",,Instruct166,1746,,,174,174,,,,,1
6580b703bb0ff372f179abc7,ox7yatvx91,Ex2A_Prolific,1,21,2024-02-28T23:04:39+00:00,12.504338979721,3,Stim_A.csv,Global.csv,Global,A,,,,,,0,Instruct,User,4,"You will now complete a memory test for the words you just studied. Please type as many words from the previous list as you can seperated by a comma. Spelling will not count against you and you can recall the words in any order. This test will be timed for one minute, and the computer will automatically advance once time is up. Click next when you are ready to begin.",,Instruct1666,12335,,,-1,-1,,,,,1
6580b703bb0ff372f179abc7,ox7yatvx91,Ex2A_Prolific,1,22,2024-02-28T23:05:40+00:00,60.17579293251,3,Stim_A.csv,Global.csv,Global,A,,,,,,0,FreeRecall,60,60,"Please type as many words as you can from the previous study list in any order. Please separate each word with a comma. Spelling will not count against you. This screen will automatically advance in one minute.",,RECALL_Test,60000,"door, ledge, sill, pane, frame, without, ",0,2160,24231,0,0,,,1
6580b703bb0ff372f179abc7,ox7yatvx91,Ex2A_Prolific,1,23,2024-02-28T23:05:43+00:00,3.6006321907043,3,Stim_A.csv,Global.csv,Global,A,,,,,,0,Instruct,User,3,"You will now be presented with a new study list. Click next when you are ready to begin.",,NEXT_LIST,3434,,,-1,-1,,,,,1
6580b703bb0ff372f179abc7,ox7yatvx91,Ex2A_Prolific,1,24,2024-02-28T23:05:45+00:00,2.2887148857117,3,Stim_A.csv,Global.csv,Global,A,sandpaper,,R1,,,14,Study,User,1.25,,Rough,R1,2094,,,-1,-1,,,,,1
6580b703bb0ff372f179abc7,ox7yatvx91,Ex2A_Prolific,1,25,2024-02-28T23:05:48+00:00,2.4264750480652,3,Stim_A.csv,Global.csv,Global,A,smooth,,R2,,,15,Study,User,1.25,,Rough,R2,2258,,,-1,-1,,,,,1
6580b703bb0ff372f179abc7,ox7yatvx91,Ex2A_Prolific,1,26,2024-02-28T23:05:50+00:00,2.4873819351196,3,Stim_A.csv,Global.csv,Global,A,coarse,,R3,,,16,Study,User,1.25,,Rough,R3,2320,,,-1,-1,,,,,1
6580b703bb0ff372f179abc7,ox7yatvx91,Ex2A_Prolific,1,27,2024-02-28T23:05:52+00:00,1.8833320140839,3,Stim_A.csv,Global.csv,Global,A,tough,,R4,,,17,Study,User,1.25,,Rough,R4,1721,,,-1,-1,,,,,1
6580b703bb0ff372f179abc7,ox7yatvx91,Ex2A_Prolific,1,28,2024-02-28T23:05:54+00:00,1.7117168903351,3,Stim_A.csv,Global.csv,Global,A,rugged,,R5,,,18,Study,User,1.25,,Rough,R5,1542,,,-1,-1,,,,,1
6580b703bb0ff372f179abc7,ox7yatvx91,Ex2A_Prolific,1,29,2024-02-28T23:05:56+00:00,1.7101440429688,3,Stim_A.csv,Global.csv,Global,A,bumpy,,R6,,,19,Study,User,1.25,,Rough,R6,1544,,,-1,-1,,,,,1
6580b703bb0ff372f179abc7,ox7yatvx91,Ex2A_Prolific,1,30,2024-02-28T23:05:57+00:00,1.7320129871368,3,Stim_A.csv,Global.csv,Global,A,jagged,,R7,,,20,Study,User,1.25,,Rough,R7,1554,,,-1,-1,,,,,1
6580b703bb0ff372f179abc7,ox7yatvx91,Ex2A_Prolific,1,31,2024-02-28T23:06:00+00:00,2.614452123642,3,Stim_A.csv,Global.csv,Global,A,riders,,R8,,,21,Study,User,1.25,,Rough,R8,2445,,,-1,-1,,,,,1
6580b703bb0ff372f179abc7,ox7yatvx91,Ex2A_Prolific,1,32,2024-02-28T23:06:02+00:00,1.8839039802551,3,Stim_A.csv,Global.csv,Global,A,uneven,,R9,,,22,Study,User,1.25,,Rough,R9,1715,,,-1,-1,,,,,1
6580b703bb0ff372f179abc7,ox7yatvx91,Ex2A_Prolific,1,33,2024-02-28T23:06:03+00:00,1.5692698955536,3,Stim_A.csv,Global.csv,Global,A,road,,R10,,,23,Study,User,1.25,,Rough,R10,1400,,,-1,-1,,,,,1
6580b703bb0ff372f179abc7,ox7yatvx91,Ex2A_Prolific,1,34,2024-02-28T23:06:06+00:00,2.1783990859985,3,Stim_A.csv,Global.csv,Global,A,ready,,R11,,,24,Study,User,1.25,,Rough,R11,2011,,,-1,-1,,,,,1
6580b703bb0ff372f179abc7,ox7yatvx91,Ex2A_Prolific,1,35,2024-02-28T23:06:07+00:00,1.8610780239105,3,Stim_A.csv,Global.csv,Global,A,sand,,R12,,,25,Study,User,1.25,,Rough,R12,1697,,,-1,-1,,,,,1
6580b703bb0ff372f179abc7,ox7yatvx91,Ex2A_Prolific,1,36,2024-02-28T23:06:10+00:00,2.614070892334,3,Stim_A.csv,Global.csv,Global,A,,,,,,0,Instruct,User,-,"You have completed this section and will now be asked to judge your ability to remember the list items you just studied. You will have four seconds to type your rating. Please click next to continue.",,Next_List1,2449,,,-1,-1,,,,,1
6580b703bb0ff372f179abc7,ox7yatvx91,Ex2A_Prolific,1,37,2024-02-28T23:06:15+00:00,5.1685101985931,3,Stim_A.csv,Global.csv,Global,A,,,,,,0,JOL_GLOBAL,5,5,"How likely are you to correctly recall each of the items you just studied?|Type your response on a scale from 0-100 and then press Enter (0 = WILL NOT REMEMBER; 100 = DEFINITELY WILL REMEMBER).",Unrelated,JOL2,5001,,,1694,2061,,,,60,1
6580b703bb0ff372f179abc7,ox7yatvx91,Ex2A_Prolific,1,38,2024-02-28T23:06:20+00:00,4.6612348556519,3,Stim_A.csv,Global.csv,Global,A,,,,,,0,Instruct,User,4,"You have completed this section. Please click next.",,Instruct166,4487,,,-1,-1,,,,,1
6580b703bb0ff372f179abc7,ox7yatvx91,Ex2A_Prolific,1,39,2024-02-28T23:06:50+00:00,30.177153110504,3,Stim_A.csv,Global.csv,Global,A,,,,,,0,FreeRecall,30,1.25,"Please type as many words as you can that begin with the letter ""N"". The computer will automatically advance to the next screen in 30 seconds.",,FILLER,30001,"nitrogen, Nigeria, nylon, nincompoop, ",0,3609,29232,0,0,,,1
6580b703bb0ff372f179abc7,ox7yatvx91,Ex2A_Prolific,1,40,2024-02-28T23:06:52+00:00,1.7685630321503,3,Stim_A.csv,Global.csv,Global,A,,,,,,0,Instruct,User,-,"You have completed this section. Please click next.",,Instruct166,1594,,,-1,-1,,,,,1
6580b703bb0ff372f179abc7,ox7yatvx91,Ex2A_Prolific,1,41,2024-02-28T23:07:00+00:00,7.9110839366913,3,Stim_A.csv,Global.csv,Global,A,,,,,,0,Instruct,User,4,"You will now complete a memory test for the words you just studied. Please type as many words from the previous list as you can seperated by a comma. Spelling will not count against you and you can recall the words in any order. This test will be timed for one minute, and the computer will automatically advance once time is up. Click next when you are ready to begin.",,Instruct1666,7744,,,-1,-1,,,,,1
6580b703bb0ff372f179abc7,ox7yatvx91,Ex2A_Prolific,1,42,2024-02-28T23:07:53+00:00,53.311342954636,3,Stim_A.csv,Global.csv,Global,A,,,,,,0,FreeRecall,60,1.25,"Please type as many words as you can from the previous study list in any order. Please separate each word with a comma. Spelling will not count against you. This screen will automatically advance in one minute.",,RECALL_Test,53136,"sandpaper, rough, jagged, coarse, sand, tough, ",0,948,23227,0,0,,,1
6580b703bb0ff372f179abc7,ox7yatvx91,Ex2A_Prolific,1,43,2024-02-28T23:07:57+00:00,3.6377730369568,3,Stim_A.csv,Global.csv,Global,A,,,,,,0,Instruct,User,3,"You will now be presented with a new study list. Click next when you are ready to begin.",,NEXT_LIST,3445,,,-1,-1,,,,,1
6580b703bb0ff372f179abc7,ox7yatvx91,Ex2A_Prolific,1,44,2024-02-28T23:07:59+00:00,1.9111859798431,3,Stim_A.csv,Global.csv,Global,A,rage,,A1,,,26,Study,User,1.25,,Anger,A1,1720,,,-1,-1,,,,,1
6580b703bb0ff372f179abc7,ox7yatvx91,Ex2A_Prolific,1,45,2024-02-28T23:08:01+00:00,1.9191560745239,3,Stim_A.csv,Global.csv,Global,A,mad,,A2,,,27,Study,User,1.25,,Anger,A2,1744,,,-1,-1,,,,,1
6580b703bb0ff372f179abc7,ox7yatvx91,Ex2A_Prolific,1,46,2024-02-28T23:08:02+00:00,1.9122979640961,3,Stim_A.csv,Global.csv,Global,A,enrage,,A3,,,28,Study,User,1.25,,Anger,A3,1741,,,-1,-1,,,,,1
6580b703bb0ff372f179abc7,ox7yatvx91,Ex2A_Prolific,1,47,2024-02-28T23:08:05+00:00,2.1484599113464,3,Stim_A.csv,Global.csv,Global,A,fury,,A4,,,29,Study,User,1.25,,Anger,A4,1979,,,-1,-1,,,,,1
6580b703bb0ff372f179abc7,ox7yatvx91,Ex2A_Prolific,1,48,2024-02-28T23:08:07+00:00,2.1293179988861,3,Stim_A.csv,Global.csv,Global,A,temper,,A5,,,30,Study,User,1.25,,Anger,A5,1960,,,-1,-1,,,,,1
6580b703bb0ff372f179abc7,ox7yatvx91,Ex2A_Prolific,1,49,2024-02-28T23:08:09+00:00,1.8634269237518,3,Stim_A.csv,Global.csv,Global,A,ire,,A6,,,31,Study,User,1.25,,Anger,A6,1697,,,-1,-1,,,,,1
6580b703bb0ff372f179abc7,ox7yatvx91,Ex2A_Prolific,1,50,2024-02-28T23:08:11+00:00,2.0573041439056,3,Stim_A.csv,Global.csv,Global,A,wrath,,A7,,,32,Study,User,1.25,,Anger,A7,1892,,,-1,-1,,,,,1
6580b703bb0ff372f179abc7,ox7yatvx91,Ex2A_Prolific,1,51,2024-02-28T23:08:13+00:00,2.2152678966522,3,Stim_A.csv,Global.csv,Global,A,mean,,A8,,,33,Study,User,1.25,,Anger,A8,2047,,,-1,-1,,,,,1
6580b703bb0ff372f179abc7,ox7yatvx91,Ex2A_Prolific,1,52,2024-02-28T23:08:15+00:00,1.8085911273956,3,Stim_A.csv,Global.csv,Global,A,hatred,,A9,,,34,Study,User,1.25,,Anger,A9,1641,,,-1,-1,,,,,1
6580b703bb0ff372f179abc7,ox7yatvx91,Ex2A_Prolific,1,53,2024-02-28T23:08:16+00:00,1.7639479637146,3,Stim_A.csv,Global.csv,Global,A,fight,,A10,,,35,Study,User,1.25,,Anger,A10,1602,,,-1,-1,,,,,1
6580b703bb0ff372f179abc7,ox7yatvx91,Ex2A_Prolific,1,54,2024-02-28T23:08:18+00:00,1.841805934906,3,Stim_A.csv,Global.csv,Global,A,hate,,A11,,,36,Study,User,1.25,,Anger,A11,1675,,,-1,-1,,,,,1
6580b703bb0ff372f179abc7,ox7yatvx91,Ex2A_Prolific,1,55,2024-02-28T23:08:20+00:00,1.8530189990997,3,Stim_A.csv,Global.csv,Global,A,fear,,A12,,,37,Study,User,1.25,,Anger,A12,1684,,,-1,-1,,,,,1
6580b703bb0ff372f179abc7,ox7yatvx91,Ex2A_Prolific,1,56,2024-02-28T23:08:22+00:00,2.0884780883789,3,Stim_A.csv,Global.csv,Global,A,,,,,,0,Instruct,User,-,"You have completed this section and will now be asked to judge your ability to remember the list items you just studied. You will have four seconds to type your rating. Please click next to continue.",,Next_List1,1913,,,-1,-1,,,,,1
6580b703bb0ff372f179abc7,ox7yatvx91,Ex2A_Prolific,1,57,2024-02-28T23:08:27+00:00,5.1806650161743,3,Stim_A.csv,Global.csv,Global,A,,,,,,0,JOL_GLOBAL,5,5,"How likely are you to correctly recall each of the items you just studied?|Type your response on a scale from 0-100 and then press Enter (0 = WILL NOT REMEMBER; 100 = DEFINITELY WILL REMEMBER).",Related,JOL3,5001,,,1746,1986,,,,70,1
6580b703bb0ff372f179abc7,ox7yatvx91,Ex2A_Prolific,1,58,2024-02-28T23:08:32+00:00,4.783618927002,3,Stim_A.csv,Global.csv,Global,A,,,,,,0,Instruct,User,4,"You have completed this section. Please click next.",,Instruct166,4618,,,-1,-1,,,,,1
6580b703bb0ff372f179abc7,ox7yatvx91,Ex2A_Prolific,1,59,2024-02-28T23:09:02+00:00,30.178642034531,3,Stim_A.csv,Global.csv,Global,A,,,,,,0,FreeRecall,30,30,"Please type as many words as you can that begin with the letter ""S"". The computer will automatically advance to the next screen in 30 seconds.",,FILLER,30001,"sad, super, supper, saxaphone, ",0,2705,24969,0,0,,,1
6580b703bb0ff372f179abc7,ox7yatvx91,Ex2A_Prolific,1,60,2024-02-28T23:09:07+00:00,4.5443670749664,3,Stim_A.csv,Global.csv,Global,A,,,,,,0,Instruct,User,4,"You have completed this section. Please click next.",,Instruct166,4374,,,-1,-1,,,,,1
6580b703bb0ff372f179abc7,ox7yatvx91,Ex2A_Prolific,1,61,2024-02-28T23:09:12+00:00,4.7429389953613,3,Stim_A.csv,Global.csv,Global,A,,,,,,0,Instruct,User,4,"You will now complete a memory test for the words you just studied. Please type as many words from the previous list as you can seperated by a comma. Spelling will not count against you and you can recall the words in any order. This test will be timed for one minute, and the computer will automatically advance once time is up. Click next when you are ready to begin.",,Instruct1666,4576,,,-1,-1,,,,,1
6580b703bb0ff372f179abc7,ox7yatvx91,Ex2A_Prolific,1,62,2024-02-28T23:10:12+00:00,60.177634000778,3,Stim_A.csv,Global.csv,Global,A,,,,,,0,FreeRecall,60,60,"Please type as many words as you can from the previous study list in any order. Please separate each word with a comma. Spelling will not count against you. This screen will automatically advance in one minute.",,RECALL_Test,60000,"enrage, rage, fight, ire, mad, anger, fear, ",0,969,20553,0,0,,,1
6580b703bb0ff372f179abc7,ox7yatvx91,Ex2A_Prolific,1,63,2024-02-28T23:10:15+00:00,3.6583797931671,3,Stim_A.csv,Global.csv,Global,A,,,,,,0,Instruct,User,3,"You will now be presented with a new study list. Click next when you are ready to begin.",,NEXT_LIST,3492,,,-1,-1,,,,,1
6580b703bb0ff372f179abc7,ox7yatvx91,Ex2A_Prolific,1,64,2024-02-28T23:10:17+00:00,1.9710330963135,3,Stim_A.csv,Global.csv,Global,A,garbage,,T1,,,38,Study,User,1.25,,Trash,T1,1779,,,-1,-1,,,,,1
6580b703bb0ff372f179abc7,ox7yatvx91,Ex2A_Prolific,1,65,2024-02-28T23:10:19+00:00,1.9163460731506,3,Stim_A.csv,Global.csv,Global,A,rubbish,,T2,,,39,Study,User,1.25,,Trash,T2,1725,,,-1,-1,,,,,1
6580b703bb0ff372f179abc7,ox7yatvx91,Ex2A_Prolific,1,66,2024-02-28T23:10:21+00:00,1.462033033371,3,Stim_A.csv,Global.csv,Global,A,debris,,T3,,,40,Study,User,1.25,,Trash,T3,1297,,,-1,-1,,,,,1
6580b703bb0ff372f179abc7,ox7yatvx91,Ex2A_Prolific,1,67,2024-02-28T23:10:22+00:00,1.5872249603271,3,Stim_A.csv,Global.csv,Global,A,dump,,T4,,,41,Study,User,1.25,,Trash,T4,1422,,,-1,-1,,,,,1
6580b703bb0ff372f179abc7,ox7yatvx91,Ex2A_Prolific,1,68,2024-02-28T23:10:24+00:00,1.791069984436,3,Stim_A.csv,Global.csv,Global,A,litter,,T5,,,42,Study,User,1.25,,Trash,T5,1621,,,-1,-1,,,,,1
6580b703bb0ff372f179abc7,ox7yatvx91,Ex2A_Prolific,1,69,2024-02-28T23:10:26+00:00,1.8397810459137,3,Stim_A.csv,Global.csv,Global,A,landfill,,T6,,,43,Study,User,1.25,,Trash,T6,1676,,,-1,-1,,,,,1
6580b703bb0ff372f179abc7,ox7yatvx91,Ex2A_Prolific,1,70,2024-02-28T23:10:28+00:00,1.8652048110962,3,Stim_A.csv,Global.csv,Global,A,junk,,T7,,,44,Study,User,1.25,,Trash,T7,1701,,,-1,-1,,,,,1
6580b703bb0ff372f179abc7,ox7yatvx91,Ex2A_Prolific,1,71,2024-02-28T23:10:30+00:00,1.8211381435394,3,Stim_A.csv,Global.csv,Global,A,waste,,T8,,,45,Study,User,1.25,,Trash,T8,1647,,,-1,-1,,,,,1
6580b703bb0ff372f179abc7,ox7yatvx91,Ex2A_Prolific,1,72,2024-02-28T23:10:31+00:00,1.6912319660187,3,Stim_A.csv,Global.csv,Global,A,sewage,,T9,,,46,Study,User,1.25,,Trash,T9,1519,,,-1,-1,,,,,1
6580b703bb0ff372f179abc7,ox7yatvx91,Ex2A_Prolific,1,73,2024-02-28T23:10:33+00:00,1.7899720668793,3,Stim_A.csv,Global.csv,Global,A,pile,,T10,,,47,Study,User,1.25,,Trash,T10,1622,,,-1,-1,,,,,1
6580b703bb0ff372f179abc7,ox7yatvx91,Ex2A_Prolific,1,74,2024-02-28T23:10:35+00:00,2.0091190338135,3,Stim_A.csv,Global.csv,Global,A,scraps,,T11,,,48,Study,User,1.25,,Trash,T11,1839,,,-1,-1,,,,,1
6580b703bb0ff372f179abc7,ox7yatvx91,Ex2A_Prolific,1,75,2024-02-28T23:10:37+00:00,1.8050448894501,3,Stim_A.csv,Global.csv,Global,A,refuse,,T12,,,49,Study,User,1.25,,Trash,T12,1633,,,-1,-1,,,,,1
6580b703bb0ff372f179abc7,ox7yatvx91,Ex2A_Prolific,1,76,2024-02-28T23:10:39+00:00,1.5245509147644,3,Stim_A.csv,Global.csv,Global,A,,,,,,0,Instruct,User,-,"You have completed this section and will now be asked to judge your ability to remember the list items you just studied. You will have four seconds to type your rating. Please click next to continue.",,Next_List1,1358,,,-1,-1,,,,,1
6580b703bb0ff372f179abc7,ox7yatvx91,Ex2A_Prolific,1,77,2024-02-28T23:10:44+00:00,5.1769211292267,3,Stim_A.csv,Global.csv,Global,A,,,,,,0,JOL_GLOBAL,5,5,"How likely are you to correctly recall each of the items you just studied?|Type your response on a scale from 0-100 and then press Enter (0 = WILL NOT REMEMBER; 100 = DEFINITELY WILL REMEMBER).",Related,JOL4,5000,,,2106,2482,,,,50,1
6580b703bb0ff372f179abc7,ox7yatvx91,Ex2A_Prolific,1,78,2024-02-28T23:10:46+00:00,1.8062069416046,3,Stim_A.csv,Global.csv,Global,A,,,,,,0,Instruct,User,-,"You have completed this section. Please click next.",,Instruct166,1636,,,-1,-1,,,,,1
6580b703bb0ff372f179abc7,ox7yatvx91,Ex2A_Prolific,1,79,2024-02-28T23:11:16+00:00,30.171647071838,3,Stim_A.csv,Global.csv,Global,A,,,,,,0,FreeRecall,30,30,"Please type as many words as you can that begin with the letter ""R"". The computer will automatically advance to the next screen in 30 seconds.",,FILLER,30000,"rubbish, rash, rip, report, rattle, rub, ritual, ",0,2060,27771,0,0,,,1
6580b703bb0ff372f179abc7,ox7yatvx91,Ex2A_Prolific,1,80,2024-02-28T23:11:20+00:00,4.5650019645691,3,Stim_A.csv,Global.csv,Global,A,,,,,,0,Instruct,User,4,"You have completed this section. Please click next.",,Instruct166,4395,,,-1,-1,,,,,1
6580b703bb0ff372f179abc7,ox7yatvx91,Ex2A_Prolific,1,81,2024-02-28T23:11:25+00:00,4.5831570625305,3,Stim_A.csv,Global.csv,Global,A,,,,,,0,Instruct,User,4,"You will now complete a memory test for the words you just studied. Please type as many words from the previous list as you can seperated by a comma. Spelling will not count against you and you can recall the words in any order. This test will be timed for one minute, and the computer will automatically advance once time is up. Click next when you are ready to begin.",,Instruct1666,4419,,,-1,-1,,,,,1
6580b703bb0ff372f179abc7,ox7yatvx91,Ex2A_Prolific,1,82,2024-02-28T23:12:25+00:00,60.172708034515,3,Stim_A.csv,Global.csv,Global,A,,,,,,0,FreeRecall,60,60,"Please type as many words as you can from the previous study list in any order. Please separate each word with a comma. Spelling will not count against you. This screen will automatically advance in one minute.",,RECALL_Test,60001,"rubbish, garbage, trash, debris, ",0,994,23633,0,0,,,1
6580b703bb0ff372f179abc7,ox7yatvx91,Ex2A_Prolific,1,83,2024-02-28T23:12:29+00:00,4.0673589706421,3,Stim_A.csv,Global.csv,Global,A,,,,,,0,Instruct,User,3,"You will now be presented with a new study list. Click next when you are ready to begin.",,NEXT_LIST,3891,,,-1,-1,,,,,1
6580b703bb0ff372f179abc7,ox7yatvx91,Ex2A_Prolific,1,84,2024-02-28T23:12:32+00:00,2.8958690166473,3,Stim_A.csv,Global.csv,Global,A,physician,,D1,,,50,Study,User,1.25,,Doctor,D1,2703,,,-1,-1,,,,,1
6580b703bb0ff372f179abc7,ox7yatvx91,Ex2A_Prolific,1,85,2024-02-28T23:12:34+00:00,1.8639569282532,3,Stim_A.csv,Global.csv,Global,A,nurse,,D2,,,51,Study,User,1.25,,Doctor,D2,1681,,,-1,-1,,,,,1
6580b703bb0ff372f179abc7,ox7yatvx91,Ex2A_Prolific,1,86,2024-02-28T23:12:36+00:00,1.8721258640289,3,Stim_A.csv,Global.csv,Global,A,stethoscope,,D3,,,52,Study,User,1.25,,Doctor,D3,1705,,,-1,-1,,,,,1
6580b703bb0ff372f179abc7,ox7yatvx91,Ex2A_Prolific,1,87,2024-02-28T23:12:38+00:00,1.8314881324768,3,Stim_A.csv,Global.csv,Global,A,surgeon,,D4,,,53,Study,User,1.25,,Doctor,D4,1663,,,-1,-1,,,,,1
6580b703bb0ff372f179abc7,ox7yatvx91,Ex2A_Prolific,1,88,2024-02-28T23:12:39+00:00,1.8060410022736,3,Stim_A.csv,Global.csv,Global,A,patient,,D5,,,54,Study,User,1.25,,Doctor,D5,1646,,,-1,-1,,,,,1
6580b703bb0ff372f179abc7,ox7yatvx91,Ex2A_Prolific,1,89,2024-02-28T23:12:41+00:00,1.6285150051117,3,Stim_A.csv,Global.csv,Global,A,clinic,,D6,,,55,Study,User,1.25,,Doctor,D6,1457,,,-1,-1,,,,,1
6580b703bb0ff372f179abc7,ox7yatvx91,Ex2A_Prolific,1,90,2024-02-28T23:12:43+00:00,1.9746949672699,3,Stim_A.csv,Global.csv,Global,A,dentist,,D7,,,56,Study,User,1.25,,Doctor,D7,1807,,,-1,-1,,,,,1
6580b703bb0ff372f179abc7,ox7yatvx91,Ex2A_Prolific,1,91,2024-02-28T23:12:45+00:00,1.9588069915771,3,Stim_A.csv,Global.csv,Global,A,medicine,,D8,,,57,Study,User,1.25,,Doctor,D8,1794,,,-1,-1,,,,,1
6580b703bb0ff372f179abc7,ox7yatvx91,Ex2A_Prolific,1,92,2024-02-28T23:12:47+00:00,1.7390110492706,3,Stim_A.csv,Global.csv,Global,A,lawyer,,D9,,,58,Study,User,1.25,,Doctor,D9,1570,,,-1,-1,,,,,1
6580b703bb0ff372f179abc7,ox7yatvx91,Ex2A_Prolific,1,93,2024-02-28T23:12:48+00:00,1.6666619777679,3,Stim_A.csv,Global.csv,Global,A,health,,D10,,,59,Study,User,1.25,,Doctor,D10,1501,,,-1,-1,,,,,1
6580b703bb0ff372f179abc7,ox7yatvx91,Ex2A_Prolific,1,94,2024-02-28T23:12:50+00:00,1.8340260982513,3,Stim_A.csv,Global.csv,Global,A,sick,,D11,,,60,Study,User,1.25,,Doctor,D11,1662,,,-1,-1,,,,,1
6580b703bb0ff372f179abc7,ox7yatvx91,Ex2A_Prolific,1,95,2024-02-28T23:12:52+00:00,1.7375438213348,3,Stim_A.csv,Global.csv,Global,A,cure,,D12,,,61,Study,User,1.25,,Doctor,D12,1568,,,-1,-1,,,,,1
6580b703bb0ff372f179abc7,ox7yatvx91,Ex2A_Prolific,1,96,2024-02-28T23:12:54+00:00,1.8566989898682,3,Stim_A.csv,Global.csv,Global,A,,,,,,0,Instruct,User,1.25,"You have completed this section and will now be asked to judge your ability to remember the list items you just studied. You will have four seconds to type your rating. Please click next to continue.",,Next_List1,1685,,,-1,-1,,,,,1
6580b703bb0ff372f179abc7,ox7yatvx91,Ex2A_Prolific,1,97,2024-02-28T23:12:59+00:00,5.2012801170349,3,Stim_A.csv,Global.csv,Global,A,,,,,,0,JOL_GLOBAL,5,1.25,"How likely are you to correctly recall each of the items you just studied?|Type your response on a scale from 0-100 and then press Enter (0 = WILL NOT REMEMBER; 100 = DEFINITELY WILL REMEMBER).",Related,JOL5,5000,,,2001,2209,,,,60,1
6580b703bb0ff372f179abc7,ox7yatvx91,Ex2A_Prolific,1,98,2024-02-28T23:13:00+00:00,1.1444289684296,3,Stim_A.csv,Global.csv,Global,A,,,,,,0,Instruct,User,-,"You have completed this section. Please click next.",,Instruct166,974,,,-1,-1,,,,,1
6580b703bb0ff372f179abc7,ox7yatvx91,Ex2A_Prolific,1,99,2024-02-28T23:13:30+00:00,30.174124002457,3,Stim_A.csv,Global.csv,Global,A,,,,,,0,FreeRecall,30,30,"Please type as many words as you can that begin with the letter ""L"". The computer will automatically advance to the next screen in 30 seconds.",,FILLER,30000,"lie, lying, liar, love, lover, loop, ",0,2023,27695,0,0,,,1
6580b703bb0ff372f179abc7,ox7yatvx91,Ex2A_Prolific,1,100,2024-02-28T23:13:32+00:00,1.8987379074097,3,Stim_A.csv,Global.csv,Global,A,,,,,,0,Instruct,User,-,"You have completed this section. Please click next.",,Instruct166,1733,,,-1,-1,,,,,1
6580b703bb0ff372f179abc7,ox7yatvx91,Ex2A_Prolific,1,101,2024-02-28T23:13:37+00:00,5.0234141349792,3,Stim_A.csv,Global.csv,Global,A,,,,,,0,Instruct,User,4,"You will now complete a memory test for the words you just studied. Please type as many words from the previous list as you can seperated by a comma. Spelling will not count against you and you can recall the words in any order. This test will be timed for one minute, and the computer will automatically advance once time is up. Click next when you are ready to begin.",,Instruct1666,4852,,,-1,-1,,,,,1
6580b703bb0ff372f179abc7,ox7yatvx91,Ex2A_Prolific,1,102,2024-02-28T23:14:37+00:00,60.191246986389,3,Stim_A.csv,Global.csv,Global,A,,,,,,0,FreeRecall,60,60,"Please type as many words as you can from the previous study list in any order. Please separate each word with a comma. Spelling will not count against you. This screen will automatically advance in one minute.",,RECALL_Test,60001,"doctor, nurse, dentist, cure, patient, stethoscope, ",0,893,25045,0,0,,,1
6580b703bb0ff372f179abc7,ox7yatvx91,Ex2A_Prolific,1,103,2024-02-28T23:14:41+00:00,3.4818048477173,3,Stim_A.csv,Global.csv,Global,A,,,,,,0,Instruct,User,3,"You will now be presented with a new study list. Click next when you are ready to begin.",,NEXT_LIST,3314,,,-1,-1,,,,,1
6580b703bb0ff372f179abc7,ox7yatvx91,Ex2A_Prolific,1,104,2024-02-28T23:14:43+00:00,1.8591041564941,3,Stim_A.csv,Global.csv,Global,A,fast,,S1,,,62,Study,User,1.25,,Slow,S1,1672,,,-1,-1,,,,,1
6580b703bb0ff372f179abc7,ox7yatvx91,Ex2A_Prolific,1,105,2024-02-28T23:14:45+00:00,1.8032150268555,3,Stim_A.csv,Global.csv,Global,A,snail,,S2,,,63,Study,User,1.25,,Slow,S2,1639,,,-1,-1,,,,,1
6580b703bb0ff372f179abc7,ox7yatvx91,Ex2A_Prolific,1,106,2024-02-28T23:14:46+00:00,1.86585688591,3,Stim_A.csv,Global.csv,Global,A,turtle,,S3,,,64,Study,User,1.25,,Slow,S3,1701,,,-1,-1,,,,,1
6580b703bb0ff372f179abc7,ox7yatvx91,Ex2A_Prolific,1,107,2024-02-28T23:14:50+00:00,3.5662460327148,3,Stim_A.csv,Global.csv,Global,A,sluggish,,S4,,,65,Study,User,1.25,,Slow,S4,3400,,,-1,-1,,,,,1
6580b703bb0ff372f179abc7,ox7yatvx91,Ex2A_Prolific,1,108,2024-02-28T23:14:54+00:00,4.2698240280151,3,Stim_A.csv,Global.csv,Global,A,quick,,S5,,,66,Study,User,1.25,,Slow,S5,4103,,,-1,-1,,,,,1
6580b703bb0ff372f179abc7,ox7yatvx91,Ex2A_Prolific,1,109,2024-02-28T23:14:56+00:00,1.8047640323639,3,Stim_A.csv,Global.csv,Global,A,molasses,,S6,,,67,Study,User,1.25,,Slow,S6,1637,,,-1,-1,,,,,1
6580b703bb0ff372f179abc7,ox7yatvx91,Ex2A_Prolific,1,110,2024-02-28T23:14:58+00:00,1.7798278331757,3,Stim_A.csv,Global.csv,Global,A,lethargic,,S7,,,68,Study,User,1.25,,Slow,S7,1604,,,-1,-1,,,,,1
6580b703bb0ff372f179abc7,ox7yatvx91,Ex2A_Prolific,1,111,2024-02-28T23:15:00+00:00,1.7940340042114,3,Stim_A.csv,Global.csv,Global,A,speed,,S8,,,69,Study,User,1.25,,Slow,S8,1626,,,-1,-1,,,,,1
6580b703bb0ff372f179abc7,ox7yatvx91,Ex2A_Prolific,1,112,2024-02-28T23:15:01+00:00,1.7841951847076,3,Stim_A.csv,Global.csv,Global,A,delay,,S9,,,70,Study,User,1.25,,Slow,S9,1613,,,-1,-1,,,,,1
6580b703bb0ff372f179abc7,ox7yatvx91,Ex2A_Prolific,1,113,2024-02-28T23:15:03+00:00,1.5143098831177,3,Stim_A.csv,Global.csv,Global,A,hesitant,,S10,,,71,Study,User,1.25,,Slow,S10,1347,,,-1,-1,,,,,1
6580b703bb0ff372f179abc7,ox7yatvx91,Ex2A_Prolific,1,114,2024-02-28T23:15:05+00:00,1.7514481544495,3,Stim_A.csv,Global.csv,Global,A,cautious,,S11,,,72,Study,User,1.25,,Slow,S11,1590,,,-1,-1,,,,,1
6580b703bb0ff372f179abc7,ox7yatvx91,Ex2A_Prolific,1,115,2024-02-28T23:15:06+00:00,1.6413068771362,3,Stim_A.csv,Global.csv,Global,A,traffic,,S12,,,73,Study,User,1.25,,Slow,S12,1469,,,-1,-1,,,,,1
6580b703bb0ff372f179abc7,ox7yatvx91,Ex2A_Prolific,1,116,2024-02-28T23:15:08+00:00,1.5994760990143,3,Stim_A.csv,Global.csv,Global,A,,,,,,0,Instruct,User,-,"You have completed this section and will now be asked to judge your ability to remember the list items you just studied. You will have four seconds to type your rating. Please click next to continue.",,Next_List1,1426,,,-1,-1,,,,,1
6580b703bb0ff372f179abc7,ox7yatvx91,Ex2A_Prolific,1,117,2024-02-28T23:15:13+00:00,5.1741809844971,3,Stim_A.csv,Global.csv,Global,A,,,,,,0,JOL_GLOBAL,5,5,"How likely are you to correctly recall each of the items you just studied?|Type your response on a scale from 0-100 and then press Enter (0 = WILL NOT REMEMBER; 100 = DEFINITELY WILL REMEMBER).",Related,JOL6,5001,,,1637,2277,,,,,1
6580b703bb0ff372f179abc7,ox7yatvx91,Ex2A_Prolific,1,118,2024-02-28T23:15:18+00:00,4.5022358894348,3,Stim_A.csv,Global.csv,Global,A,,,,,,0,Instruct,User,4,"You have completed this section. Please click next.",,Instruct166,4325,,,-1,-1,,,,,1
6580b703bb0ff372f179abc7,ox7yatvx91,Ex2A_Prolific,1,119,2024-02-28T23:15:48+00:00,30.177459955215,3,Stim_A.csv,Global.csv,Global,A,,,,,,0,FreeRecall,30,30,"Please type as many words as you can that begin with the letter ""K"". The computer will automatically advance to the next screen in 30 seconds.",,FILLER,30001,"keep, keepsake, ",0,6533,12252,0,0,,,1
6580b703bb0ff372f179abc7,ox7yatvx91,Ex2A_Prolific,1,120,2024-02-28T23:15:50+00:00,2.6309201717377,3,Stim_A.csv,Global.csv,Global,A,,,,,,0,Instruct,User,-,"You have completed this section. Please click next.",,Instruct166,2459,,,-1,-1,,,,,1
6580b703bb0ff372f179abc7,ox7yatvx91,Ex2A_Prolific,1,121,2024-02-28T23:15:55+00:00,4.5334949493408,3,Stim_A.csv,Global.csv,Global,A,,,,,,0,Instruct,User,4,"You will now complete a memory test for the words you just studied. Please type as many words from the previous list as you can seperated by a comma. Spelling will not count against you and you can recall the words in any order. This test will be timed for one minute, and the computer will automatically advance once time is up. Click next when you are ready to begin.",,Instruct1666,4368,,,-1,-1,,,,,1
6580b703bb0ff372f179abc7,ox7yatvx91,Ex2A_Prolific,1,122,2024-02-28T23:16:55+00:00,60.184689998627,3,Stim_A.csv,Global.csv,Global,A,,,,,,0,FreeRecall,60,60,"Please type as many words as you can from the previous study list in any order. Please separate each word with a comma. Spelling will not count against you. This screen will automatically advance in one minute.",,RECALL_Test,60001,"fast, slow, sluggish, lethargic, speed, snail ",0,1768,28639,0,0,,,1
6580b703bb0ff372f179abc7,ox7yatvx91,Ex2A_Prolific,1,123,2024-02-28T23:16:59+00:00,3.6825149059296,3,Stim_A.csv,Global.csv,Global,A,,,,,,0,Instruct,User,3,"You will now be presented with a new study list. Click next when you are ready to begin.",,NEXT_LIST,3515,,,-1,-1,,,,,1
6580b703bb0ff372f179abc7,ox7yatvx91,Ex2A_Prolific,1,124,2024-02-28T23:17:01+00:00,1.8628180027008,3,Stim_A.csv,Global.csv,Global,A,mississippi,,RR1,,,74,Study,User,1.25,,River,RR1,1668,,,-1,-1,,,,,1
6580b703bb0ff372f179abc7,ox7yatvx91,Ex2A_Prolific,1,125,2024-02-28T23:17:06+00:00,4.9001481533051,3,Stim_A.csv,Global.csv,Global,A,creek,,RR2,,,75,Study,User,1.25,,River,RR2,4728,,,-1,-1,,,,,1
6580b703bb0ff372f179abc7,ox7yatvx91,Ex2A_Prolific,1,126,2024-02-28T23:17:08+00:00,2.2816469669342,3,Stim_A.csv,Global.csv,Global,A,stream,,RR3,,,76,Study,User,1.25,,River,RR3,2112,,,-1,-1,,,,,1
6580b703bb0ff372f179abc7,ox7yatvx91,Ex2A_Prolific,1,127,2024-02-28T23:17:10+00:00,1.957713842392,3,Stim_A.csv,Global.csv,Global,A,flow,,RR4,,,77,Study,User,1.25,,River,RR4,1790,,,-1,-1,,,,,1
6580b703bb0ff372f179abc7,ox7yatvx91,Ex2A_Prolific,1,128,2024-02-28T23:17:13+00:00,3.4899342060089,3,Stim_A.csv,Global.csv,Global,A,bridge,,RR5,,,78,Study,User,1.25,,River,RR5,3314,,,-1,-1,,,,,1
6580b703bb0ff372f179abc7,ox7yatvx91,Ex2A_Prolific,1,129,2024-02-28T23:17:15+00:00,1.7516179084778,3,Stim_A.csv,Global.csv,Global,A,brook,,RR6,,,79,Study,User,1.25,,River,RR6,1582,,,-1,-1,,,,,1
6580b703bb0ff372f179abc7,ox7yatvx91,Ex2A_Prolific,1,130,2024-02-28T23:17:17+00:00,1.5737080574036,3,Stim_A.csv,Global.csv,Global,A,lake,,RR7,,,80,Study,User,1.25,,River,RR7,1405,,,-1,-1,,,,,1
6580b703bb0ff372f179abc7,ox7yatvx91,Ex2A_Prolific,1,131,2024-02-28T23:17:18+00:00,1.7224028110504,3,Stim_A.csv,Global.csv,Global,A,barge,,RR8,,,81,Study,User,1.25,,River,RR8,1555,,,-1,-1,,,,,1
6580b703bb0ff372f179abc7,ox7yatvx91,Ex2A_Prolific,1,132,2024-02-28T23:17:20+00:00,1.9534060955048,3,Stim_A.csv,Global.csv,Global,A,water,,RR9,,,82,Study,User,1.25,,River,RR9,1784,,,-1,-1,,,,,1
6580b703bb0ff372f179abc7,ox7yatvx91,Ex2A_Prolific,1,133,2024-02-28T23:17:22+00:00,1.4671719074249,3,Stim_A.csv,Global.csv,Global,A,boat,,RR10,,,83,Study,User,1.25,,River,RR10,1298,,,-1,-1,,,,,1
6580b703bb0ff372f179abc7,ox7yatvx91,Ex2A_Prolific,1,134,2024-02-28T23:17:24+00:00,2.075825214386,3,Stim_A.csv,Global.csv,Global,A,tide,,RR11,,,84,Study,User,1.25,,River,RR11,1906,,,-1,-1,,,,,1
6580b703bb0ff372f179abc7,ox7yatvx91,Ex2A_Prolific,1,135,2024-02-28T23:17:25+00:00,1.4596939086914,3,Stim_A.csv,Global.csv,Global,A,swim,,RR12,,,85,Study,User,1.25,,River,RR12,1282,,,-1,-1,,,,,1
6580b703bb0ff372f179abc7,ox7yatvx91,Ex2A_Prolific,1,136,2024-02-28T23:17:27+00:00,1.6841869354248,3,Stim_A.csv,Global.csv,Global,A,,,,,,0,Instruct,User,-,"You have completed this section and will now be asked to judge your ability to remember the list items you just studied. You will have four seconds to type your rating. Please click next to continue.",,Next_List1,1516,,,-1,-1,,,,,1
6580b703bb0ff372f179abc7,ox7yatvx91,Ex2A_Prolific,1,137,2024-02-28T23:17:32+00:00,5.1822850704193,3,Stim_A.csv,Global.csv,Global,A,,,,,,0,JOL_GLOBAL,5,5,"How likely are you to correctly recall each of the items you just studied?|Type your response on a scale from 0-100 and then press Enter (0 = WILL NOT REMEMBER; 100 = DEFINITELY WILL REMEMBER).",Related,JOL7,5005,,,2509,3061,,,,10,1
6580b703bb0ff372f179abc7,ox7yatvx91,Ex2A_Prolific,1,138,2024-02-28T23:17:37+00:00,4.6378130912781,3,Stim_A.csv,Global.csv,Global,A,,,,,,0,Instruct,User,4,"You have completed this section. Please click next.",,Instruct166,4468,,,-1,-1,,,,,1
6580b703bb0ff372f179abc7,ox7yatvx91,Ex2A_Prolific,1,139,2024-02-28T23:18:07+00:00,30.183927774429,3,Stim_A.csv,Global.csv,Global,A,,,,,,0,FreeRecall,30,30,"Please type as many words as you can that begin with the letter ""M"". The computer will automatically advance to the next screen in 30 seconds.",,FILLER,30001,"monitor, micro, macro, match, mother, mutter, moth, matter, moron, ",0,2562,29441,0,0,,,1
6580b703bb0ff372f179abc7,ox7yatvx91,Ex2A_Prolific,1,140,2024-02-28T23:18:09+00:00,1.6851401329041,3,Stim_A.csv,Global.csv,Global,A,,,,,,0,Instruct,User,-,"You have completed this section. Please click next.",,Instruct166,1482,,,-1,-1,,,,,1
6580b703bb0ff372f179abc7,ox7yatvx91,Ex2A_Prolific,1,141,2024-02-28T23:18:13+00:00,4.6798548698425,3,Stim_A.csv,Global.csv,Global,A,,,,,,0,Instruct,User,4,"You will now complete a memory test for the words you just studied. Please type as many words from the previous list as you can seperated by a comma. Spelling will not count against you and you can recall the words in any order. This test will be timed for one minute, and the computer will automatically advance once time is up. Click next when you are ready to begin.",,Instruct1666,4505,,,-1,-1,,,,,1
6580b703bb0ff372f179abc7,ox7yatvx91,Ex2A_Prolific,1,142,2024-02-28T23:19:14+00:00,60.179818153381,3,Stim_A.csv,Global.csv,Global,A,,,,,,0,FreeRecall,60,60,"Please type as many words as you can from the previous study list in any order. Please separate each word with a comma. Spelling will not count against you. This screen will automatically advance in one minute.",,RECALL_Test,60000,"Mississippi, river, creek, lake, bridge, boat",0,874,16930,0,0,,,1
6580b703bb0ff372f179abc7,ox7yatvx91,Ex2A_Prolific,1,143,2024-02-28T23:19:54+00:00,39.980926036835,3,Stim_A.csv,Global.csv,Global,A,,,,,,0,Instruct,User,3,"You will now be presented with a new study list. Click next when you are ready to begin.",,NEXT_LIST,39783,,,-1,-1,,,,,1
6580b703bb0ff372f179abc7,ox7yatvx91,Ex2A_Prolific,1,144,2024-02-28T23:19:55+00:00,1.9431889057159,3,Stim_A.csv,Global.csv,Global,A,rye,,B1,,,86,Study,User,1.25,,Bread,B1,1754,,,-1,-1,,,,,1
6580b703bb0ff372f179abc7,ox7yatvx91,Ex2A_Prolific,1,145,2024-02-28T23:19:58+00:00,2.1398110389709,3,Stim_A.csv,Global.csv,Global,A,loaf,,B2,,,87,Study,User,1.25,,Bread,B2,1950,,,-1,-1,,,,,1
6580b703bb0ff372f179abc7,ox7yatvx91,Ex2A_Prolific,1,146,2024-02-28T23:20:00+00:00,2.2925260066986,3,Stim_A.csv,Global.csv,Global,A,butter,,B3,,,88,Study,User,1.25,,Bread,B3,2120,,,-1,-1,,,,,1
6580b703bb0ff372f179abc7,ox7yatvx91,Ex2A_Prolific,1,147,2024-02-28T23:20:04+00:00,4.2537560462952,3,Stim_A.csv,Global.csv,Global,A,toast,,B4,,,89,Study,User,1.25,,Bread,B4,4079,,,-1,-1,,,,,1
6580b703bb0ff372f179abc7,ox7yatvx91,Ex2A_Prolific,1,148,2024-02-28T23:20:06+00:00,1.7473669052124,3,Stim_A.csv,Global.csv,Global,A,dough,,B5,,,90,Study,User,1.25,,Bread,B5,1574,,,-1,-1,,,,,1
6580b703bb0ff372f179abc7,ox7yatvx91,Ex2A_Prolific,1,149,2024-02-28T23:20:08+00:00,2.2944030761719,3,Stim_A.csv,Global.csv,Global,A,crust,,B6,,,91,Study,User,1.25,,Bread,B6,2122,,,-1,-1,,,,,1
6580b703bb0ff372f179abc7,ox7yatvx91,Ex2A_Prolific,1,150,2024-02-28T23:20:10+00:00,1.7725739479065,3,Stim_A.csv,Global.csv,Global,A,flour,,B7,,,92,Study,User,1.25,,Bread,B7,1603,,,-1,-1,,,,,1
6580b703bb0ff372f179abc7,ox7yatvx91,Ex2A_Prolific,1,151,2024-02-28T23:20:14+00:00,3.5872120857239,3,Stim_A.csv,Global.csv,Global,A,sandwich,,B8,,,93,Study,User,1.25,,Bread,B8,3414,,,-1,-1,,,,,1
6580b703bb0ff372f179abc7,ox7yatvx91,Ex2A_Prolific,1,152,2024-02-28T23:20:15+00:00,1.458233833313,3,Stim_A.csv,Global.csv,Global,A,jam,,B9,,,94,Study,User,1.25,,Bread,B9,1290,,,-1,-1,,,,,1
6580b703bb0ff372f179abc7,ox7yatvx91,Ex2A_Prolific,1,153,2024-02-28T23:20:17+00:00,1.9885671138763,3,Stim_A.csv,Global.csv,Global,A,jelly,,B10,,,95,Study,User,1.25,,Bread,B10,1823,,,-1,-1,,,,,1
6580b703bb0ff372f179abc7,ox7yatvx91,Ex2A_Prolific,1,154,2024-02-28T23:20:19+00:00,1.7958099842072,3,Stim_A.csv,Global.csv,Global,A,slice,,B11,,,96,Study,User,1.25,,Bread,B11,1625,,,-1,-1,,,,,1
6580b703bb0ff372f179abc7,ox7yatvx91,Ex2A_Prolific,1,155,2024-02-28T23:20:20+00:00,1.5200130939484,3,Stim_A.csv,Global.csv,Global,A,milk,,B12,,,97,Study,User,1.25,,Bread,B12,1345,,,-1,-1,,,,,1
6580b703bb0ff372f179abc7,ox7yatvx91,Ex2A_Prolific,1,156,2024-02-28T23:20:22+00:00,1.9610829353333,3,Stim_A.csv,Global.csv,Global,A,,,,,,0,Instruct,User,-,"You have completed this section and will now be asked to judge your ability to remember the list items you just studied. You will have four seconds to type your rating. Please click next to continue.",,Next_List1,1790,,,-1,-1,,,,,1
6580b703bb0ff372f179abc7,ox7yatvx91,Ex2A_Prolific,1,157,2024-02-28T23:20:27+00:00,5.1818690299988,3,Stim_A.csv,Global.csv,Global,A,,,,,,0,JOL_GLOBAL,5,5,"How likely are you to correctly recall each of the items you just studied?|Type your response on a scale from 0-100 and then press Enter (0 = WILL NOT REMEMBER; 100 = DEFINITELY WILL REMEMBER).",Related,JOL8,5003,,,2773,3077,,,,30,1
6580b703bb0ff372f179abc7,ox7yatvx91,Ex2A_Prolific,1,158,2024-02-28T23:20:32+00:00,4.7098038196564,3,Stim_A.csv,Global.csv,Global,A,,,,,,0,Instruct,User,4,"You have completed this section. Please click next.",,Instruct166,4535,,,-1,-1,,,,,1
6580b703bb0ff372f179abc7,ox7yatvx91,Ex2A_Prolific,1,159,2024-02-28T23:21:02+00:00,30.182865142822,3,Stim_A.csv,Global.csv,Global,A,,,,,,0,FreeRecall,30,30,"Please type as many words as you can that begin with the letter ""T"". The computer will automatically advance to the next screen in 30 seconds.",,FILLER,30000,"titan, type, typical, tatter, that, this, them, those, thought, the, ",0,2288,24968,0,0,,,1
6580b703bb0ff372f179abc7,ox7yatvx91,Ex2A_Prolific,1,160,2024-02-28T23:21:05+00:00,2.4493758678436,3,Stim_A.csv,Global.csv,Global,A,,,,,,0,Instruct,User,-,"You have completed this section. Please click next.",,Instruct166,2276,,,-1,-1,,,,,1
6580b703bb0ff372f179abc7,ox7yatvx91,Ex2A_Prolific,1,161,2024-02-28T23:21:09+00:00,4.6178240776062,3,Stim_A.csv,Global.csv,Global,A,,,,,,0,Instruct,User,4,"You will now complete a memory test for the words you just studied. Please type as many words from the previous list as you can seperated by a comma. Spelling will not count against you and you can recall the words in any order. This test will be timed for one minute, and the computer will automatically advance once time is up. Click next when you are ready to begin.",,Instruct1666,4451,,,-1,-1,,,,,1
6580b703bb0ff372f179abc7,ox7yatvx91,Ex2A_Prolific,1,162,2024-02-28T23:22:10+00:00,60.176322937012,3,Stim_A.csv,Global.csv,Global,A,,,,,,0,FreeRecall,60,60,"Please type as many words as you can from the previous study list in any order. Please separate each word with a comma. Spelling will not count against you. This screen will automatically advance in one minute.",,RECALL_Test,60001,"rye, loaf, dough, toast, butter, strawberry, jam, milk",0,2450,36618,0,0,,,1
6580b703bb0ff372f179abc7,ox7yatvx91,Ex2A_Prolific,1,163,2024-02-28T23:22:13+00:00,3.5331230163574,3,Stim_A.csv,Global.csv,Global,A,,,,,,0,Instruct,User,3,"You will now be presented with a new study list. Click next when you are ready to begin.",,NEXT_LIST,3362,,,-1,-1,,,,,1
6580b703bb0ff372f179abc7,ox7yatvx91,Ex2A_Prolific,1,164,2024-02-28T23:22:15+00:00,2.1728191375732,3,Stim_A.csv,Global.csv,Global,A,banner,,F1,,,98,Study,User,1.25,,Flag,F1,1977,,,-1,-1,,,,,1
6580b703bb0ff372f179abc7,ox7yatvx91,Ex2A_Prolific,1,165,2024-02-28T23:22:17+00:00,1.9680190086365,3,Stim_A.csv,Global.csv,Global,A,checkered,,F2,,,99,Study,User,1.25,,Flag,F2,1780,,,-1,-1,,,,,1
6580b703bb0ff372f179abc7,ox7yatvx91,Ex2A_Prolific,1,166,2024-02-28T23:22:19+00:00,1.8581368923187,3,Stim_A.csv,Global.csv,Global,A,american,,F3,,,100,Study,User,1.25,,Flag,F3,1688,,,-1,-1,,,,,1
6580b703bb0ff372f179abc7,ox7yatvx91,Ex2A_Prolific,1,167,2024-02-28T23:22:21+00:00,2.1593070030212,3,Stim_A.csv,Global.csv,Global,A,stripes,,F4,,,101,Study,User,1.25,,Flag,F4,1980,,,-1,-1,,,,,1
6580b703bb0ff372f179abc7,ox7yatvx91,Ex2A_Prolific,1,168,2024-02-28T23:22:24+00:00,2.7906908988953,3,Stim_A.csv,Global.csv,Global,A,pole,,F5,,,102,Study,User,1.25,,Flag,F5,2620,,,-1,-1,,,,,1
6580b703bb0ff372f179abc7,ox7yatvx91,Ex2A_Prolific,1,169,2024-02-28T23:22:26+00:00,1.7604081630707,3,Stim_A.csv,Global.csv,Global,A,anthem,,F6,,,103,Study,User,1.25,,Flag,F6,1592,,,-1,-1,,,,,1
6580b703bb0ff372f179abc7,ox7yatvx91,Ex2A_Prolific,1,170,2024-02-28T23:22:28+00:00,1.9642648696899,3,Stim_A.csv,Global.csv,Global,A,emblem,,F7,,,104,Study,User,1.25,,Flag,F7,1795,,,-1,-1,,,,,1
6580b703bb0ff372f179abc7,ox7yatvx91,Ex2A_Prolific,1,171,2024-02-28T23:22:30+00:00,1.7492141723633,3,Stim_A.csv,Global.csv,Global,A,national,,F8,,,105,Study,User,1.25,,Flag,F8,1583,,,-1,-1,,,,,1
6580b703bb0ff372f179abc7,ox7yatvx91,Ex2A_Prolific,1,172,2024-02-28T23:22:31+00:00,1.7713489532471,3,Stim_A.csv,Global.csv,Global,A,freedom,,F9,,,106,Study,User,1.25,,Flag,F9,1603,,,-1,-1,,,,,1
6580b703bb0ff372f179abc7,ox7yatvx91,Ex2A_Prolific,1,173,2024-02-28T23:22:33+00:00,1.6751780509949,3,Stim_A.csv,Global.csv,Global,A,symbol,,F10,,,107,Study,User,1.25,,Flag,F10,1505,,,-1,-1,,,,,1
6580b703bb0ff372f179abc7,ox7yatvx91,Ex2A_Prolific,1,174,2024-02-28T23:22:35+00:00,1.9658958911896,3,Stim_A.csv,Global.csv,Global,A,wave,,F11,,,108,Study,User,1.25,,Flag,F11,1798,,,-1,-1,,,,,1
6580b703bb0ff372f179abc7,ox7yatvx91,Ex2A_Prolific,1,175,2024-02-28T23:22:37+00:00,2.0381600856781,3,Stim_A.csv,Global.csv,Global,A,stars,,F12,,,109,Study,User,1.25,,Flag,F12,1873,,,-1,-1,,,,,1
6580b703bb0ff372f179abc7,ox7yatvx91,Ex2A_Prolific,1,176,2024-02-28T23:22:38+00:00,1.2710618972778,3,Stim_A.csv,Global.csv,Global,A,,,,,,0,Instruct,User,-,"You have completed this section and will now be asked to judge your ability to remember the list items you just studied. You will have four seconds to type your rating. Please click next to continue.",,Next_List1,1103,,,-1,-1,,,,,1
6580b703bb0ff372f179abc7,ox7yatvx91,Ex2A_Prolific,1,177,2024-02-28T23:22:43+00:00,5.1827080249786,3,Stim_A.csv,Global.csv,Global,A,,,,,,0,JOL_GLOBAL,5,5,"How likely are you to correctly recall each of the items you just studied?|Type your response on a scale from 0-100 and then press Enter (0 = WILL NOT REMEMBER; 100 = DEFINITELY WILL REMEMBER).",Related,JOL9,5001,,,2252,2852,,,,30,1
6580b703bb0ff372f179abc7,ox7yatvx91,Ex2A_Prolific,1,178,2024-02-28T23:22:48+00:00,4.5638840198517,3,Stim_A.csv,Global.csv,Global,A,,,,,,0,Instruct,User,4,"You have completed this section. Please click next.",,Instruct166,4381,,,-1,-1,,,,,1
6580b703bb0ff372f179abc7,ox7yatvx91,Ex2A_Prolific,1,179,2024-02-28T23:23:18+00:00,30.178020954132,3,Stim_A.csv,Global.csv,Global,A,,,,,,0,FreeRecall,30,30,"Please type as many words as you can that begin with the letter ""M"". The computer will automatically advance to the next screen in 30 seconds.",,FILLER,30001,"milk, mom, mother, math, matter, much, more, maybe, moose, mounjtai",0,3017,29160,0,0,,,1
6580b703bb0ff372f179abc7,ox7yatvx91,Ex2A_Prolific,1,180,2024-02-28T23:23:21+00:00,2.4420559406281,3,Stim_A.csv,Global.csv,Global,A,,,,,,0,Instruct,User,1.25,"You have completed this section. Please click next.",,Instruct166,2236,,,-1,-1,,,,,1
6580b703bb0ff372f179abc7,ox7yatvx91,Ex2A_Prolific,1,181,2024-02-28T23:23:25+00:00,4.6417810916901,3,Stim_A.csv,Global.csv,Global,A,,,,,,0,Instruct,User,4,"You will now complete a memory test for the words you just studied. Please type as many words from the previous list as you can seperated by a comma. Spelling will not count against you and you can recall the words in any order. This test will be timed for one minute, and the computer will automatically advance once time is up. Click next when you are ready to begin.",,Instruct1666,4470,,,-1,-1,,,,,1
6580b703bb0ff372f179abc7,ox7yatvx91,Ex2A_Prolific,1,182,2024-02-28T23:24:25+00:00,60.186794042587,3,Stim_A.csv,Global.csv,Global,A,,,,,,0,FreeRecall,60,60,"Please type as many words as you can from the previous study list in any order. Please separate each word with a comma. Spelling will not count against you. This screen will automatically advance in one minute.",,RECALL_Test,60001,"American, flag, pole, emblem, stars, checkered, banner, stripes, freedom, wave, ",0,1326,32261,0,0,,,1
6580b703bb0ff372f179abc7,ox7yatvx91,Ex2A_Prolific,1,183,2024-02-28T23:24:28+00:00,2.1082830429077,3,Stim_A.csv,Global.csv,Global,A,,,,,,0,Instruct,User,1.25,"You will now be presented with a new study list. Click next when you are ready to begin.",,NEXT_LIST,1936,,,-1,-1,,,,,1
6580b703bb0ff372f179abc7,ox7yatvx91,Ex2A_Prolific,1,184,2024-02-28T23:24:29+00:00,1.8537440299988,3,Stim_A.csv,Global.csv,Global,A,blouse,,SS1,,,110,Study,User,1.25,,Shirt,SS1,1665,,,-1,-1,,,,,1
6580b703bb0ff372f179abc7,ox7yatvx91,Ex2A_Prolific,1,185,2024-02-28T23:24:31+00:00,1.7923429012299,3,Stim_A.csv,Global.csv,Global,A,sleeves,,SS2,,,111,Study,User,1.25,,Shirt,SS2,1621,,,-1,-1,,,,,1
6580b703bb0ff372f179abc7,ox7yatvx91,Ex2A_Prolific,1,186,2024-02-28T23:24:33+00:00,1.9984948635101,3,Stim_A.csv,Global.csv,Global,A,collar,,SS3,,,112,Study,User,1.25,,Shirt,SS3,1827,,,-1,-1,,,,,1
6580b703bb0ff372f179abc7,ox7yatvx91,Ex2A_Prolific,1,187,2024-02-28T23:24:35+00:00,1.9015531539917,3,Stim_A.csv,Global.csv,Global,A,shorts,,SS4,,,113,Study,User,1.25,,Shirt,SS4,1729,,,-1,-1,,,,,1
6580b703bb0ff372f179abc7,ox7yatvx91,Ex2A_Prolific,1,188,2024-02-28T23:24:37+00:00,1.8049740791321,3,Stim_A.csv,Global.csv,Global,A,button,,SS5,,,114,Study,User,1.25,,Shirt,SS5,1638,,,-1,-1,,,,,1
6580b703bb0ff372f179abc7,ox7yatvx91,Ex2A_Prolific,1,189,2024-02-28T23:24:39+00:00,1.937707901001,3,Stim_A.csv,Global.csv,Global,A,pants,,SS6,,,115,Study,User,1.25,,Shirt,SS6,1773,,,-1,-1,,,,,1
6580b703bb0ff372f179abc7,ox7yatvx91,Ex2A_Prolific,1,190,2024-02-28T23:24:41+00:00,1.9191200733185,3,Stim_A.csv,Global.csv,Global,A,polo,,SS7,,,116,Study,User,1.25,,Shirt,SS7,1745,,,-1,-1,,,,,1
6580b703bb0ff372f179abc7,ox7yatvx91,Ex2A_Prolific,1,191,2024-02-28T23:24:43+00:00,1.7347328662872,3,Stim_A.csv,Global.csv,Global,A,jersey,,SS8,,,117,Study,User,1.25,,Shirt,SS8,1560,,,-1,-1,,,,,1
6580b703bb0ff372f179abc7,ox7yatvx91,Ex2A_Prolific,1,192,2024-02-28T23:24:44+00:00,1.5347330570221,3,Stim_A.csv,Global.csv,Global,A,vest,,SS9,,,118,Study,User,1.25,,Shirt,SS9,1355,,,-1,-1,,,,,1
6580b703bb0ff372f179abc7,ox7yatvx91,Ex2A_Prolific,1,193,2024-02-28T23:24:46+00:00,1.7792210578918,3,Stim_A.csv,Global.csv,Global,A,cuffs,,SS10,,,119,Study,User,1.25,,Shirt,SS10,1612,,,-1,-1,,,,,1
6580b703bb0ff372f179abc7,ox7yatvx91,Ex2A_Prolific,1,194,2024-02-28T23:24:48+00:00,1.765636920929,3,Stim_A.csv,Global.csv,Global,A,tie,,SS11,,,120,Study,User,1.25,,Shirt,SS11,1595,,,-1,-1,,,,,1
6580b703bb0ff372f179abc7,ox7yatvx91,Ex2A_Prolific,1,195,2024-02-28T23:24:49+00:00,1.7752649784088,3,Stim_A.csv,Global.csv,Global,A,pocket,,SS12,,,121,Study,User,1.25,,Shirt,SS12,1606,,,-1,-1,,,,,1
6580b703bb0ff372f179abc7,ox7yatvx91,Ex2A_Prolific,1,196,2024-02-28T23:24:52+00:00,2.6653261184692,3,Stim_A.csv,Global.csv,Global,A,,,,,,0,Instruct,User,-,"You have completed this section and will now be asked to judge your ability to remember the list items you just studied. You will have four seconds to type your rating. Please click next to continue.",,Next_List1,2496,,,-1,-1,,,,,1
6580b703bb0ff372f179abc7,ox7yatvx91,Ex2A_Prolific,1,197,2024-02-28T23:24:57+00:00,5.1803078651428,3,Stim_A.csv,Global.csv,Global,A,,,,,,0,JOL_GLOBAL,5,5,"How likely are you to correctly recall each of the items you just studied?|Type your response on a scale from 0-100 and then press Enter (0 = WILL NOT REMEMBER; 100 = DEFINITELY WILL REMEMBER).",Related,JOL10,5001,,,1681,1681,,,,0,1
6580b703bb0ff372f179abc7,ox7yatvx91,Ex2A_Prolific,1,198,2024-02-28T23:25:02+00:00,4.5491909980774,3,Stim_A.csv,Global.csv,Global,A,,,,,,0,Instruct,User,4,"You have completed this section. Please click next.",,Instruct166,4378,,,-1,-1,,,,,0.636
6580b703bb0ff372f179abc7,ox7yatvx91,Ex2A_Prolific,1,199,2024-02-28T23:25:32+00:00,30.175634145737,3,Stim_A.csv,Global.csv,Global,A,,,,,,0,FreeRecall,30,30,"Please type as many words as you can that begin with the letter ""C"". The computer will automatically advance to the next screen in 30 seconds.",,FILLER,30001,"can't, couldn't, computer, could, cold, colder, coldest, co",0,4703,28727,0,0,,,1
6580b703bb0ff372f179abc7,ox7yatvx91,Ex2A_Prolific,1,200,2024-02-28T23:25:34+00:00,1.5611109733582,3,Stim_A.csv,Global.csv,Global,A,,,,,,0,Instruct,User,-,"You have completed this section. Please click next.",,Instruct166,1386,,,-1,-1,,,,,1
6580b703bb0ff372f179abc7,ox7yatvx91,Ex2A_Prolific,1,201,2024-02-28T23:25:36+00:00,2.3544688224792,3,Stim_A.csv,Global.csv,Global,A,,,,,,0,Instruct,User,1.25,"You will now complete a memory test for the words you just studied. Please type as many words from the previous list as you can seperated by a comma. Spelling will not count against you and you can recall the words in any order. This test will be timed for one minute, and the computer will automatically advance once time is up. Click next when you are ready to begin.",,Instruct1666,2171,,,-1,-1,,,,,1
6580b703bb0ff372f179abc7,ox7yatvx91,Ex2A_Prolific,1,202,2024-02-28T23:26:36+00:00,60.175972223282,3,Stim_A.csv,Global.csv,Global,A,,,,,,0,FreeRecall,60,60,"Please type as many words as you can from the previous study list in any order. Please separate each word with a comma. Spelling will not count against you. This screen will automatically advance in one minute.",,RECALL_Test,60000,"polo, shorts, tie, cuffs, blouse, ",0,1421,13165,0,0,,,0.916
6580b703bb0ff372f179abc7,ox7yatvx91,Ex2A_Prolific,1,203,2024-02-28T23:26:38+00:00,1.7020909786224,3,Stim_A.csv,Global.csv,Global,A,,,,,,0,Instruct,User,-,"You have completed this section. Please click next.",,Instruct7,1529,,,-1,-1,,,,,1
6580b703bb0ff372f179abc7,ox7yatvx91,Ex2A_Prolific,1,204,2024-02-28T23:26:39+00:00,1.4756989479065,3,Stim_A.csv,Global.csv,Global,A,,,,,,0,Instruct,User,-,"The following screen will ask you a few questions abour your experience today. You must complete these questions to receive credit.",,Instruct8,1310,,,-1,-1,,,,,1
