Username,ID,ExperimentName,Session,Trial,Date,TimeDif,"Condition Number","Stimuli File","Order File","Condition Description","Condition Notes",Stimuli*Cue,Stimuli*Answer,Stimuli*Shuffle,"Stimuli*Stimuli Notes",Stimuli*Value,Procedure*Item,"Procedure*Trial Type","Procedure*Max Time","Procedure*Min Time",Procedure*Text,"Procedure*Procedure Notes",Procedure*Shuffle,Response*RT,Response*Response,Response*Accuracy,Response*RTfirst,Response*RTlast,Response*strictAcc,Response*lenientAcc,Response*focus,Response*JOL,Response*Focus
5ee1cf1e0df8e55c6b9e1f1a,x81wu4nn2z,Ex2A_Prolific,1,1,2024-02-28T01:30:28+00:00,6.576425075531,4,Stim_B.csv,Global.csv,Global,B,,,,,,0,Instruct,-,5,"In this section, you will be presented with a series of words. Please study each word carefully. Your memory will be tested!",Initial_Instruct,Instruct1,6280,,,-1,-1,,,,,1
5ee1cf1e0df8e55c6b9e1f1a,x81wu4nn2z,Ex2A_Prolific,1,2,2024-02-28T01:30:35+00:00,6.96648478508,4,Stim_B.csv,Global.csv,Global,B,,,,,,0,Instruct,User,5,"After studying each LIST of words, you will be asked to rate your ability to remember ALL of the words in the list on a later test. You will make these ratings using a scale of 0 to 100. A rating of 0 = WILL NOT REMEMBER, while a rating of 100 = WILL DEFINITELY REMEMBER. Please try to be as accurate as possible with these ratings!",,BLIPBLOOP,6718,,,-1,-1,,,,,1
5ee1cf1e0df8e55c6b9e1f1a,x81wu4nn2z,Ex2A_Prolific,1,3,2024-02-28T01:30:37+00:00,2.3819971084595,4,Stim_B.csv,Global.csv,Global,B,,,,,,0,Instruct,User,1.25,"You will now begin the study. Click next when you are ready to begin.",,Instruct16,2117,,,-1,-1,,,,,1
5ee1cf1e0df8e55c6b9e1f1a,x81wu4nn2z,Ex2A_Prolific,1,4,2024-02-28T01:30:39+00:00,2.0527930259705,4,Stim_B.csv,Global.csv,Global,B,aroma,,Win_1,,,2,Study,User,1.25,,Window,Win_1,1787,,,-1,-1,,,,,1
5ee1cf1e0df8e55c6b9e1f1a,x81wu4nn2z,Ex2A_Prolific,1,5,2024-02-28T01:30:42+00:00,2.3634519577026,4,Stim_B.csv,Global.csv,Global,B,scent,,Win_2,,,3,Study,User,1.25,,Window,Win_2,2006,,,-1,-1,,,,,1
5ee1cf1e0df8e55c6b9e1f1a,x81wu4nn2z,Ex2A_Prolific,1,6,2024-02-28T01:30:44+00:00,2.0545670986176,4,Stim_B.csv,Global.csv,Global,B,whiff,,Win_3,,,4,Study,User,1.25,,Window,Win_3,1692,,,-1,-1,,,,,1
5ee1cf1e0df8e55c6b9e1f1a,x81wu4nn2z,Ex2A_Prolific,1,7,2024-02-28T01:30:46+00:00,1.9150218963623,4,Stim_B.csv,Global.csv,Global,B,stench,,Win_4,,,5,Study,User,1.25,,Window,Win_4,1672,,,-1,-1,,,,,1
5ee1cf1e0df8e55c6b9e1f1a,x81wu4nn2z,Ex2A_Prolific,1,8,2024-02-28T01:30:48+00:00,2.1144120693207,4,Stim_B.csv,Global.csv,Global,B,reek,,Win_5,,,6,Study,User,1.25,,Window,Win_5,1869,,,-1,-1,,,,,1
5ee1cf1e0df8e55c6b9e1f1a,x81wu4nn2z,Ex2A_Prolific,1,9,2024-02-28T01:30:50+00:00,2.002228975296,4,Stim_B.csv,Global.csv,Global,B,sniff,,Win_6,,,7,Study,User,1.25,,Window,Win_6,1760,,,-1,-1,,,,,1
5ee1cf1e0df8e55c6b9e1f1a,x81wu4nn2z,Ex2A_Prolific,1,10,2024-02-28T01:30:52+00:00,1.9340419769287,4,Stim_B.csv,Global.csv,Global,B,perfume,,Win_7,,,8,Study,User,1.25,,Window,Win_7,1675,,,-1,-1,,,,,1
5ee1cf1e0df8e55c6b9e1f1a,x81wu4nn2z,Ex2A_Prolific,1,11,2024-02-28T01:30:54+00:00,1.8995199203491,4,Stim_B.csv,Global.csv,Global,B,fragrance,,Win_8,,,9,Study,User,1.25,,Window,Win_8,1640,,,-1,-1,,,,,1
5ee1cf1e0df8e55c6b9e1f1a,x81wu4nn2z,Ex2A_Prolific,1,12,2024-02-28T01:30:56+00:00,1.9175851345062,4,Stim_B.csv,Global.csv,Global,B,nose,,Win_9,,,10,Study,User,1.25,,Window,Win_9,1660,,,-1,-1,,,,,1
5ee1cf1e0df8e55c6b9e1f1a,x81wu4nn2z,Ex2A_Prolific,1,13,2024-02-28T01:30:58+00:00,2.1511318683624,4,Stim_B.csv,Global.csv,Global,B,rose,,Win_10,,,11,Study,User,1.25,,Window,Win_10,1692,,,-1,-1,,,,,1
5ee1cf1e0df8e55c6b9e1f1a,x81wu4nn2z,Ex2A_Prolific,1,14,2024-02-28T01:31:00+00:00,1.9095079898834,4,Stim_B.csv,Global.csv,Global,B,salts,,Win_11,,,12,Study,User,1.25,,Window,Win_11,1664,,,-1,-1,,,,,1
5ee1cf1e0df8e55c6b9e1f1a,x81wu4nn2z,Ex2A_Prolific,1,15,2024-02-28T01:31:02+00:00,1.8883919715881,4,Stim_B.csv,Global.csv,Global,B,breathe,,Win_12,,,13,Study,User,1.25,,Window,Win_12,1636,,,-1,-1,,,,,1
5ee1cf1e0df8e55c6b9e1f1a,x81wu4nn2z,Ex2A_Prolific,1,16,2024-02-28T01:31:05+00:00,3.5520081520081,4,Stim_B.csv,Global.csv,Global,B,,,,,,0,Instruct,User,1.25,"You have completed this section and will now be asked to judge your ability to remember the list items you just studied. You will have four seconds to type your rating. Please click next to continue.",,Next_List1,3297,,,-1,-1,,,,,1
5ee1cf1e0df8e55c6b9e1f1a,x81wu4nn2z,Ex2A_Prolific,1,17,2024-02-28T01:31:10+00:00,5.2640490531921,4,Stim_B.csv,Global.csv,Global,B,,,,,,0,JOL_GLOBAL,5,5,"How likely are you to correctly recall each of the items you just studied?|Type your response on a scale from 0-100 and then press Enter (0 = WILL NOT REMEMBER; 100 = DEFINITELY WILL REMEMBER).",Related,JOL1,5005,,,2079,2317,,,,70,1
5ee1cf1e0df8e55c6b9e1f1a,x81wu4nn2z,Ex2A_Prolific,1,18,2024-02-28T01:31:15+00:00,4.9486258029938,4,Stim_B.csv,Global.csv,Global,B,,,,,,0,Instruct,User,4,"You have completed this section. Please click next.",,Instruct166,4681,,,-1,-1,,,,,1
5ee1cf1e0df8e55c6b9e1f1a,x81wu4nn2z,Ex2A_Prolific,1,19,2024-02-28T01:31:46+00:00,30.345654010773,4,Stim_B.csv,Global.csv,Global,B,,,,,,0,FreeRecall,30,30,"Please type as many words as you can that begin with the letter ""W"". The computer will automatically advance to the next screen in 30 seconds.",,FILLER,30001,whiff,0,2910,4050,0,0,,,1
5ee1cf1e0df8e55c6b9e1f1a,x81wu4nn2z,Ex2A_Prolific,1,20,2024-02-28T01:31:50+00:00,4.0078752040863,4,Stim_B.csv,Global.csv,Global,B,,,,,,0,Instruct,User,-,"You have completed this section. Please click next.",,Instruct166,3762,,,-1,-1,,,,,1
5ee1cf1e0df8e55c6b9e1f1a,x81wu4nn2z,Ex2A_Prolific,1,21,2024-02-28T01:31:56+00:00,6.4720859527588,4,Stim_B.csv,Global.csv,Global,B,,,,,,0,Instruct,User,1.25,"You will now complete a memory test for the words you just studied. Please type as many words from the previous list as you can seperated by a comma. Spelling will not count against you and you can recall the words in any order. This test will be timed for one minute, and the computer will automatically advance once time is up. Click next when you are ready to begin.",,Instruct1666,6234,,,-1,-1,,,,,1
5ee1cf1e0df8e55c6b9e1f1a,x81wu4nn2z,Ex2A_Prolific,1,22,2024-02-28T01:32:56+00:00,60.247215986252,4,Stim_B.csv,Global.csv,Global,B,,,,,,0,FreeRecall,60,60,"Please type as many words as you can from the previous study list in any order. Please separate each word with a comma. Spelling will not count against you. This screen will automatically advance in one minute.",,RECALL_Test,60002,"stench, whiff, rose, nose, salt, reeck, aroma, scent, smell, breathe, fragrance",0,904,48721,0,0,,,1
5ee1cf1e0df8e55c6b9e1f1a,x81wu4nn2z,Ex2A_Prolific,1,23,2024-02-28T01:33:04+00:00,8.0286798477173,4,Stim_B.csv,Global.csv,Global,B,,,,,,0,Instruct,User,3,"You will now be presented with a new study list. Click next when you are ready to begin.",,NEXT_LIST,7778,,,-1,-1,,,,,1
5ee1cf1e0df8e55c6b9e1f1a,x81wu4nn2z,Ex2A_Prolific,1,24,2024-02-28T01:33:07+00:00,2.0894901752472,4,Stim_B.csv,Global.csv,Global,B,hard,,R1,,,14,Study,User,1.25,,Rough,R1,1827,,,-1,-1,,,,,1
5ee1cf1e0df8e55c6b9e1f1a,x81wu4nn2z,Ex2A_Prolific,1,25,2024-02-28T01:33:08+00:00,1.9521160125732,4,Stim_B.csv,Global.csv,Global,B,loud,,R2,,,15,Study,User,1.25,,Rough,R2,1691,,,-1,-1,,,,,1
5ee1cf1e0df8e55c6b9e1f1a,x81wu4nn2z,Ex2A_Prolific,1,26,2024-02-28T01:33:10+00:00,1.9605948925018,4,Stim_B.csv,Global.csv,Global,B,tender,,R3,,,16,Study,User,1.25,,Rough,R3,1723,,,-1,-1,,,,,1
5ee1cf1e0df8e55c6b9e1f1a,x81wu4nn2z,Ex2A_Prolific,1,27,2024-02-28T01:33:12+00:00,1.9509041309357,4,Stim_B.csv,Global.csv,Global,B,fluffy,,R4,,,17,Study,User,1.25,,Rough,R4,1698,,,-1,-1,,,,,1
5ee1cf1e0df8e55c6b9e1f1a,x81wu4nn2z,Ex2A_Prolific,1,28,2024-02-28T01:33:14+00:00,1.933849811554,4,Stim_B.csv,Global.csv,Global,B,pillow,,R5,,,18,Study,User,1.25,,Rough,R5,1674,,,-1,-1,,,,,1
5ee1cf1e0df8e55c6b9e1f1a,x81wu4nn2z,Ex2A_Prolific,1,29,2024-02-28T01:33:16+00:00,1.9666311740875,4,Stim_B.csv,Global.csv,Global,B,downy,,R6,,,19,Study,User,1.25,,Rough,R6,1715,,,-1,-1,,,,,1
5ee1cf1e0df8e55c6b9e1f1a,x81wu4nn2z,Ex2A_Prolific,1,30,2024-02-28T01:33:18+00:00,2.0020899772644,4,Stim_B.csv,Global.csv,Global,B,plush,,R7,,,20,Study,User,1.25,,Rough,R7,1745,,,-1,-1,,,,,1
5ee1cf1e0df8e55c6b9e1f1a,x81wu4nn2z,Ex2A_Prolific,1,31,2024-02-28T01:33:20+00:00,2.044056892395,4,Stim_B.csv,Global.csv,Global,B,cotton,,R8,,,21,Study,User,1.25,,Rough,R8,1810,,,-1,-1,,,,,1
5ee1cf1e0df8e55c6b9e1f1a,x81wu4nn2z,Ex2A_Prolific,1,32,2024-02-28T01:33:22+00:00,1.9405250549316,4,Stim_B.csv,Global.csv,Global,B,skin,,R9,,,22,Study,User,1.25,,Rough,R9,1692,,,-1,-1,,,,,1
5ee1cf1e0df8e55c6b9e1f1a,x81wu4nn2z,Ex2A_Prolific,1,33,2024-02-28T01:33:24+00:00,1.9813249111176,4,Stim_B.csv,Global.csv,Global,B,fur,,R10,,,23,Study,User,1.25,,Rough,R10,1735,,,-1,-1,,,,,1
5ee1cf1e0df8e55c6b9e1f1a,x81wu4nn2z,Ex2A_Prolific,1,34,2024-02-28T01:33:26+00:00,2.1159400939941,4,Stim_B.csv,Global.csv,Global,B,touch,,R11,,,24,Study,User,1.25,,Rough,R11,1868,,,-1,-1,,,,,1
5ee1cf1e0df8e55c6b9e1f1a,x81wu4nn2z,Ex2A_Prolific,1,35,2024-02-28T01:33:28+00:00,1.8973898887634,4,Stim_B.csv,Global.csv,Global,B,furry,,R12,,,25,Study,User,1.25,,Rough,R12,1651,,,-1,-1,,,,,1
5ee1cf1e0df8e55c6b9e1f1a,x81wu4nn2z,Ex2A_Prolific,1,36,2024-02-28T01:33:30+00:00,1.9062011241913,4,Stim_B.csv,Global.csv,Global,B,,,,,,0,Instruct,User,-,"You have completed this section and will now be asked to judge your ability to remember the list items you just studied. You will have four seconds to type your rating. Please click next to continue.",,Next_List1,1648,,,-1,-1,,,,,1
5ee1cf1e0df8e55c6b9e1f1a,x81wu4nn2z,Ex2A_Prolific,1,37,2024-02-28T01:33:35+00:00,5.251081943512,4,Stim_B.csv,Global.csv,Global,B,,,,,,0,JOL_GLOBAL,5,5,"How likely are you to correctly recall each of the items you just studied?|Type your response on a scale from 0-100 and then press Enter (0 = WILL NOT REMEMBER; 100 = DEFINITELY WILL REMEMBER).",Unrelated,JOL2,5003,,,1145,1389,,,,80,1
5ee1cf1e0df8e55c6b9e1f1a,x81wu4nn2z,Ex2A_Prolific,1,38,2024-02-28T01:33:37+00:00,1.5920679569244,4,Stim_B.csv,Global.csv,Global,B,,,,,,0,Instruct,User,-,"You have completed this section. Please click next.",,Instruct166,1326,,,-1,-1,,,,,1
5ee1cf1e0df8e55c6b9e1f1a,x81wu4nn2z,Ex2A_Prolific,1,39,2024-02-28T01:34:07+00:00,30.235393047333,4,Stim_B.csv,Global.csv,Global,B,,,,,,0,FreeRecall,30,30,"Please type as many words as you can that begin with the letter ""M"". The computer will automatically advance to the next screen in 30 seconds.",,FILLER,30001,,0,-1,-1,0,0,,,1
5ee1cf1e0df8e55c6b9e1f1a,x81wu4nn2z,Ex2A_Prolific,1,40,2024-02-28T01:34:12+00:00,4.9579970836639,4,Stim_B.csv,Global.csv,Global,B,,,,,,0,Instruct,User,4,"You have completed this section. Please click next.",,Instruct166,4707,,,-1,-1,,,,,1
5ee1cf1e0df8e55c6b9e1f1a,x81wu4nn2z,Ex2A_Prolific,1,41,2024-02-28T01:34:17+00:00,5.2369349002838,4,Stim_B.csv,Global.csv,Global,B,,,,,,0,Instruct,User,4,"You will now complete a memory test for the words you just studied. Please type as many words from the previous list as you can seperated by a comma. Spelling will not count against you and you can recall the words in any order. This test will be timed for one minute, and the computer will automatically advance once time is up. Click next when you are ready to begin.",,Instruct1666,4978,,,-1,-1,,,,,1
5ee1cf1e0df8e55c6b9e1f1a,x81wu4nn2z,Ex2A_Prolific,1,42,2024-02-28T01:35:18+00:00,60.254565954208,4,Stim_B.csv,Global.csv,Global,B,,,,,,0,FreeRecall,60,60,"Please type as many words as you can from the previous study list in any order. Please separate each word with a comma. Spelling will not count against you. This screen will automatically advance in one minute.",,RECALL_Test,60002,"hard, loud, tender, fluffy, plush, pillow, fur, skin",0,821,25048,0,0,,,0.916
5ee1cf1e0df8e55c6b9e1f1a,x81wu4nn2z,Ex2A_Prolific,1,43,2024-02-28T01:36:21+00:00,62.914267063141,4,Stim_B.csv,Global.csv,Global,B,,,,,,0,Instruct,User,3,"You will now be presented with a new study list. Click next when you are ready to begin.",,NEXT_LIST,62548,,,-1,-1,,,,,0.085
5ee1cf1e0df8e55c6b9e1f1a,x81wu4nn2z,Ex2A_Prolific,1,44,2024-02-28T01:36:23+00:00,2.1400480270386,4,Stim_B.csv,Global.csv,Global,B,honey,,A1,,,26,Study,User,1.25,,Anger,A1,1862,,,-1,-1,,,,,1
5ee1cf1e0df8e55c6b9e1f1a,x81wu4nn2z,Ex2A_Prolific,1,45,2024-02-28T01:36:25+00:00,1.9513909816742,4,Stim_B.csv,Global.csv,Global,B,bitter,,A2,,,27,Study,User,1.25,,Anger,A2,1659,,,-1,-1,,,,,1
5ee1cf1e0df8e55c6b9e1f1a,x81wu4nn2z,Ex2A_Prolific,1,46,2024-02-28T01:36:27+00:00,1.9325940608978,4,Stim_B.csv,Global.csv,Global,B,sugar,,A3,,,28,Study,User,1.25,,Anger,A3,1651,,,-1,-1,,,,,1
5ee1cf1e0df8e55c6b9e1f1a,x81wu4nn2z,Ex2A_Prolific,1,47,2024-02-28T01:36:29+00:00,2.0345180034637,4,Stim_B.csv,Global.csv,Global,B,sour,,A4,,,29,Study,User,1.25,,Anger,A4,1749,,,-1,-1,,,,,1
5ee1cf1e0df8e55c6b9e1f1a,x81wu4nn2z,Ex2A_Prolific,1,48,2024-02-28T01:36:31+00:00,2.2311069965363,4,Stim_B.csv,Global.csv,Global,B,candy,,A5,,,30,Study,User,1.25,,Anger,A5,1913,,,-1,-1,,,,,1
5ee1cf1e0df8e55c6b9e1f1a,x81wu4nn2z,Ex2A_Prolific,1,49,2024-02-28T01:36:33+00:00,2.0695040225983,4,Stim_B.csv,Global.csv,Global,B,tart,,A6,,,31,Study,User,1.25,,Anger,A6,1731,,,-1,-1,,,,,1
5ee1cf1e0df8e55c6b9e1f1a,x81wu4nn2z,Ex2A_Prolific,1,50,2024-02-28T01:36:35+00:00,1.9494779109955,4,Stim_B.csv,Global.csv,Global,B,chocolate,,A7,,,32,Study,User,1.25,,Anger,A7,1662,,,-1,-1,,,,,1
5ee1cf1e0df8e55c6b9e1f1a,x81wu4nn2z,Ex2A_Prolific,1,51,2024-02-28T01:36:37+00:00,2.0495429039001,4,Stim_B.csv,Global.csv,Global,B,nice,,A8,,,33,Study,User,1.25,,Anger,A8,1743,,,-1,-1,,,,,1
5ee1cf1e0df8e55c6b9e1f1a,x81wu4nn2z,Ex2A_Prolific,1,52,2024-02-28T01:36:39+00:00,1.9853661060333,4,Stim_B.csv,Global.csv,Global,B,taste,,A9,,,34,Study,User,1.25,,Anger,A9,1698,,,-1,-1,,,,,1
5ee1cf1e0df8e55c6b9e1f1a,x81wu4nn2z,Ex2A_Prolific,1,53,2024-02-28T01:36:41+00:00,2.006856918335,4,Stim_B.csv,Global.csv,Global,B,cake,,A10,,,35,Study,User,1.25,,Anger,A10,1682,,,-1,-1,,,,,1
5ee1cf1e0df8e55c6b9e1f1a,x81wu4nn2z,Ex2A_Prolific,1,54,2024-02-28T01:36:43+00:00,1.9971041679382,4,Stim_B.csv,Global.csv,Global,B,good,,A11,,,36,Study,User,1.25,,Anger,A11,1703,,,-1,-1,,,,,1
5ee1cf1e0df8e55c6b9e1f1a,x81wu4nn2z,Ex2A_Prolific,1,55,2024-02-28T01:36:45+00:00,2.0012409687042,4,Stim_B.csv,Global.csv,Global,B,tooth,,A12,,,37,Study,User,1.25,,Anger,A12,1693,,,-1,-1,,,,,1
5ee1cf1e0df8e55c6b9e1f1a,x81wu4nn2z,Ex2A_Prolific,1,56,2024-02-28T01:36:47+00:00,1.8427228927612,4,Stim_B.csv,Global.csv,Global,B,,,,,,0,Instruct,User,-,"You have completed this section and will now be asked to judge your ability to remember the list items you just studied. You will have four seconds to type your rating. Please click next to continue.",,Next_List1,1559,,,-1,-1,,,,,1
5ee1cf1e0df8e55c6b9e1f1a,x81wu4nn2z,Ex2A_Prolific,1,57,2024-02-28T01:36:52+00:00,5.2862751483917,4,Stim_B.csv,Global.csv,Global,B,,,,,,0,JOL_GLOBAL,5,5,"How likely are you to correctly recall each of the items you just studied?|Type your response on a scale from 0-100 and then press Enter (0 = WILL NOT REMEMBER; 100 = DEFINITELY WILL REMEMBER).",Related,JOL3,5005,,,1619,1949,,,,80,1
5ee1cf1e0df8e55c6b9e1f1a,x81wu4nn2z,Ex2A_Prolific,1,58,2024-02-28T01:36:55+00:00,2.6079819202423,4,Stim_B.csv,Global.csv,Global,B,,,,,,0,Instruct,User,1.25,"You have completed this section. Please click next.",,Instruct166,2226,,,-1,-1,,,,,1
5ee1cf1e0df8e55c6b9e1f1a,x81wu4nn2z,Ex2A_Prolific,1,59,2024-02-28T01:37:25+00:00,30.575911998749,4,Stim_B.csv,Global.csv,Global,B,,,,,,0,FreeRecall,30,30,"Please type as many words as you can that begin with the letter ""L"". The computer will automatically advance to the next screen in 30 seconds.",,FILLER,30009,,0,-1,-1,0,0,,,1
5ee1cf1e0df8e55c6b9e1f1a,x81wu4nn2z,Ex2A_Prolific,1,60,2024-02-28T01:37:35+00:00,9.3238461017609,4,Stim_B.csv,Global.csv,Global,B,,,,,,0,Instruct,User,4,"You have completed this section. Please click next.",,Instruct166,9056,,,-1,-1,,,,,1
5ee1cf1e0df8e55c6b9e1f1a,x81wu4nn2z,Ex2A_Prolific,1,61,2024-02-28T01:37:53+00:00,18.351256847382,4,Stim_B.csv,Global.csv,Global,B,,,,,,0,Instruct,User,4,"You will now complete a memory test for the words you just studied. Please type as many words from the previous list as you can seperated by a comma. Spelling will not count against you and you can recall the words in any order. This test will be timed for one minute, and the computer will automatically advance once time is up. Click next when you are ready to begin.",,Instruct1666,18086,,,-1,-1,,,,,1
5ee1cf1e0df8e55c6b9e1f1a,x81wu4nn2z,Ex2A_Prolific,1,62,2024-02-28T01:38:53+00:00,60.292560100555,4,Stim_B.csv,Global.csv,Global,B,,,,,,0,FreeRecall,60,60,"Please type as many words as you can from the previous study list in any order. Please separate each word with a comma. Spelling will not count against you. This screen will automatically advance in one minute.",,RECALL_Test,60002,"honey, bitter, sour, chocolate, tart, tooth, candy, cake",0,809,15035,0,0,,,1
5ee1cf1e0df8e55c6b9e1f1a,x81wu4nn2z,Ex2A_Prolific,1,63,2024-02-28T01:38:58+00:00,4.6516728401184,4,Stim_B.csv,Global.csv,Global,B,,,,,,0,Instruct,User,3,"You will now be presented with a new study list. Click next when you are ready to begin.",,NEXT_LIST,4322,,,-1,-1,,,,,1
5ee1cf1e0df8e55c6b9e1f1a,x81wu4nn2z,Ex2A_Prolific,1,64,2024-02-28T01:39:00+00:00,2.2353789806366,4,Stim_B.csv,Global.csv,Global,B,table,,T1,,,38,Study,User,1.25,,Trash,T1,1947,,,-1,-1,,,,,1
5ee1cf1e0df8e55c6b9e1f1a,x81wu4nn2z,Ex2A_Prolific,1,65,2024-02-28T01:39:02+00:00,1.9453999996185,4,Stim_B.csv,Global.csv,Global,B,swivel,,T2,,,39,Study,User,1.25,,Trash,T2,1673,,,-1,-1,,,,,1
5ee1cf1e0df8e55c6b9e1f1a,x81wu4nn2z,Ex2A_Prolific,1,66,2024-02-28T01:39:04+00:00,1.9600441455841,4,Stim_B.csv,Global.csv,Global,B,rocking,,T3,,,40,Study,User,1.25,,Trash,T3,1681,,,-1,-1,,,,,1
5ee1cf1e0df8e55c6b9e1f1a,x81wu4nn2z,Ex2A_Prolific,1,67,2024-02-28T01:39:06+00:00,2.120265007019,4,Stim_B.csv,Global.csv,Global,B,recliner,,T4,,,41,Study,User,1.25,,Trash,T4,1761,,,-1,-1,,,,,1
5ee1cf1e0df8e55c6b9e1f1a,x81wu4nn2z,Ex2A_Prolific,1,68,2024-02-28T01:39:08+00:00,2.3047358989716,4,Stim_B.csv,Global.csv,Global,B,seat,,T5,,,42,Study,User,1.25,,Trash,T5,1714,,,-1,-1,,,,,1
5ee1cf1e0df8e55c6b9e1f1a,x81wu4nn2z,Ex2A_Prolific,1,69,2024-02-28T01:39:10+00:00,1.9653329849243,4,Stim_B.csv,Global.csv,Global,B,stool,,T6,,,43,Study,User,1.25,,Trash,T6,1675,,,-1,-1,,,,,1
5ee1cf1e0df8e55c6b9e1f1a,x81wu4nn2z,Ex2A_Prolific,1,70,2024-02-28T01:39:12+00:00,1.9328761100769,4,Stim_B.csv,Global.csv,Global,B,desk,,T7,,,44,Study,User,1.25,,Trash,T7,1666,,,-1,-1,,,,,1
5ee1cf1e0df8e55c6b9e1f1a,x81wu4nn2z,Ex2A_Prolific,1,71,2024-02-28T01:39:14+00:00,1.9086289405823,4,Stim_B.csv,Global.csv,Global,B,couch,,T8,,,45,Study,User,1.25,,Trash,T8,1633,,,-1,-1,,,,,1
5ee1cf1e0df8e55c6b9e1f1a,x81wu4nn2z,Ex2A_Prolific,1,72,2024-02-28T01:39:17+00:00,2.2780060768127,4,Stim_B.csv,Global.csv,Global,B,sit,,T9,,,46,Study,User,1.25,,Trash,T9,1981,,,-1,-1,,,,,1
5ee1cf1e0df8e55c6b9e1f1a,x81wu4nn2z,Ex2A_Prolific,1,73,2024-02-28T01:39:18+00:00,1.898087978363,4,Stim_B.csv,Global.csv,Global,B,sofa,,T10,,,47,Study,User,1.25,,Trash,T10,1644,,,-1,-1,,,,,1
5ee1cf1e0df8e55c6b9e1f1a,x81wu4nn2z,Ex2A_Prolific,1,74,2024-02-28T01:39:20+00:00,1.9665470123291,4,Stim_B.csv,Global.csv,Global,B,bench,,T11,,,48,Study,User,1.25,,Trash,T11,1693,,,-1,-1,,,,,1
5ee1cf1e0df8e55c6b9e1f1a,x81wu4nn2z,Ex2A_Prolific,1,75,2024-02-28T01:39:22+00:00,1.9176409244537,4,Stim_B.csv,Global.csv,Global,B,sitting,,T12,,,49,Study,User,1.25,,Trash,T12,1657,,,-1,-1,,,,,1
5ee1cf1e0df8e55c6b9e1f1a,x81wu4nn2z,Ex2A_Prolific,1,76,2024-02-28T01:39:24+00:00,1.4492981433868,4,Stim_B.csv,Global.csv,Global,B,,,,,,0,Instruct,User,-,"You have completed this section and will now be asked to judge your ability to remember the list items you just studied. You will have four seconds to type your rating. Please click next to continue.",,Next_List1,1174,,,-1,-1,,,,,1
5ee1cf1e0df8e55c6b9e1f1a,x81wu4nn2z,Ex2A_Prolific,1,77,2024-02-28T01:39:29+00:00,5.3508048057556,4,Stim_B.csv,Global.csv,Global,B,,,,,,0,JOL_GLOBAL,5,5,"How likely are you to correctly recall each of the items you just studied?|Type your response on a scale from 0-100 and then press Enter (0 = WILL NOT REMEMBER; 100 = DEFINITELY WILL REMEMBER).",Related,JOL4,5002,,,1291,1501,,,,65,1
5ee1cf1e0df8e55c6b9e1f1a,x81wu4nn2z,Ex2A_Prolific,1,78,2024-02-28T01:39:31+00:00,1.4585280418396,4,Stim_B.csv,Global.csv,Global,B,,,,,,0,Instruct,User,-,"You have completed this section. Please click next.",,Instruct166,1158,,,-1,-1,,,,,1
5ee1cf1e0df8e55c6b9e1f1a,x81wu4nn2z,Ex2A_Prolific,1,79,2024-02-28T01:39:56+00:00,25.481055021286,4,Stim_B.csv,Global.csv,Global,B,,,,,,0,FreeRecall,30,1.25,"Please type as many words as you can that begin with the letter ""N"". The computer will automatically advance to the next screen in 30 seconds.",,FILLER,25135,,0,-1,-1,0,0,,,1
5ee1cf1e0df8e55c6b9e1f1a,x81wu4nn2z,Ex2A_Prolific,1,80,2024-02-28T01:40:01+00:00,4.8481681346893,4,Stim_B.csv,Global.csv,Global,B,,,,,,0,Instruct,User,4,"You have completed this section. Please click next.",,Instruct166,4554,,,-1,-1,,,,,1
5ee1cf1e0df8e55c6b9e1f1a,x81wu4nn2z,Ex2A_Prolific,1,81,2024-02-28T01:40:11+00:00,10.363420963287,4,Stim_B.csv,Global.csv,Global,B,,,,,,0,Instruct,User,4,"You will now complete a memory test for the words you just studied. Please type as many words from the previous list as you can seperated by a comma. Spelling will not count against you and you can recall the words in any order. This test will be timed for one minute, and the computer will automatically advance once time is up. Click next when you are ready to begin.",,Instruct1666,10031,,,-1,-1,,,,,1
5ee1cf1e0df8e55c6b9e1f1a,x81wu4nn2z,Ex2A_Prolific,1,82,2024-02-28T01:41:12+00:00,60.462929964066,4,Stim_B.csv,Global.csv,Global,B,,,,,,0,FreeRecall,60,60,"Please type as many words as you can from the previous study list in any order. Please separate each word with a comma. Spelling will not count against you. This screen will automatically advance in one minute.",,RECALL_Test,60179,"table, sit, sitting, swivel, couch, recliner, stool, bench, sofa",0,709,13184,0,0,,,0.956
5ee1cf1e0df8e55c6b9e1f1a,x81wu4nn2z,Ex2A_Prolific,1,83,2024-02-28T01:41:51+00:00,39.220346927643,4,Stim_B.csv,Global.csv,Global,B,,,,,,0,Instruct,User,3,"You will now be presented with a new study list. Click next when you are ready to begin.",,NEXT_LIST,38681,,,-1,-1,,,,,0.152
5ee1cf1e0df8e55c6b9e1f1a,x81wu4nn2z,Ex2A_Prolific,1,84,2024-02-28T01:41:53+00:00,2.1967270374298,4,Stim_B.csv,Global.csv,Global,B,climber,,D1,,,50,Study,User,1.25,,Doctor,D1,1897,,,-1,-1,,,,,1
5ee1cf1e0df8e55c6b9e1f1a,x81wu4nn2z,Ex2A_Prolific,1,85,2024-02-28T01:41:55+00:00,1.9563510417938,4,Stim_B.csv,Global.csv,Global,B,hill,,D2,,,51,Study,User,1.25,,Doctor,D2,1681,,,-1,-1,,,,,1
5ee1cf1e0df8e55c6b9e1f1a,x81wu4nn2z,Ex2A_Prolific,1,86,2024-02-28T01:41:59+00:00,3.8802609443665,4,Stim_B.csv,Global.csv,Global,B,climb,,D3,,,52,Study,User,1.25,,Doctor,D3,3605,,,-1,-1,,,,,1
5ee1cf1e0df8e55c6b9e1f1a,x81wu4nn2z,Ex2A_Prolific,1,87,2024-02-28T01:42:02+00:00,2.6544809341431,4,Stim_B.csv,Global.csv,Global,B,molehill,,D4,,,53,Study,User,1.25,,Doctor,D4,2375,,,-1,-1,,,,,1
5ee1cf1e0df8e55c6b9e1f1a,x81wu4nn2z,Ex2A_Prolific,1,88,2024-02-28T01:42:06+00:00,4.3321449756622,4,Stim_B.csv,Global.csv,Global,B,peak,,D5,,,54,Study,User,1.25,,Doctor,D5,4022,,,-1,-1,,,,,1
5ee1cf1e0df8e55c6b9e1f1a,x81wu4nn2z,Ex2A_Prolific,1,89,2024-02-28T01:42:09+00:00,2.6360111236572,4,Stim_B.csv,Global.csv,Global,B,valley,,D6,,,55,Study,User,1.25,,Doctor,D6,2368,,,-1,-1,,,,,1
5ee1cf1e0df8e55c6b9e1f1a,x81wu4nn2z,Ex2A_Prolific,1,90,2024-02-28T01:42:11+00:00,1.9982879161835,4,Stim_B.csv,Global.csv,Global,B,summit,,D7,,,56,Study,User,1.25,,Doctor,D7,1706,,,-1,-1,,,,,1
5ee1cf1e0df8e55c6b9e1f1a,x81wu4nn2z,Ex2A_Prolific,1,91,2024-02-28T01:42:13+00:00,2.1494040489197,4,Stim_B.csv,Global.csv,Global,B,steep,,D8,,,57,Study,User,1.25,,Doctor,D8,1879,,,-1,-1,,,,,1
5ee1cf1e0df8e55c6b9e1f1a,x81wu4nn2z,Ex2A_Prolific,1,92,2024-02-28T01:42:16+00:00,2.8711221218109,4,Stim_B.csv,Global.csv,Global,B,ski,,D9,,,58,Study,User,1.25,,Doctor,D9,2463,,,-1,-1,,,,,1
5ee1cf1e0df8e55c6b9e1f1a,x81wu4nn2z,Ex2A_Prolific,1,93,2024-02-28T01:42:18+00:00,2.6639559268951,4,Stim_B.csv,Global.csv,Global,B,bike,,D10,,,59,Study,User,1.25,,Doctor,D10,2150,,,-1,-1,,,,,1
5ee1cf1e0df8e55c6b9e1f1a,x81wu4nn2z,Ex2A_Prolific,1,94,2024-02-28T01:42:21+00:00,2.5842740535736,4,Stim_B.csv,Global.csv,Global,B,goat,,D11,,,60,Study,User,1.25,,Doctor,D11,2318,,,-1,-1,,,,,1
5ee1cf1e0df8e55c6b9e1f1a,x81wu4nn2z,Ex2A_Prolific,1,95,2024-02-28T01:42:23+00:00,2.2027518749237,4,Stim_B.csv,Global.csv,Global,B,glacier,,D12,,,61,Study,User,1.25,,Doctor,D12,1918,,,-1,-1,,,,,1
5ee1cf1e0df8e55c6b9e1f1a,x81wu4nn2z,Ex2A_Prolific,1,96,2024-02-28T01:42:25+00:00,1.7286620140076,4,Stim_B.csv,Global.csv,Global,B,,,,,,0,Instruct,User,-,"You have completed this section and will now be asked to judge your ability to remember the list items you just studied. You will have four seconds to type your rating. Please click next to continue.",,Next_List1,1456,,,-1,-1,,,,,1
5ee1cf1e0df8e55c6b9e1f1a,x81wu4nn2z,Ex2A_Prolific,1,97,2024-02-28T01:42:28+00:00,2.8713629245758,4,Stim_B.csv,Global.csv,Global,B,,,,,,0,JOL_GLOBAL,5,1.25,"How likely are you to correctly recall each of the items you just studied?|Type your response on a scale from 0-100 and then press Enter (0 = WILL NOT REMEMBER; 100 = DEFINITELY WILL REMEMBER).",Related,JOL5,2615,,,1297,1543,,,,40,1
5ee1cf1e0df8e55c6b9e1f1a,x81wu4nn2z,Ex2A_Prolific,1,98,2024-02-28T01:42:29+00:00,1.6192841529846,4,Stim_B.csv,Global.csv,Global,B,,,,,,0,Instruct,User,-,"You have completed this section. Please click next.",,Instruct166,1198,,,-1,-1,,,,,1
5ee1cf1e0df8e55c6b9e1f1a,x81wu4nn2z,Ex2A_Prolific,1,99,2024-02-28T01:43:00+00:00,30.275136947632,4,Stim_B.csv,Global.csv,Global,B,,,,,,0,FreeRecall,30,30,"Please type as many words as you can that begin with the letter ""T"". The computer will automatically advance to the next screen in 30 seconds.",,FILLER,30004,,0,1711,15270,0,0,,,1
5ee1cf1e0df8e55c6b9e1f1a,x81wu4nn2z,Ex2A_Prolific,1,100,2024-02-28T01:43:06+00:00,6.8427069187164,4,Stim_B.csv,Global.csv,Global,B,,,,,,0,Instruct,User,4,"You have completed this section. Please click next.",,Instruct166,6552,,,-1,-1,,,,,1
5ee1cf1e0df8e55c6b9e1f1a,x81wu4nn2z,Ex2A_Prolific,1,101,2024-02-28T01:43:12+00:00,5.7836351394653,4,Stim_B.csv,Global.csv,Global,B,,,,,,0,Instruct,User,4,"You will now complete a memory test for the words you just studied. Please type as many words from the previous list as you can seperated by a comma. Spelling will not count against you and you can recall the words in any order. This test will be timed for one minute, and the computer will automatically advance once time is up. Click next when you are ready to begin.",,Instruct1666,5442,,,-1,-1,,,,,1
5ee1cf1e0df8e55c6b9e1f1a,x81wu4nn2z,Ex2A_Prolific,1,102,2024-02-28T01:44:13+00:00,60.305057048798,4,Stim_B.csv,Global.csv,Global,B,,,,,,0,FreeRecall,60,60,"Please type as many words as you can from the previous study list in any order. Please separate each word with a comma. Spelling will not count against you. This screen will automatically advance in one minute.",,RECALL_Test,60002,"climber, hill, climb, ski, bike, peak ",0,-1,-1,0,0,,,1
5ee1cf1e0df8e55c6b9e1f1a,x81wu4nn2z,Ex2A_Prolific,1,103,2024-02-28T01:44:38+00:00,25.690608978271,4,Stim_B.csv,Global.csv,Global,B,,,,,,0,Instruct,User,3,"You will now be presented with a new study list. Click next when you are ready to begin.",,NEXT_LIST,25384,,,-1,-1,,,,,1
5ee1cf1e0df8e55c6b9e1f1a,x81wu4nn2z,Ex2A_Prolific,1,104,2024-02-28T01:44:49+00:00,11.29442191124,4,Stim_B.csv,Global.csv,Global,B,band,,S1,,,62,Study,User,1.25,,Slow,S1,10974,,,-1,-1,,,,,1
5ee1cf1e0df8e55c6b9e1f1a,x81wu4nn2z,Ex2A_Prolific,1,105,2024-02-28T01:44:52+00:00,2.3378620147705,4,Stim_B.csv,Global.csv,Global,B,concert,,S2,,,63,Study,User,1.25,,Slow,S2,2012,,,-1,-1,,,,,1
5ee1cf1e0df8e55c6b9e1f1a,x81wu4nn2z,Ex2A_Prolific,1,106,2024-02-28T01:44:55+00:00,3.4201309680939,4,Stim_B.csv,Global.csv,Global,B,jazz,,S3,,,64,Study,User,1.25,,Slow,S3,3057,,,-1,-1,,,,,1
5ee1cf1e0df8e55c6b9e1f1a,x81wu4nn2z,Ex2A_Prolific,1,107,2024-02-28T01:44:59+00:00,4.24489402771,4,Stim_B.csv,Global.csv,Global,B,symphony,,S4,,,65,Study,User,1.25,,Slow,S4,3926,,,-1,-1,,,,,1
5ee1cf1e0df8e55c6b9e1f1a,x81wu4nn2z,Ex2A_Prolific,1,108,2024-02-28T01:45:02+00:00,2.6334810256958,4,Stim_B.csv,Global.csv,Global,B,orchestra,,S5,,,66,Study,User,1.25,,Slow,S5,2344,,,-1,-1,,,,,1
5ee1cf1e0df8e55c6b9e1f1a,x81wu4nn2z,Ex2A_Prolific,1,109,2024-02-28T01:45:05+00:00,3.020250082016,4,Stim_B.csv,Global.csv,Global,B,rhythm,,S6,,,67,Study,User,1.25,,Slow,S6,2730,,,-1,-1,,,,,1
5ee1cf1e0df8e55c6b9e1f1a,x81wu4nn2z,Ex2A_Prolific,1,110,2024-02-28T01:45:09+00:00,3.5628378391266,4,Stim_B.csv,Global.csv,Global,B,radio,,S7,,,68,Study,User,1.25,,Slow,S7,3256,,,-1,-1,,,,,1
5ee1cf1e0df8e55c6b9e1f1a,x81wu4nn2z,Ex2A_Prolific,1,111,2024-02-28T01:45:11+00:00,2.0555510520935,4,Stim_B.csv,Global.csv,Global,B,melody,,S8,,,69,Study,User,1.25,,Slow,S8,1759,,,-1,-1,,,,,1
5ee1cf1e0df8e55c6b9e1f1a,x81wu4nn2z,Ex2A_Prolific,1,112,2024-02-28T01:45:14+00:00,3.4349970817566,4,Stim_B.csv,Global.csv,Global,B,piano,,S9,,,70,Study,User,1.25,,Slow,S9,3138,,,-1,-1,,,,,1
5ee1cf1e0df8e55c6b9e1f1a,x81wu4nn2z,Ex2A_Prolific,1,113,2024-02-28T01:45:17+00:00,2.355742931366,4,Stim_B.csv,Global.csv,Global,B,sound,,S10,,,71,Study,User,1.25,,Slow,S10,2066,,,-1,-1,,,,,1
5ee1cf1e0df8e55c6b9e1f1a,x81wu4nn2z,Ex2A_Prolific,1,114,2024-02-28T01:45:19+00:00,2.0597770214081,4,Stim_B.csv,Global.csv,Global,B,instrument,,S11,,,72,Study,User,1.25,,Slow,S11,1731,,,-1,-1,,,,,1
5ee1cf1e0df8e55c6b9e1f1a,x81wu4nn2z,Ex2A_Prolific,1,115,2024-02-28T01:45:22+00:00,3.2517020702362,4,Stim_B.csv,Global.csv,Global,B,note,,S12,,,73,Study,User,1.25,,Slow,S12,2780,,,-1,-1,,,,,1
5ee1cf1e0df8e55c6b9e1f1a,x81wu4nn2z,Ex2A_Prolific,1,116,2024-02-28T01:45:24+00:00,2.0549149513245,4,Stim_B.csv,Global.csv,Global,B,,,,,,0,Instruct,User,-,"You have completed this section and will now be asked to judge your ability to remember the list items you just studied. You will have four seconds to type your rating. Please click next to continue.",,Next_List1,1677,,,-1,-1,,,,,1
5ee1cf1e0df8e55c6b9e1f1a,x81wu4nn2z,Ex2A_Prolific,1,117,2024-02-28T01:45:29+00:00,5.4899978637695,4,Stim_B.csv,Global.csv,Global,B,,,,,,0,JOL_GLOBAL,5,5,"How likely are you to correctly recall each of the items you just studied?|Type your response on a scale from 0-100 and then press Enter (0 = WILL NOT REMEMBER; 100 = DEFINITELY WILL REMEMBER).",Related,JOL6,5001,,,2209,2365,,,,30,1
5ee1cf1e0df8e55c6b9e1f1a,x81wu4nn2z,Ex2A_Prolific,1,118,2024-02-28T01:45:35+00:00,5.1732850074768,4,Stim_B.csv,Global.csv,Global,B,,,,,,0,Instruct,User,4,"You have completed this section. Please click next.",,Instruct166,4599,,,-1,-1,,,,,1
5ee1cf1e0df8e55c6b9e1f1a,x81wu4nn2z,Ex2A_Prolific,1,119,2024-02-28T01:46:05+00:00,30.288549184799,4,Stim_B.csv,Global.csv,Global,B,,,,,,0,FreeRecall,30,30,"Please type as many words as you can that begin with the letter ""C"". The computer will automatically advance to the next screen in 30 seconds.",,FILLER,30003,,0,-1,-1,0,0,,,0.696
5ee1cf1e0df8e55c6b9e1f1a,x81wu4nn2z,Ex2A_Prolific,1,120,2024-02-28T01:46:11+00:00,6.4303679466248,4,Stim_B.csv,Global.csv,Global,B,,,,,,0,Instruct,User,4,"You have completed this section. Please click next.",,Instruct166,6128,,,-1,-1,,,,,1
5ee1cf1e0df8e55c6b9e1f1a,x81wu4nn2z,Ex2A_Prolific,1,121,2024-02-28T01:46:22+00:00,10.445849895477,4,Stim_B.csv,Global.csv,Global,B,,,,,,0,Instruct,User,4,"You will now complete a memory test for the words you just studied. Please type as many words from the previous list as you can seperated by a comma. Spelling will not count against you and you can recall the words in any order. This test will be timed for one minute, and the computer will automatically advance once time is up. Click next when you are ready to begin.",,Instruct1666,9674,,,-1,-1,,,,,1
5ee1cf1e0df8e55c6b9e1f1a,x81wu4nn2z,Ex2A_Prolific,1,122,2024-02-28T01:47:23+00:00,60.980845928192,4,Stim_B.csv,Global.csv,Global,B,,,,,,0,FreeRecall,60,60,"Please type as many words as you can from the previous study list in any order. Please separate each word with a comma. Spelling will not count against you. This screen will automatically advance in one minute.",,RECALL_Test,60565,"band, symphony, orchestra, radio, jazz",0,726,7767,0,0,,,0.801
5ee1cf1e0df8e55c6b9e1f1a,x81wu4nn2z,Ex2A_Prolific,1,123,2024-02-28T01:47:31+00:00,7.7751500606537,4,Stim_B.csv,Global.csv,Global,B,,,,,,0,Instruct,User,3,"You will now be presented with a new study list. Click next when you are ready to begin.",,NEXT_LIST,7414,,,-1,-1,,,,,0.467
5ee1cf1e0df8e55c6b9e1f1a,x81wu4nn2z,Ex2A_Prolific,1,124,2024-02-28T01:47:34+00:00,3.2939610481262,4,Stim_B.csv,Global.csv,Global,B,foam,,RR1,,,74,Study,User,1.25,,River,RR1,2814,,,-1,-1,,,,,1
5ee1cf1e0df8e55c6b9e1f1a,x81wu4nn2z,Ex2A_Prolific,1,125,2024-02-28T01:47:37+00:00,3.0184350013733,4,Stim_B.csv,Global.csv,Global,B,latex,,RR2,,,75,Study,User,1.25,,River,RR2,2728,,,-1,-1,,,,,1
5ee1cf1e0df8e55c6b9e1f1a,x81wu4nn2z,Ex2A_Prolific,1,126,2024-02-28T01:47:40+00:00,2.8329930305481,4,Stim_B.csv,Global.csv,Global,B,galoshes,,RR3,,,76,Study,User,1.25,,River,RR3,2517,,,-1,-1,,,,,1
5ee1cf1e0df8e55c6b9e1f1a,x81wu4nn2z,Ex2A_Prolific,1,127,2024-02-28T01:47:42+00:00,2.6668679714203,4,Stim_B.csv,Global.csv,Global,B,tire,,RR4,,,77,Study,User,1.25,,River,RR4,2382,,,-1,-1,,,,,1
5ee1cf1e0df8e55c6b9e1f1a,x81wu4nn2z,Ex2A_Prolific,1,128,2024-02-28T01:47:45+00:00,2.6354959011078,4,Stim_B.csv,Global.csv,Global,B,flexible,,RR5,,,78,Study,User,1.25,,River,RR5,2347,,,-1,-1,,,,,1
5ee1cf1e0df8e55c6b9e1f1a,x81wu4nn2z,Ex2A_Prolific,1,129,2024-02-28T01:47:48+00:00,2.8976430892944,4,Stim_B.csv,Global.csv,Global,B,elastic,,RR6,,,79,Study,User,1.25,,River,RR6,2615,,,-1,-1,,,,,1
5ee1cf1e0df8e55c6b9e1f1a,x81wu4nn2z,Ex2A_Prolific,1,130,2024-02-28T01:47:51+00:00,3.3349769115448,4,Stim_B.csv,Global.csv,Global,B,gloves,,RR7,,,80,Study,User,1.25,,River,RR7,3046,,,-1,-1,,,,,1
5ee1cf1e0df8e55c6b9e1f1a,x81wu4nn2z,Ex2A_Prolific,1,131,2024-02-28T01:47:54+00:00,2.6079831123352,4,Stim_B.csv,Global.csv,Global,B,eraser,,RR8,,,81,Study,User,1.25,,River,RR8,2304,,,-1,-1,,,,,1
5ee1cf1e0df8e55c6b9e1f1a,x81wu4nn2z,Ex2A_Prolific,1,132,2024-02-28T01:47:56+00:00,2.4233460426331,4,Stim_B.csv,Global.csv,Global,B,bounce,,RR9,,,82,Study,User,1.25,,River,RR9,2076,,,-1,-1,,,,,1
5ee1cf1e0df8e55c6b9e1f1a,x81wu4nn2z,Ex2A_Prolific,1,133,2024-02-28T01:47:58+00:00,2.01939702034,4,Stim_B.csv,Global.csv,Global,B,ball,,RR10,,,83,Study,User,1.25,,River,RR10,1733,,,-1,-1,,,,,1
5ee1cf1e0df8e55c6b9e1f1a,x81wu4nn2z,Ex2A_Prolific,1,134,2024-02-28T01:48:00+00:00,2.0510568618774,4,Stim_B.csv,Global.csv,Global,B,soles,,RR11,,,84,Study,User,1.25,,River,RR11,1768,,,-1,-1,,,,,1
5ee1cf1e0df8e55c6b9e1f1a,x81wu4nn2z,Ex2A_Prolific,1,135,2024-02-28T01:48:02+00:00,2.0854380130768,4,Stim_B.csv,Global.csv,Global,B,springy,,RR12,,,85,Study,User,1.25,,River,RR12,1814,,,-1,-1,,,,,1
5ee1cf1e0df8e55c6b9e1f1a,x81wu4nn2z,Ex2A_Prolific,1,136,2024-02-28T01:48:04+00:00,1.5250401496887,4,Stim_B.csv,Global.csv,Global,B,,,,,,0,Instruct,User,-,"You have completed this section and will now be asked to judge your ability to remember the list items you just studied. You will have four seconds to type your rating. Please click next to continue.",,Next_List1,1207,,,-1,-1,,,,,1
5ee1cf1e0df8e55c6b9e1f1a,x81wu4nn2z,Ex2A_Prolific,1,137,2024-02-28T01:48:09+00:00,5.3885989189148,4,Stim_B.csv,Global.csv,Global,B,,,,,,0,JOL_GLOBAL,5,5,"How likely are you to correctly recall each of the items you just studied?|Type your response on a scale from 0-100 and then press Enter (0 = WILL NOT REMEMBER; 100 = DEFINITELY WILL REMEMBER).",Related,JOL7,5004,,,1395,1597,,,,40,1
5ee1cf1e0df8e55c6b9e1f1a,x81wu4nn2z,Ex2A_Prolific,1,138,2024-02-28T01:48:12+00:00,2.5333108901978,4,Stim_B.csv,Global.csv,Global,B,,,,,,0,Instruct,User,1.25,"You have completed this section. Please click next.",,Instruct166,2268,,,-1,-1,,,,,1
5ee1cf1e0df8e55c6b9e1f1a,x81wu4nn2z,Ex2A_Prolific,1,139,2024-02-28T01:48:42+00:00,30.347321987152,4,Stim_B.csv,Global.csv,Global,B,,,,,,0,FreeRecall,30,30,"Please type as many words as you can that begin with the letter ""K"". The computer will automatically advance to the next screen in 30 seconds.",,FILLER,30003,,0,-1,-1,0,0,,,1
5ee1cf1e0df8e55c6b9e1f1a,x81wu4nn2z,Ex2A_Prolific,1,140,2024-02-28T01:49:13+00:00,31.291254043579,4,Stim_B.csv,Global.csv,Global,B,,,,,,0,Instruct,User,4,"You have completed this section. Please click next.",,Instruct166,31005,,,-1,-1,,,,,0.383
5ee1cf1e0df8e55c6b9e1f1a,x81wu4nn2z,Ex2A_Prolific,1,141,2024-02-28T01:49:18+00:00,5.0330460071564,4,Stim_B.csv,Global.csv,Global,B,,,,,,0,Instruct,User,4,"You will now complete a memory test for the words you just studied. Please type as many words from the previous list as you can seperated by a comma. Spelling will not count against you and you can recall the words in any order. This test will be timed for one minute, and the computer will automatically advance once time is up. Click next when you are ready to begin.",,Instruct1666,4647,,,-1,-1,,,,,1
5ee1cf1e0df8e55c6b9e1f1a,x81wu4nn2z,Ex2A_Prolific,1,142,2024-02-28T01:50:20+00:00,61.256570100784,4,Stim_B.csv,Global.csv,Global,B,,,,,,0,FreeRecall,60,60,"Please type as many words as you can from the previous study list in any order. Please separate each word with a comma. Spelling will not count against you. This screen will automatically advance in one minute.",,RECALL_Test,60933,"foam, latex, galoshes, springy, ball, gloves, soles",0,1354,12240,0,0,,,0.99
5ee1cf1e0df8e55c6b9e1f1a,x81wu4nn2z,Ex2A_Prolific,1,143,2024-02-28T01:50:26+00:00,6.123507976532,4,Stim_B.csv,Global.csv,Global,B,,,,,,0,Instruct,User,3,"You will now be presented with a new study list. Click next when you are ready to begin.",,NEXT_LIST,5762,,,-1,-1,,,,,0.538
5ee1cf1e0df8e55c6b9e1f1a,x81wu4nn2z,Ex2A_Prolific,1,144,2024-02-28T01:50:29+00:00,3.1971290111542,4,Stim_B.csv,Global.csv,Global,B,toe,,B1,,,86,Study,User,1.25,,Bread,B1,2900,,,-1,-1,,,,,1
5ee1cf1e0df8e55c6b9e1f1a,x81wu4nn2z,Ex2A_Prolific,1,145,2024-02-28T01:50:32+00:00,2.7063310146332,4,Stim_B.csv,Global.csv,Global,B,inch,,B2,,,87,Study,User,1.25,,Bread,B2,2345,,,-1,-1,,,,,1
5ee1cf1e0df8e55c6b9e1f1a,x81wu4nn2z,Ex2A_Prolific,1,146,2024-02-28T01:50:35+00:00,3.4653880596161,4,Stim_B.csv,Global.csv,Global,B,ankle,,B3,,,88,Study,User,1.25,,Bread,B3,3193,,,-1,-1,,,,,1
5ee1cf1e0df8e55c6b9e1f1a,x81wu4nn2z,Ex2A_Prolific,1,147,2024-02-28T01:50:38+00:00,3.000599861145,4,Stim_B.csv,Global.csv,Global,B,shoe,,B4,,,89,Study,User,1.25,,Bread,B4,2581,,,-1,-1,,,,,1
5ee1cf1e0df8e55c6b9e1f1a,x81wu4nn2z,Ex2A_Prolific,1,148,2024-02-28T01:50:41+00:00,2.5394661426544,4,Stim_B.csv,Global.csv,Global,B,sandals,,B5,,,90,Study,User,1.25,,Bread,B5,1992,,,-1,-1,,,,,1
5ee1cf1e0df8e55c6b9e1f1a,x81wu4nn2z,Ex2A_Prolific,1,149,2024-02-28T01:50:45+00:00,3.943972826004,4,Stim_B.csv,Global.csv,Global,B,sock,,B6,,,91,Study,User,1.25,,Bread,B6,3680,,,-1,-1,,,,,1
5ee1cf1e0df8e55c6b9e1f1a,x81wu4nn2z,Ex2A_Prolific,1,150,2024-02-28T01:50:48+00:00,3.0193259716034,4,Stim_B.csv,Global.csv,Global,B,hand,,B7,,,92,Study,User,1.25,,Bread,B7,2723,,,-1,-1,,,,,1
5ee1cf1e0df8e55c6b9e1f1a,x81wu4nn2z,Ex2A_Prolific,1,151,2024-02-28T01:50:50+00:00,2.7270259857178,4,Stim_B.csv,Global.csv,Global,B,boot,,B8,,,93,Study,User,1.25,,Bread,B8,2453,,,-1,-1,,,,,1
5ee1cf1e0df8e55c6b9e1f1a,x81wu4nn2z,Ex2A_Prolific,1,152,2024-02-28T01:50:53+00:00,2.3561861515045,4,Stim_B.csv,Global.csv,Global,B,yard,,B9,,,94,Study,User,1.25,,Bread,B9,2064,,,-1,-1,,,,,1
5ee1cf1e0df8e55c6b9e1f1a,x81wu4nn2z,Ex2A_Prolific,1,153,2024-02-28T01:50:55+00:00,2.1752669811249,4,Stim_B.csv,Global.csv,Global,B,kick,,B10,,,95,Study,User,1.25,,Bread,B10,1883,,,-1,-1,,,,,1
5ee1cf1e0df8e55c6b9e1f1a,x81wu4nn2z,Ex2A_Prolific,1,154,2024-02-28T01:50:59+00:00,4.0632028579712,4,Stim_B.csv,Global.csv,Global,B,knee,,B11,,,96,Study,User,1.25,,Bread,B11,3772,,,-1,-1,,,,,1
5ee1cf1e0df8e55c6b9e1f1a,x81wu4nn2z,Ex2A_Prolific,1,155,2024-02-28T01:51:07+00:00,7.5071589946747,4,Stim_B.csv,Global.csv,Global,B,walk,,B12,,,97,Study,User,1.25,,Bread,B12,7213,,,-1,-1,,,,,0.571
5ee1cf1e0df8e55c6b9e1f1a,x81wu4nn2z,Ex2A_Prolific,1,156,2024-02-28T01:51:43+00:00,35.930380105972,4,Stim_B.csv,Global.csv,Global,B,,,,,,0,Instruct,User,-,"You have completed this section and will now be asked to judge your ability to remember the list items you just studied. You will have four seconds to type your rating. Please click next to continue.",,Next_List1,35499,,,-1,-1,,,,,0.277
5ee1cf1e0df8e55c6b9e1f1a,x81wu4nn2z,Ex2A_Prolific,1,157,2024-02-28T01:51:48+00:00,5.5759990215302,4,Stim_B.csv,Global.csv,Global,B,,,,,,0,JOL_GLOBAL,5,5,"How likely are you to correctly recall each of the items you just studied?|Type your response on a scale from 0-100 and then press Enter (0 = WILL NOT REMEMBER; 100 = DEFINITELY WILL REMEMBER).",Related,JOL8,5002,,,865,1048,,,,20,1
5ee1cf1e0df8e55c6b9e1f1a,x81wu4nn2z,Ex2A_Prolific,1,158,2024-02-28T01:51:50+00:00,1.7860200405121,4,Stim_B.csv,Global.csv,Global,B,,,,,,0,Instruct,User,-,"You have completed this section. Please click next.",,Instruct166,1322,,,-1,-1,,,,,1
5ee1cf1e0df8e55c6b9e1f1a,x81wu4nn2z,Ex2A_Prolific,1,159,2024-02-28T01:52:20+00:00,30.571858882904,4,Stim_B.csv,Global.csv,Global,B,,,,,,0,FreeRecall,30,30,"Please type as many words as you can that begin with the letter ""M"". The computer will automatically advance to the next screen in 30 seconds.",,FILLER,30003,,0,-1,-1,0,0,,,0.067
5ee1cf1e0df8e55c6b9e1f1a,x81wu4nn2z,Ex2A_Prolific,1,160,2024-02-28T01:52:44+00:00,23.355738162994,4,Stim_B.csv,Global.csv,Global,B,,,,,,0,Instruct,User,-,"You have completed this section. Please click next.",,Instruct166,22903,,,-1,-1,,,,,0.409
5ee1cf1e0df8e55c6b9e1f1a,x81wu4nn2z,Ex2A_Prolific,1,161,2024-02-28T01:53:04+00:00,19.885244846344,4,Stim_B.csv,Global.csv,Global,B,,,,,,0,Instruct,User,4,"You will now complete a memory test for the words you just studied. Please type as many words from the previous list as you can seperated by a comma. Spelling will not count against you and you can recall the words in any order. This test will be timed for one minute, and the computer will automatically advance once time is up. Click next when you are ready to begin.",,Instruct1666,19555,,,-1,-1,,,,,0.541
5ee1cf1e0df8e55c6b9e1f1a,x81wu4nn2z,Ex2A_Prolific,1,162,2024-02-28T01:54:04+00:00,60.320219993591,4,Stim_B.csv,Global.csv,Global,B,,,,,,0,FreeRecall,60,60,"Please type as many words as you can from the previous study list in any order. Please separate each word with a comma. Spelling will not count against you. This screen will automatically advance in one minute.",,RECALL_Test,60003,"kick, knee, toe, ankle",0,1437,9574,0,0,,,1
5ee1cf1e0df8e55c6b9e1f1a,x81wu4nn2z,Ex2A_Prolific,1,163,2024-02-28T01:54:09+00:00,5.3307061195374,4,Stim_B.csv,Global.csv,Global,B,,,,,,0,Instruct,User,3,"You will now be presented with a new study list. Click next when you are ready to begin.",,NEXT_LIST,4939,,,-1,-1,,,,,1
5ee1cf1e0df8e55c6b9e1f1a,x81wu4nn2z,Ex2A_Prolific,1,164,2024-02-28T01:54:36+00:00,26.526160001755,4,Stim_B.csv,Global.csv,Global,B,boy,,F1,,,98,Study,User,1.25,,Flag,F1,26243,,,-1,-1,,,,,0.235
5ee1cf1e0df8e55c6b9e1f1a,x81wu4nn2z,Ex2A_Prolific,1,165,2024-02-28T01:54:38+00:00,2.5974318981171,4,Stim_B.csv,Global.csv,Global,B,dolls,,F2,,,99,Study,User,1.25,,Flag,F2,2244,,,-1,-1,,,,,1
5ee1cf1e0df8e55c6b9e1f1a,x81wu4nn2z,Ex2A_Prolific,1,166,2024-02-28T01:54:41+00:00,2.8174710273743,4,Stim_B.csv,Global.csv,Global,B,pretty,,F3,,,100,Study,User,1.25,,Flag,F3,2454,,,-1,-1,,,,,1
5ee1cf1e0df8e55c6b9e1f1a,x81wu4nn2z,Ex2A_Prolific,1,167,2024-02-28T01:54:44+00:00,2.3666920661926,4,Stim_B.csv,Global.csv,Global,B,female,,F4,,,101,Study,User,1.25,,Flag,F4,2034,,,-1,-1,,,,,1
5ee1cf1e0df8e55c6b9e1f1a,x81wu4nn2z,Ex2A_Prolific,1,168,2024-02-28T01:54:46+00:00,2.7624108791351,4,Stim_B.csv,Global.csv,Global,B,dress,,F5,,,102,Study,User,1.25,,Flag,F5,2443,,,-1,-1,,,,,1
5ee1cf1e0df8e55c6b9e1f1a,x81wu4nn2z,Ex2A_Prolific,1,169,2024-02-28T01:54:49+00:00,2.8842761516571,4,Stim_B.csv,Global.csv,Global,B,date,,F6,,,103,Study,User,1.25,,Flag,F6,2535,,,-1,-1,,,,,1
5ee1cf1e0df8e55c6b9e1f1a,x81wu4nn2z,Ex2A_Prolific,1,170,2024-02-28T01:54:54+00:00,4.2351369857788,4,Stim_B.csv,Global.csv,Global,B,beautiful,,F7,,,104,Study,User,1.25,,Flag,F7,3664,,,-1,-1,,,,,1
5ee1cf1e0df8e55c6b9e1f1a,x81wu4nn2z,Ex2A_Prolific,1,171,2024-02-28T01:54:59+00:00,5.2780818939209,4,Stim_B.csv,Global.csv,Global,B,daughter,,F8,,,105,Study,User,1.25,,Flag,F8,4913,,,-1,-1,,,,,1
5ee1cf1e0df8e55c6b9e1f1a,x81wu4nn2z,Ex2A_Prolific,1,172,2024-02-28T01:55:03+00:00,4.5518000125885,4,Stim_B.csv,Global.csv,Global,B,sister,,F9,,,106,Study,User,1.25,,Flag,F9,4222,,,-1,-1,,,,,1
5ee1cf1e0df8e55c6b9e1f1a,x81wu4nn2z,Ex2A_Prolific,1,173,2024-02-28T01:55:06+00:00,2.9628260135651,4,Stim_B.csv,Global.csv,Global,B,cute,,F10,,,107,Study,User,1.25,,Flag,F10,2654,,,-1,-1,,,,,1
5ee1cf1e0df8e55c6b9e1f1a,x81wu4nn2z,Ex2A_Prolific,1,174,2024-02-28T01:55:10+00:00,3.3167021274567,4,Stim_B.csv,Global.csv,Global,B,niece,,F11,,,108,Study,User,1.25,,Flag,F11,3034,,,-1,-1,,,,,1
5ee1cf1e0df8e55c6b9e1f1a,x81wu4nn2z,Ex2A_Prolific,1,175,2024-02-28T01:55:12+00:00,2.8506758213043,4,Stim_B.csv,Global.csv,Global,B,young,,F12,,,109,Study,User,1.25,,Flag,F12,2493,,,-1,-1,,,,,1
5ee1cf1e0df8e55c6b9e1f1a,x81wu4nn2z,Ex2A_Prolific,1,176,2024-02-28T01:55:14+00:00,1.6482970714569,4,Stim_B.csv,Global.csv,Global,B,,,,,,0,Instruct,User,-,"You have completed this section and will now be asked to judge your ability to remember the list items you just studied. You will have four seconds to type your rating. Please click next to continue.",,Next_List1,1306,,,-1,-1,,,,,1
5ee1cf1e0df8e55c6b9e1f1a,x81wu4nn2z,Ex2A_Prolific,1,177,2024-02-28T01:55:20+00:00,5.6326830387115,4,Stim_B.csv,Global.csv,Global,B,,,,,,0,JOL_GLOBAL,5,5,"How likely are you to correctly recall each of the items you just studied?|Type your response on a scale from 0-100 and then press Enter (0 = WILL NOT REMEMBER; 100 = DEFINITELY WILL REMEMBER).",Related,JOL9,5003,,,1140,1513,,,,30,1
5ee1cf1e0df8e55c6b9e1f1a,x81wu4nn2z,Ex2A_Prolific,1,178,2024-02-28T01:55:22+00:00,2.044949054718,4,Stim_B.csv,Global.csv,Global,B,,,,,,0,Instruct,User,-,"You have completed this section. Please click next.",,Instruct166,1720,,,-1,-1,,,,,1
5ee1cf1e0df8e55c6b9e1f1a,x81wu4nn2z,Ex2A_Prolific,1,179,2024-02-28T01:55:52+00:00,30.358397006989,4,Stim_B.csv,Global.csv,Global,B,,,,,,0,FreeRecall,30,30,"Please type as many words as you can that begin with the letter ""R"". The computer will automatically advance to the next screen in 30 seconds.",,FILLER,30002,,0,-1,-1,0,0,,,1
5ee1cf1e0df8e55c6b9e1f1a,x81wu4nn2z,Ex2A_Prolific,1,180,2024-02-28T01:55:54+00:00,1.4649789333344,4,Stim_B.csv,Global.csv,Global,B,,,,,,0,Instruct,User,-,"You have completed this section. Please click next.",,Instruct166,1120,,,-1,-1,,,,,1
5ee1cf1e0df8e55c6b9e1f1a,x81wu4nn2z,Ex2A_Prolific,1,181,2024-02-28T01:56:00+00:00,6.4229319095612,4,Stim_B.csv,Global.csv,Global,B,,,,,,0,Instruct,User,4,"You will now complete a memory test for the words you just studied. Please type as many words from the previous list as you can seperated by a comma. Spelling will not count against you and you can recall the words in any order. This test will be timed for one minute, and the computer will automatically advance once time is up. Click next when you are ready to begin.",,Instruct1666,5811,,,-1,-1,,,,,1
5ee1cf1e0df8e55c6b9e1f1a,x81wu4nn2z,Ex2A_Prolific,1,182,2024-02-28T01:56:59+00:00,58.541002988815,4,Stim_B.csv,Global.csv,Global,B,,,,,,0,FreeRecall,60,1.25,"Please type as many words as you can from the previous study list in any order. Please separate each word with a comma. Spelling will not count against you. This screen will automatically advance in one minute.",,RECALL_Test,58104,"niece, young, boy, beautiful",0,860,6794,0,0,,,0.717
5ee1cf1e0df8e55c6b9e1f1a,x81wu4nn2z,Ex2A_Prolific,1,183,2024-02-28T01:57:05+00:00,6.7362940311432,4,Stim_B.csv,Global.csv,Global,B,,,,,,0,Instruct,User,1.25,"You will now be presented with a new study list. Click next when you are ready to begin.",,NEXT_LIST,5918,,,-1,-1,,,,,1
5ee1cf1e0df8e55c6b9e1f1a,x81wu4nn2z,Ex2A_Prolific,1,184,2024-02-28T01:57:09+00:00,4.1158230304718,4,Stim_B.csv,Global.csv,Global,B,white,,SS1,,,110,Study,User,1.25,,Shirt,SS1,3796,,,-1,-1,,,,,1
5ee1cf1e0df8e55c6b9e1f1a,x81wu4nn2z,Ex2A_Prolific,1,185,2024-02-28T01:57:12+00:00,2.2623000144958,4,Stim_B.csv,Global.csv,Global,B,gray,,SS2,,,111,Study,User,1.25,,Shirt,SS2,1979,,,-1,-1,,,,,1
5ee1cf1e0df8e55c6b9e1f1a,x81wu4nn2z,Ex2A_Prolific,1,186,2024-02-28T01:57:14+00:00,2.3974320888519,4,Stim_B.csv,Global.csv,Global,B,brown,,SS3,,,112,Study,User,1.25,,Shirt,SS3,2111,,,-1,-1,,,,,1
5ee1cf1e0df8e55c6b9e1f1a,x81wu4nn2z,Ex2A_Prolific,1,187,2024-02-28T01:57:19+00:00,4.769523859024,4,Stim_B.csv,Global.csv,Global,B,coal,,SS4,,,113,Study,User,1.25,,Shirt,SS4,4459,,,-1,-1,,,,,1
5ee1cf1e0df8e55c6b9e1f1a,x81wu4nn2z,Ex2A_Prolific,1,188,2024-02-28T01:57:22+00:00,2.6325080394745,4,Stim_B.csv,Global.csv,Global,B,dark,,SS5,,,114,Study,User,1.25,,Shirt,SS5,2315,,,-1,-1,,,,,1
5ee1cf1e0df8e55c6b9e1f1a,x81wu4nn2z,Ex2A_Prolific,1,189,2024-02-28T01:57:24+00:00,2.9018039703369,4,Stim_B.csv,Global.csv,Global,B,color,,SS6,,,115,Study,User,1.25,,Shirt,SS6,2463,,,-1,-1,,,,,1
5ee1cf1e0df8e55c6b9e1f1a,x81wu4nn2z,Ex2A_Prolific,1,190,2024-02-28T01:57:27+00:00,2.934947013855,4,Stim_B.csv,Global.csv,Global,B,funeral,,SS7,,,116,Study,User,1.25,,Shirt,SS7,2603,,,-1,-1,,,,,1
5ee1cf1e0df8e55c6b9e1f1a,x81wu4nn2z,Ex2A_Prolific,1,191,2024-02-28T01:57:30+00:00,2.3528459072113,4,Stim_B.csv,Global.csv,Global,B,blue,,SS8,,,117,Study,User,1.25,,Shirt,SS8,2017,,,-1,-1,,,,,1
5ee1cf1e0df8e55c6b9e1f1a,x81wu4nn2z,Ex2A_Prolific,1,192,2024-02-28T01:57:32+00:00,2.1827561855316,4,Stim_B.csv,Global.csv,Global,B,charred,,SS9,,,118,Study,User,1.25,,Shirt,SS9,1905,,,-1,-1,,,,,1
5ee1cf1e0df8e55c6b9e1f1a,x81wu4nn2z,Ex2A_Prolific,1,193,2024-02-28T01:57:34+00:00,2.331839799881,4,Stim_B.csv,Global.csv,Global,B,ink,,SS10,,,119,Study,User,1.25,,Shirt,SS10,2030,,,-1,-1,,,,,1
5ee1cf1e0df8e55c6b9e1f1a,x81wu4nn2z,Ex2A_Prolific,1,194,2024-02-28T01:57:38+00:00,4.1777310371399,4,Stim_B.csv,Global.csv,Global,B,death,,SS11,,,120,Study,User,1.25,,Shirt,SS11,3872,,,-1,-1,,,,,1
5ee1cf1e0df8e55c6b9e1f1a,x81wu4nn2z,Ex2A_Prolific,1,195,2024-02-28T01:57:41+00:00,2.7618741989136,4,Stim_B.csv,Global.csv,Global,B,cat,,SS12,,,121,Study,User,1.25,,Shirt,SS12,2438,,,-1,-1,,,,,1
5ee1cf1e0df8e55c6b9e1f1a,x81wu4nn2z,Ex2A_Prolific,1,196,2024-02-28T01:57:43+00:00,1.6686909198761,4,Stim_B.csv,Global.csv,Global,B,,,,,,0,Instruct,User,-,"You have completed this section and will now be asked to judge your ability to remember the list items you just studied. You will have four seconds to type your rating. Please click next to continue.",,Next_List1,1329,,,-1,-1,,,,,1
5ee1cf1e0df8e55c6b9e1f1a,x81wu4nn2z,Ex2A_Prolific,1,197,2024-02-28T01:57:48+00:00,5.2923679351807,4,Stim_B.csv,Global.csv,Global,B,,,,,,0,JOL_GLOBAL,5,5,"How likely are you to correctly recall each of the items you just studied?|Type your response on a scale from 0-100 and then press Enter (0 = WILL NOT REMEMBER; 100 = DEFINITELY WILL REMEMBER).",Related,JOL10,5003,,,1741,1910,,,,30,1
5ee1cf1e0df8e55c6b9e1f1a,x81wu4nn2z,Ex2A_Prolific,1,198,2024-02-28T01:57:51+00:00,2.5884139537811,4,Stim_B.csv,Global.csv,Global,B,,,,,,0,Instruct,User,-,"You have completed this section. Please click next.",,Instruct166,2175,,,-1,-1,,,,,1
5ee1cf1e0df8e55c6b9e1f1a,x81wu4nn2z,Ex2A_Prolific,1,199,2024-02-28T01:58:21+00:00,30.34623503685,4,Stim_B.csv,Global.csv,Global,B,,,,,,0,FreeRecall,30,30,"Please type as many words as you can that begin with the letter ""S"". The computer will automatically advance to the next screen in 30 seconds.",,FILLER,30002,"color, dark, grey, funeral, white, ",0,1153,9533,0,0,,,1
5ee1cf1e0df8e55c6b9e1f1a,x81wu4nn2z,Ex2A_Prolific,1,200,2024-02-28T01:58:36+00:00,14.619795084,4,Stim_B.csv,Global.csv,Global,B,,,,,,0,Instruct,User,4,"You have completed this section. Please click next.",,Instruct166,14277,,,-1,-1,,,,,1
5ee1cf1e0df8e55c6b9e1f1a,x81wu4nn2z,Ex2A_Prolific,1,201,2024-02-28T01:58:41+00:00,4.9994969367981,4,Stim_B.csv,Global.csv,Global,B,,,,,,0,Instruct,User,4,"You will now complete a memory test for the words you just studied. Please type as many words from the previous list as you can seperated by a comma. Spelling will not count against you and you can recall the words in any order. This test will be timed for one minute, and the computer will automatically advance once time is up. Click next when you are ready to begin.",,Instruct1666,4683,,,-1,-1,,,,,1
5ee1cf1e0df8e55c6b9e1f1a,x81wu4nn2z,Ex2A_Prolific,1,202,2024-02-28T01:59:41+00:00,60.311805009842,4,Stim_B.csv,Global.csv,Global,B,,,,,,0,FreeRecall,60,60,"Please type as many words as you can from the previous study list in any order. Please separate each word with a comma. Spelling will not count against you. This screen will automatically advance in one minute.",,RECALL_Test,60001,"grey, funeral, white, color, dark",0,4717,10710,0,0,,,0.777
5ee1cf1e0df8e55c6b9e1f1a,x81wu4nn2z,Ex2A_Prolific,1,203,2024-02-28T01:59:44+00:00,2.6993629932404,4,Stim_B.csv,Global.csv,Global,B,,,,,,0,Instruct,User,-,"You have completed this section. Please click next.",,Instruct7,2298,,,-1,-1,,,,,1
5ee1cf1e0df8e55c6b9e1f1a,x81wu4nn2z,Ex2A_Prolific,1,204,2024-02-28T01:59:47+00:00,3.1922791004181,4,Stim_B.csv,Global.csv,Global,B,,,,,,0,Instruct,User,-,"The following screen will ask you a few questions abour your experience today. You must complete these questions to receive credit.",,Instruct8,2833,,,-1,-1,,,,,1
