Username,ID,ExperimentName,Session,Trial,Date,TimeDif,"Condition Number","Stimuli File","Order File","Condition Description","Condition Notes",Stimuli*Cue,Stimuli*Answer,Stimuli*Shuffle,"Stimuli*Stimuli Notes",Stimuli*Value,Procedure*Item,"Procedure*Trial Type","Procedure*Max Time","Procedure*Min Time",Procedure*Text,"Procedure*Procedure Notes",Procedure*Shuffle,Response*RT,Response*Response,Response*Accuracy,Response*RTfirst,Response*RTlast,Response*strictAcc,Response*lenientAcc,Response*focus,Response*JOL,Response*Focus
65aa8b1b46af6e5c652bb438,rpwiv645ah,Ex2A_Prolific,1,1,2024-03-01T19:52:30+00:00,10.682806015015,3,Stim_A.csv,Global.csv,Global,A,,,,,,0,Instruct,-,5,"In this section, you will be presented with a series of words. Please study each word carefully. Your memory will be tested!",Initial_Instruct,Instruct1,10414,,,-1,-1,,,,,1
65aa8b1b46af6e5c652bb438,rpwiv645ah,Ex2A_Prolific,1,2,2024-03-01T19:52:43+00:00,13.243182897568,3,Stim_A.csv,Global.csv,Global,A,,,,,,0,Instruct,User,5,"After studying each LIST of words, you will be asked to rate your ability to remember ALL of the words in the list on a later test. You will make these ratings using a scale of 0 to 100. A rating of 0 = WILL NOT REMEMBER, while a rating of 100 = WILL DEFINITELY REMEMBER. Please try to be as accurate as possible with these ratings!",,BLIPBLOOP,12742,,,-1,-1,,,,,1
65aa8b1b46af6e5c652bb438,rpwiv645ah,Ex2A_Prolific,1,3,2024-03-01T19:52:46+00:00,3.0134592056274,3,Stim_A.csv,Global.csv,Global,A,,,,,,0,Instruct,User,1.25,"You will now begin the study. Click next when you are ready to begin.",,Instruct16,2545,,,-1,-1,,,,,1
65aa8b1b46af6e5c652bb438,rpwiv645ah,Ex2A_Prolific,1,4,2024-03-01T19:52:50+00:00,3.6801037788391,3,Stim_A.csv,Global.csv,Global,A,pane,,Win_1,,,2,Study,User,1.25,,Window,Win_1,3156,,,-1,-1,,,,,1
65aa8b1b46af6e5c652bb438,rpwiv645ah,Ex2A_Prolific,1,5,2024-03-01T19:52:52+00:00,2.0514531135559,3,Stim_A.csv,Global.csv,Global,A,sill,,Win_2,,,3,Study,User,1.25,,Window,Win_2,1524,,,-1,-1,,,,,1
65aa8b1b46af6e5c652bb438,rpwiv645ah,Ex2A_Prolific,1,6,2024-03-01T19:52:54+00:00,2.3410229682922,3,Stim_A.csv,Global.csv,Global,A,shutter,,Win_3,,,4,Study,User,1.25,,Window,Win_3,1940,,,-1,-1,,,,,1
65aa8b1b46af6e5c652bb438,rpwiv645ah,Ex2A_Prolific,1,7,2024-03-01T19:52:57+00:00,2.5668859481812,3,Stim_A.csv,Global.csv,Global,A,curtain,,Win_4,,,5,Study,User,1.25,,Window,Win_4,1848,,,-1,-1,,,,,1
65aa8b1b46af6e5c652bb438,rpwiv645ah,Ex2A_Prolific,1,8,2024-03-01T19:52:59+00:00,2.2062520980835,3,Stim_A.csv,Global.csv,Global,A,door,,Win_5,,,6,Study,User,1.25,,Window,Win_5,1809,,,-1,-1,,,,,1
65aa8b1b46af6e5c652bb438,rpwiv645ah,Ex2A_Prolific,1,9,2024-03-01T19:53:02+00:00,2.3343498706818,3,Stim_A.csv,Global.csv,Global,A,ledge,,Win_6,,,7,Study,User,1.25,,Window,Win_6,1849,,,-1,-1,,,,,1
65aa8b1b46af6e5c652bb438,rpwiv645ah,Ex2A_Prolific,1,10,2024-03-01T19:53:04+00:00,2.2466561794281,3,Stim_A.csv,Global.csv,Global,A,glass,,Win_7,,,8,Study,User,1.25,,Window,Win_7,1753,,,-1,-1,,,,,1
65aa8b1b46af6e5c652bb438,rpwiv645ah,Ex2A_Prolific,1,11,2024-03-01T19:53:06+00:00,2.220351934433,3,Stim_A.csv,Global.csv,Global,A,view,,Win_8,,,9,Study,User,1.25,,Window,Win_8,1730,,,-1,-1,,,,,1
65aa8b1b46af6e5c652bb438,rpwiv645ah,Ex2A_Prolific,1,12,2024-03-01T19:53:08+00:00,2.1490459442139,3,Stim_A.csv,Global.csv,Global,A,screen,,Win_9,,,10,Study,User,1.25,,Window,Win_9,1813,,,-1,-1,,,,,1
65aa8b1b46af6e5c652bb438,rpwiv645ah,Ex2A_Prolific,1,13,2024-03-01T19:53:10+00:00,2.2564101219177,3,Stim_A.csv,Global.csv,Global,A,shade,,Win_10,,,11,Study,User,1.25,,Window,Win_10,1805,,,-1,-1,,,,,1
65aa8b1b46af6e5c652bb438,rpwiv645ah,Ex2A_Prolific,1,14,2024-03-01T19:53:13+00:00,2.3205268383026,3,Stim_A.csv,Global.csv,Global,A,open,,Win_11,,,12,Study,User,1.25,,Window,Win_11,1772,,,-1,-1,,,,,1
65aa8b1b46af6e5c652bb438,rpwiv645ah,Ex2A_Prolific,1,15,2024-03-01T19:53:15+00:00,2.1801931858063,3,Stim_A.csv,Global.csv,Global,A,frame,,Win_12,,,13,Study,User,1.25,,Window,Win_12,1784,,,-1,-1,,,,,1
65aa8b1b46af6e5c652bb438,rpwiv645ah,Ex2A_Prolific,1,16,2024-03-01T19:53:21+00:00,5.8732078075409,3,Stim_A.csv,Global.csv,Global,A,,,,,,0,Instruct,User,-,"You have completed this section and will now be asked to judge your ability to remember the list items you just studied. You will have four seconds to type your rating. Please click next to continue.",,Next_List1,5317,,,-1,-1,,,,,1
65aa8b1b46af6e5c652bb438,rpwiv645ah,Ex2A_Prolific,1,17,2024-03-01T19:53:26+00:00,5.4268410205841,3,Stim_A.csv,Global.csv,Global,A,,,,,,0,JOL_GLOBAL,5,5,"How likely are you to correctly recall each of the items you just studied?|Type your response on a scale from 0-100 and then press Enter (0 = WILL NOT REMEMBER; 100 = DEFINITELY WILL REMEMBER).",Related,JOL1,5004,,,-1,-1,,,,60,1
65aa8b1b46af6e5c652bb438,rpwiv645ah,Ex2A_Prolific,1,18,2024-03-01T19:53:32+00:00,5.6380970478058,3,Stim_A.csv,Global.csv,Global,A,,,,,,0,Instruct,User,4,"You have completed this section. Please click next.",,Instruct166,5266,,,-1,-1,,,,,1
65aa8b1b46af6e5c652bb438,rpwiv645ah,Ex2A_Prolific,1,19,2024-03-01T19:54:02+00:00,30.452604055405,3,Stim_A.csv,Global.csv,Global,A,,,,,,0,FreeRecall,30,1.25,"Please type as many words as you can that begin with the letter ""N"". The computer will automatically advance to the next screen in 30 seconds.",,FILLER,30005,"Need never Neptune nandos nine ninety",0,-1,-1,0,0,,,1
65aa8b1b46af6e5c652bb438,rpwiv645ah,Ex2A_Prolific,1,20,2024-03-01T19:54:05+00:00,2.6024029254913,3,Stim_A.csv,Global.csv,Global,A,,,,,,0,Instruct,User,-,"You have completed this section. Please click next.",,Instruct166,2218,,,-1,-1,,,,,1
65aa8b1b46af6e5c652bb438,rpwiv645ah,Ex2A_Prolific,1,21,2024-03-01T19:54:13+00:00,7.6071310043335,3,Stim_A.csv,Global.csv,Global,A,,,,,,0,Instruct,User,4,"You will now complete a memory test for the words you just studied. Please type as many words from the previous list as you can seperated by a comma. Spelling will not count against you and you can recall the words in any order. This test will be timed for one minute, and the computer will automatically advance once time is up. Click next when you are ready to begin.",,Instruct1666,7218,,,-1,-1,,,,,1
65aa8b1b46af6e5c652bb438,rpwiv645ah,Ex2A_Prolific,1,22,2024-03-01T19:55:13+00:00,60.527214050293,3,Stim_A.csv,Global.csv,Global,A,,,,,,0,FreeRecall,60,60,"Please type as many words as you can from the previous study list in any order. Please separate each word with a comma. Spelling will not count against you. This screen will automatically advance in one minute.",,RECALL_Test,60008,"Frame, shade, glass, curtain, pane, ledge, shutter, view, ",0,-1,-1,0,0,,,1
65aa8b1b46af6e5c652bb438,rpwiv645ah,Ex2A_Prolific,1,23,2024-03-01T19:55:18+00:00,4.521213054657,3,Stim_A.csv,Global.csv,Global,A,,,,,,0,Instruct,User,3,"You will now be presented with a new study list. Click next when you are ready to begin.",,NEXT_LIST,4130,,,-1,-1,,,,,1
65aa8b1b46af6e5c652bb438,rpwiv645ah,Ex2A_Prolific,1,24,2024-03-01T19:55:23+00:00,5.6521348953247,3,Stim_A.csv,Global.csv,Global,A,sandpaper,,R1,,,14,Study,User,1.25,,Rough,R1,5172,,,-1,-1,,,,,1
65aa8b1b46af6e5c652bb438,rpwiv645ah,Ex2A_Prolific,1,25,2024-03-01T19:55:26+00:00,2.4375569820404,3,Stim_A.csv,Global.csv,Global,A,smooth,,R2,,,15,Study,User,1.25,,Rough,R2,2057,,,-1,-1,,,,,1
65aa8b1b46af6e5c652bb438,rpwiv645ah,Ex2A_Prolific,1,26,2024-03-01T19:55:28+00:00,2.2187540531158,3,Stim_A.csv,Global.csv,Global,A,coarse,,R3,,,16,Study,User,1.25,,Rough,R3,1748,,,-1,-1,,,,,1
65aa8b1b46af6e5c652bb438,rpwiv645ah,Ex2A_Prolific,1,27,2024-03-01T19:55:30+00:00,2.260586977005,3,Stim_A.csv,Global.csv,Global,A,tough,,R4,,,17,Study,User,1.25,,Rough,R4,1753,,,-1,-1,,,,,1
65aa8b1b46af6e5c652bb438,rpwiv645ah,Ex2A_Prolific,1,28,2024-03-01T19:55:33+00:00,2.3929340839386,3,Stim_A.csv,Global.csv,Global,A,rugged,,R5,,,18,Study,User,1.25,,Rough,R5,1898,,,-1,-1,,,,,1
65aa8b1b46af6e5c652bb438,rpwiv645ah,Ex2A_Prolific,1,29,2024-03-01T19:55:35+00:00,2.3058779239655,3,Stim_A.csv,Global.csv,Global,A,bumpy,,R6,,,19,Study,User,1.25,,Rough,R6,1735,,,-1,-1,,,,,1
65aa8b1b46af6e5c652bb438,rpwiv645ah,Ex2A_Prolific,1,30,2024-03-01T19:55:37+00:00,2.2091951370239,3,Stim_A.csv,Global.csv,Global,A,jagged,,R7,,,20,Study,User,1.25,,Rough,R7,1720,,,-1,-1,,,,,1
65aa8b1b46af6e5c652bb438,rpwiv645ah,Ex2A_Prolific,1,31,2024-03-01T19:55:40+00:00,2.4722650051117,3,Stim_A.csv,Global.csv,Global,A,riders,,R8,,,21,Study,User,1.25,,Rough,R8,2064,,,-1,-1,,,,,1
65aa8b1b46af6e5c652bb438,rpwiv645ah,Ex2A_Prolific,1,32,2024-03-01T19:55:42+00:00,2.3110718727112,3,Stim_A.csv,Global.csv,Global,A,uneven,,R9,,,22,Study,User,1.25,,Rough,R9,1878,,,-1,-1,,,,,1
65aa8b1b46af6e5c652bb438,rpwiv645ah,Ex2A_Prolific,1,33,2024-03-01T19:55:44+00:00,2.401664018631,3,Stim_A.csv,Global.csv,Global,A,road,,R10,,,23,Study,User,1.25,,Rough,R10,1919,,,-1,-1,,,,,1
65aa8b1b46af6e5c652bb438,rpwiv645ah,Ex2A_Prolific,1,34,2024-03-01T19:55:46+00:00,2.1419920921326,3,Stim_A.csv,Global.csv,Global,A,ready,,R11,,,24,Study,User,1.25,,Rough,R11,1739,,,-1,-1,,,,,1
65aa8b1b46af6e5c652bb438,rpwiv645ah,Ex2A_Prolific,1,35,2024-03-01T19:55:49+00:00,2.1674678325653,3,Stim_A.csv,Global.csv,Global,A,sand,,R12,,,25,Study,User,1.25,,Rough,R12,1780,,,-1,-1,,,,,1
65aa8b1b46af6e5c652bb438,rpwiv645ah,Ex2A_Prolific,1,36,2024-03-01T19:55:51+00:00,2.6994891166687,3,Stim_A.csv,Global.csv,Global,A,,,,,,0,Instruct,User,-,"You have completed this section and will now be asked to judge your ability to remember the list items you just studied. You will have four seconds to type your rating. Please click next to continue.",,Next_List1,2311,,,-1,-1,,,,,1
65aa8b1b46af6e5c652bb438,rpwiv645ah,Ex2A_Prolific,1,37,2024-03-01T19:55:57+00:00,5.5279879570007,3,Stim_A.csv,Global.csv,Global,A,,,,,,0,JOL_GLOBAL,5,5,"How likely are you to correctly recall each of the items you just studied?|Type your response on a scale from 0-100 and then press Enter (0 = WILL NOT REMEMBER; 100 = DEFINITELY WILL REMEMBER).",Unrelated,JOL2,5010,,,-1,-1,,,,6,1
65aa8b1b46af6e5c652bb438,rpwiv645ah,Ex2A_Prolific,1,38,2024-03-01T19:56:02+00:00,5.0455310344696,3,Stim_A.csv,Global.csv,Global,A,,,,,,0,Instruct,User,4,"You have completed this section. Please click next.",,Instruct166,4561,,,-1,-1,,,,,1
65aa8b1b46af6e5c652bb438,rpwiv645ah,Ex2A_Prolific,1,39,2024-03-01T19:56:32+00:00,30.572246074677,3,Stim_A.csv,Global.csv,Global,A,,,,,,0,FreeRecall,30,30,"Please type as many words as you can that begin with the letter ""M"". The computer will automatically advance to the next screen in 30 seconds.",,FILLER,30004,"Mighty mean man more meaningful money mighty ",0,-1,-1,0,0,,,1
65aa8b1b46af6e5c652bb438,rpwiv645ah,Ex2A_Prolific,1,40,2024-03-01T19:56:35+00:00,2.3769299983978,3,Stim_A.csv,Global.csv,Global,A,,,,,,0,Instruct,User,-,"You have completed this section. Please click next.",,Instruct166,2010,,,-1,-1,,,,,1
65aa8b1b46af6e5c652bb438,rpwiv645ah,Ex2A_Prolific,1,41,2024-03-01T19:56:40+00:00,5.2798328399658,3,Stim_A.csv,Global.csv,Global,A,,,,,,0,Instruct,User,4,"You will now complete a memory test for the words you just studied. Please type as many words from the previous list as you can seperated by a comma. Spelling will not count against you and you can recall the words in any order. This test will be timed for one minute, and the computer will automatically advance once time is up. Click next when you are ready to begin.",,Instruct1666,4788,,,-1,-1,,,,,1
65aa8b1b46af6e5c652bb438,rpwiv645ah,Ex2A_Prolific,1,42,2024-03-01T19:57:41+00:00,60.55223608017,3,Stim_A.csv,Global.csv,Global,A,,,,,,0,FreeRecall,60,60,"Please type as many words as you can from the previous study list in any order. Please separate each word with a comma. Spelling will not count against you. This screen will automatically advance in one minute.",,RECALL_Test,60006,"Sandpaper, sand, bumby, road, rugged, smooth, coarse, jagged",0,-1,-1,0,0,,,1
65aa8b1b46af6e5c652bb438,rpwiv645ah,Ex2A_Prolific,1,43,2024-03-01T19:57:45+00:00,4.3330409526825,3,Stim_A.csv,Global.csv,Global,A,,,,,,0,Instruct,User,3,"You will now be presented with a new study list. Click next when you are ready to begin.",,NEXT_LIST,3910,,,-1,-1,,,,,1
65aa8b1b46af6e5c652bb438,rpwiv645ah,Ex2A_Prolific,1,44,2024-03-01T19:57:49+00:00,3.9082179069519,3,Stim_A.csv,Global.csv,Global,A,rage,,A1,,,26,Study,User,1.25,,Anger,A1,3331,,,-1,-1,,,,,1
65aa8b1b46af6e5c652bb438,rpwiv645ah,Ex2A_Prolific,1,45,2024-03-01T19:57:53+00:00,4.4260511398315,3,Stim_A.csv,Global.csv,Global,A,mad,,A2,,,27,Study,User,1.25,,Anger,A2,3882,,,-1,-1,,,,,1
65aa8b1b46af6e5c652bb438,rpwiv645ah,Ex2A_Prolific,1,46,2024-03-01T19:57:56+00:00,2.4095320701599,3,Stim_A.csv,Global.csv,Global,A,enrage,,A3,,,28,Study,User,1.25,,Anger,A3,1871,,,-1,-1,,,,,1
65aa8b1b46af6e5c652bb438,rpwiv645ah,Ex2A_Prolific,1,47,2024-03-01T19:58:00+00:00,4.0678548812866,3,Stim_A.csv,Global.csv,Global,A,fury,,A4,,,29,Study,User,1.25,,Anger,A4,3588,,,-1,-1,,,,,1
65aa8b1b46af6e5c652bb438,rpwiv645ah,Ex2A_Prolific,1,48,2024-03-01T19:58:02+00:00,1.9765319824219,3,Stim_A.csv,Global.csv,Global,A,temper,,A5,,,30,Study,User,1.25,,Anger,A5,1476,,,-1,-1,,,,,1
65aa8b1b46af6e5c652bb438,rpwiv645ah,Ex2A_Prolific,1,49,2024-03-01T19:58:04+00:00,2.3647439479828,3,Stim_A.csv,Global.csv,Global,A,ire,,A6,,,31,Study,User,1.25,,Anger,A6,1900,,,-1,-1,,,,,1
65aa8b1b46af6e5c652bb438,rpwiv645ah,Ex2A_Prolific,1,50,2024-03-01T19:58:07+00:00,2.4454050064087,3,Stim_A.csv,Global.csv,Global,A,wrath,,A7,,,32,Study,User,1.25,,Anger,A7,1880,,,-1,-1,,,,,1
65aa8b1b46af6e5c652bb438,rpwiv645ah,Ex2A_Prolific,1,51,2024-03-01T19:58:10+00:00,3.6089789867401,3,Stim_A.csv,Global.csv,Global,A,mean,,A8,,,33,Study,User,1.25,,Anger,A8,3139,,,-1,-1,,,,,1
65aa8b1b46af6e5c652bb438,rpwiv645ah,Ex2A_Prolific,1,52,2024-03-01T19:58:13+00:00,2.3925180435181,3,Stim_A.csv,Global.csv,Global,A,hatred,,A9,,,34,Study,User,1.25,,Anger,A9,1950,,,-1,-1,,,,,1
65aa8b1b46af6e5c652bb438,rpwiv645ah,Ex2A_Prolific,1,53,2024-03-01T19:58:15+00:00,2.407851934433,3,Stim_A.csv,Global.csv,Global,A,fight,,A10,,,35,Study,User,1.25,,Anger,A10,1870,,,-1,-1,,,,,1
65aa8b1b46af6e5c652bb438,rpwiv645ah,Ex2A_Prolific,1,54,2024-03-01T19:58:18+00:00,2.6661610603333,3,Stim_A.csv,Global.csv,Global,A,hate,,A11,,,36,Study,User,1.25,,Anger,A11,2109,,,-1,-1,,,,,1
65aa8b1b46af6e5c652bb438,rpwiv645ah,Ex2A_Prolific,1,55,2024-03-01T19:58:20+00:00,2.2090511322021,3,Stim_A.csv,Global.csv,Global,A,fear,,A12,,,37,Study,User,1.25,,Anger,A12,1708,,,-1,-1,,,,,1
65aa8b1b46af6e5c652bb438,rpwiv645ah,Ex2A_Prolific,1,56,2024-03-01T19:58:22+00:00,2.2978849411011,3,Stim_A.csv,Global.csv,Global,A,,,,,,0,Instruct,User,-,"You have completed this section and will now be asked to judge your ability to remember the list items you just studied. You will have four seconds to type your rating. Please click next to continue.",,Next_List1,1788,,,-1,-1,,,,,1
65aa8b1b46af6e5c652bb438,rpwiv645ah,Ex2A_Prolific,1,57,2024-03-01T19:58:28+00:00,5.5254080295563,3,Stim_A.csv,Global.csv,Global,A,,,,,,0,JOL_GLOBAL,5,5,"How likely are you to correctly recall each of the items you just studied?|Type your response on a scale from 0-100 and then press Enter (0 = WILL NOT REMEMBER; 100 = DEFINITELY WILL REMEMBER).",Related,JOL3,5005,,,-1,-1,,,,10,1
65aa8b1b46af6e5c652bb438,rpwiv645ah,Ex2A_Prolific,1,58,2024-03-01T19:58:30+00:00,2.1293079853058,3,Stim_A.csv,Global.csv,Global,A,,,,,,0,Instruct,User,-,"You have completed this section. Please click next.",,Instruct166,1638,,,-1,-1,,,,,1
65aa8b1b46af6e5c652bb438,rpwiv645ah,Ex2A_Prolific,1,59,2024-03-01T19:59:00+00:00,30.40761089325,3,Stim_A.csv,Global.csv,Global,A,,,,,,0,FreeRecall,30,30,"Please type as many words as you can that begin with the letter ""R"". The computer will automatically advance to the next screen in 30 seconds.",,FILLER,30004,"River ranch reading right random running r",0,-1,-1,0,0,,,1
65aa8b1b46af6e5c652bb438,rpwiv645ah,Ex2A_Prolific,1,60,2024-03-01T19:59:03+00:00,2.3723421096802,3,Stim_A.csv,Global.csv,Global,A,,,,,,0,Instruct,User,-,"You have completed this section. Please click next.",,Instruct166,1889,,,-1,-1,,,,,1
65aa8b1b46af6e5c652bb438,rpwiv645ah,Ex2A_Prolific,1,61,2024-03-01T19:59:08+00:00,5.5485689640045,3,Stim_A.csv,Global.csv,Global,A,,,,,,0,Instruct,User,4,"You will now complete a memory test for the words you just studied. Please type as many words from the previous list as you can seperated by a comma. Spelling will not count against you and you can recall the words in any order. This test will be timed for one minute, and the computer will automatically advance once time is up. Click next when you are ready to begin.",,Instruct1666,5073,,,-1,-1,,,,,1
65aa8b1b46af6e5c652bb438,rpwiv645ah,Ex2A_Prolific,1,62,2024-03-01T20:00:09+00:00,60.634176969528,3,Stim_A.csv,Global.csv,Global,A,,,,,,0,FreeRecall,60,60,"Please type as many words as you can from the previous study list in any order. Please separate each word with a comma. Spelling will not count against you. This screen will automatically advance in one minute.",,RECALL_Test,60007,"Rage, ire, angry, ",0,-1,-1,0,0,,,1
65aa8b1b46af6e5c652bb438,rpwiv645ah,Ex2A_Prolific,1,63,2024-03-01T20:00:14+00:00,4.7912490367889,3,Stim_A.csv,Global.csv,Global,A,,,,,,0,Instruct,User,3,"You will now be presented with a new study list. Click next when you are ready to begin.",,NEXT_LIST,4125,,,-1,-1,,,,,1
65aa8b1b46af6e5c652bb438,rpwiv645ah,Ex2A_Prolific,1,64,2024-03-01T20:00:17+00:00,3.1593220233917,3,Stim_A.csv,Global.csv,Global,A,garbage,,T1,,,38,Study,User,1.25,,Trash,T1,2590,,,-1,-1,,,,,1
65aa8b1b46af6e5c652bb438,rpwiv645ah,Ex2A_Prolific,1,65,2024-03-01T20:00:19+00:00,2.3779878616333,3,Stim_A.csv,Global.csv,Global,A,rubbish,,T2,,,39,Study,User,1.25,,Trash,T2,1969,,,-1,-1,,,,,1
65aa8b1b46af6e5c652bb438,rpwiv645ah,Ex2A_Prolific,1,66,2024-03-01T20:00:22+00:00,2.4757192134857,3,Stim_A.csv,Global.csv,Global,A,debris,,T3,,,40,Study,User,1.25,,Trash,T3,1905,,,-1,-1,,,,,1
65aa8b1b46af6e5c652bb438,rpwiv645ah,Ex2A_Prolific,1,67,2024-03-01T20:00:25+00:00,3.4259049892426,3,Stim_A.csv,Global.csv,Global,A,dump,,T4,,,41,Study,User,1.25,,Trash,T4,2889,,,-1,-1,,,,,1
65aa8b1b46af6e5c652bb438,rpwiv645ah,Ex2A_Prolific,1,68,2024-03-01T20:00:27+00:00,2.4111979007721,3,Stim_A.csv,Global.csv,Global,A,litter,,T5,,,42,Study,User,1.25,,Trash,T5,1930,,,-1,-1,,,,,1
65aa8b1b46af6e5c652bb438,rpwiv645ah,Ex2A_Prolific,1,69,2024-03-01T20:00:32+00:00,4.3455929756165,3,Stim_A.csv,Global.csv,Global,A,landfill,,T6,,,43,Study,User,1.25,,Trash,T6,3956,,,-1,-1,,,,,1
65aa8b1b46af6e5c652bb438,rpwiv645ah,Ex2A_Prolific,1,70,2024-03-01T20:00:34+00:00,2.3649179935455,3,Stim_A.csv,Global.csv,Global,A,junk,,T7,,,44,Study,User,1.25,,Trash,T7,1869,,,-1,-1,,,,,1
65aa8b1b46af6e5c652bb438,rpwiv645ah,Ex2A_Prolific,1,71,2024-03-01T20:00:36+00:00,2.2719819545746,3,Stim_A.csv,Global.csv,Global,A,waste,,T8,,,45,Study,User,1.25,,Trash,T8,1767,,,-1,-1,,,,,1
65aa8b1b46af6e5c652bb438,rpwiv645ah,Ex2A_Prolific,1,72,2024-03-01T20:00:39+00:00,2.4954180717468,3,Stim_A.csv,Global.csv,Global,A,sewage,,T9,,,46,Study,User,1.25,,Trash,T9,1914,,,-1,-1,,,,,1
65aa8b1b46af6e5c652bb438,rpwiv645ah,Ex2A_Prolific,1,73,2024-03-01T20:00:41+00:00,2.1499090194702,3,Stim_A.csv,Global.csv,Global,A,pile,,T10,,,47,Study,User,1.25,,Trash,T10,1716,,,-1,-1,,,,,1
65aa8b1b46af6e5c652bb438,rpwiv645ah,Ex2A_Prolific,1,74,2024-03-01T20:00:43+00:00,2.2869369983673,3,Stim_A.csv,Global.csv,Global,A,scraps,,T11,,,48,Study,User,1.25,,Trash,T11,1759,,,-1,-1,,,,,1
65aa8b1b46af6e5c652bb438,rpwiv645ah,Ex2A_Prolific,1,75,2024-03-01T20:00:49+00:00,5.7384440898895,3,Stim_A.csv,Global.csv,Global,A,refuse,,T12,,,49,Study,User,1.25,,Trash,T12,5231,,,-1,-1,,,,,1
65aa8b1b46af6e5c652bb438,rpwiv645ah,Ex2A_Prolific,1,76,2024-03-01T20:00:54+00:00,5.1507759094238,3,Stim_A.csv,Global.csv,Global,A,,,,,,0,Instruct,User,-,"You have completed this section and will now be asked to judge your ability to remember the list items you just studied. You will have four seconds to type your rating. Please click next to continue.",,Next_List1,4654,,,-1,-1,,,,,1
65aa8b1b46af6e5c652bb438,rpwiv645ah,Ex2A_Prolific,1,77,2024-03-01T20:01:00+00:00,5.5892729759216,3,Stim_A.csv,Global.csv,Global,A,,,,,,0,JOL_GLOBAL,5,5,"How likely are you to correctly recall each of the items you just studied?|Type your response on a scale from 0-100 and then press Enter (0 = WILL NOT REMEMBER; 100 = DEFINITELY WILL REMEMBER).",Related,JOL4,5007,,,-1,-1,,,,50,1
65aa8b1b46af6e5c652bb438,rpwiv645ah,Ex2A_Prolific,1,78,2024-03-01T20:01:05+00:00,5.3205831050873,3,Stim_A.csv,Global.csv,Global,A,,,,,,0,Instruct,User,4,"You have completed this section. Please click next.",,Instruct166,4827,,,-1,-1,,,,,1
65aa8b1b46af6e5c652bb438,rpwiv645ah,Ex2A_Prolific,1,79,2024-03-01T20:01:36+00:00,30.549425840378,3,Stim_A.csv,Global.csv,Global,A,,,,,,0,FreeRecall,30,30,"Please type as many words as you can that begin with the letter ""T"". The computer will automatically advance to the next screen in 30 seconds.",,FILLER,30005,"Trash treatment the tyrannosaurus ",0,-1,-1,0,0,,,1
65aa8b1b46af6e5c652bb438,rpwiv645ah,Ex2A_Prolific,1,80,2024-03-01T20:01:38+00:00,2.2884759902954,3,Stim_A.csv,Global.csv,Global,A,,,,,,0,Instruct,User,-,"You have completed this section. Please click next.",,Instruct166,1811,,,-1,-1,,,,,1
65aa8b1b46af6e5c652bb438,rpwiv645ah,Ex2A_Prolific,1,81,2024-03-01T20:01:43+00:00,5.4329450130463,3,Stim_A.csv,Global.csv,Global,A,,,,,,0,Instruct,User,4,"You will now complete a memory test for the words you just studied. Please type as many words from the previous list as you can seperated by a comma. Spelling will not count against you and you can recall the words in any order. This test will be timed for one minute, and the computer will automatically advance once time is up. Click next when you are ready to begin.",,Instruct1666,4891,,,-1,-1,,,,,1
65aa8b1b46af6e5c652bb438,rpwiv645ah,Ex2A_Prolific,1,82,2024-03-01T20:02:44+00:00,60.552999973297,3,Stim_A.csv,Global.csv,Global,A,,,,,,0,FreeRecall,60,60,"Please type as many words as you can from the previous study list in any order. Please separate each word with a comma. Spelling will not count against you. This screen will automatically advance in one minute.",,RECALL_Test,60005,"Trash, garbage, waste, litter, landfil, ",0,-1,-1,0,0,,,1
65aa8b1b46af6e5c652bb438,rpwiv645ah,Ex2A_Prolific,1,83,2024-03-01T20:02:48+00:00,4.3800570964813,3,Stim_A.csv,Global.csv,Global,A,,,,,,0,Instruct,User,3,"You will now be presented with a new study list. Click next when you are ready to begin.",,NEXT_LIST,3960,,,-1,-1,,,,,1
65aa8b1b46af6e5c652bb438,rpwiv645ah,Ex2A_Prolific,1,84,2024-03-01T20:02:53+00:00,4.5333960056305,3,Stim_A.csv,Global.csv,Global,A,physician,,D1,,,50,Study,User,1.25,,Doctor,D1,4071,,,-1,-1,,,,,1
65aa8b1b46af6e5c652bb438,rpwiv645ah,Ex2A_Prolific,1,85,2024-03-01T20:02:55+00:00,2.4015929698944,3,Stim_A.csv,Global.csv,Global,A,nurse,,D2,,,51,Study,User,1.25,,Doctor,D2,1912,,,-1,-1,,,,,1
65aa8b1b46af6e5c652bb438,rpwiv645ah,Ex2A_Prolific,1,86,2024-03-01T20:02:58+00:00,2.377140045166,3,Stim_A.csv,Global.csv,Global,A,stethoscope,,D3,,,52,Study,User,1.25,,Doctor,D3,1967,,,-1,-1,,,,,1
65aa8b1b46af6e5c652bb438,rpwiv645ah,Ex2A_Prolific,1,87,2024-03-01T20:03:02+00:00,4.3005900382996,3,Stim_A.csv,Global.csv,Global,A,surgeon,,D4,,,53,Study,User,1.25,,Doctor,D4,3775,,,-1,-1,,,,,1
65aa8b1b46af6e5c652bb438,rpwiv645ah,Ex2A_Prolific,1,88,2024-03-01T20:03:04+00:00,2.551097869873,3,Stim_A.csv,Global.csv,Global,A,patient,,D5,,,54,Study,User,1.25,,Doctor,D5,2019,,,-1,-1,,,,,1
65aa8b1b46af6e5c652bb438,rpwiv645ah,Ex2A_Prolific,1,89,2024-03-01T20:03:06+00:00,1.8301701545715,3,Stim_A.csv,Global.csv,Global,A,clinic,,D6,,,55,Study,User,1.25,,Doctor,D6,1297,,,-1,-1,,,,,1
65aa8b1b46af6e5c652bb438,rpwiv645ah,Ex2A_Prolific,1,90,2024-03-01T20:03:09+00:00,2.4087188243866,3,Stim_A.csv,Global.csv,Global,A,dentist,,D7,,,56,Study,User,1.25,,Doctor,D7,1921,,,-1,-1,,,,,1
65aa8b1b46af6e5c652bb438,rpwiv645ah,Ex2A_Prolific,1,91,2024-03-01T20:03:11+00:00,2.4891650676727,3,Stim_A.csv,Global.csv,Global,A,medicine,,D8,,,57,Study,User,1.25,,Doctor,D8,1978,,,-1,-1,,,,,1
65aa8b1b46af6e5c652bb438,rpwiv645ah,Ex2A_Prolific,1,92,2024-03-01T20:03:14+00:00,2.5325410366058,3,Stim_A.csv,Global.csv,Global,A,lawyer,,D9,,,58,Study,User,1.25,,Doctor,D9,2055,,,-1,-1,,,,,1
65aa8b1b46af6e5c652bb438,rpwiv645ah,Ex2A_Prolific,1,93,2024-03-01T20:03:16+00:00,2.4298830032349,3,Stim_A.csv,Global.csv,Global,A,health,,D10,,,59,Study,User,1.25,,Doctor,D10,1937,,,-1,-1,,,,,1
65aa8b1b46af6e5c652bb438,rpwiv645ah,Ex2A_Prolific,1,94,2024-03-01T20:03:18+00:00,2.2913720607758,3,Stim_A.csv,Global.csv,Global,A,sick,,D11,,,60,Study,User,1.25,,Doctor,D11,1735,,,-1,-1,,,,,1
65aa8b1b46af6e5c652bb438,rpwiv645ah,Ex2A_Prolific,1,95,2024-03-01T20:03:21+00:00,2.3929100036621,3,Stim_A.csv,Global.csv,Global,A,cure,,D12,,,61,Study,User,1.25,,Doctor,D12,1897,,,-1,-1,,,,,1
65aa8b1b46af6e5c652bb438,rpwiv645ah,Ex2A_Prolific,1,96,2024-03-01T20:03:23+00:00,2.0644738674164,3,Stim_A.csv,Global.csv,Global,A,,,,,,0,Instruct,User,-,"You have completed this section and will now be asked to judge your ability to remember the list items you just studied. You will have four seconds to type your rating. Please click next to continue.",,Next_List1,1512,,,-1,-1,,,,,1
65aa8b1b46af6e5c652bb438,rpwiv645ah,Ex2A_Prolific,1,97,2024-03-01T20:03:28+00:00,5.2761521339417,3,Stim_A.csv,Global.csv,Global,A,,,,,,0,JOL_GLOBAL,5,1.25,"How likely are you to correctly recall each of the items you just studied?|Type your response on a scale from 0-100 and then press Enter (0 = WILL NOT REMEMBER; 100 = DEFINITELY WILL REMEMBER).",Related,JOL5,4720,,,-1,-1,,,,30,1
65aa8b1b46af6e5c652bb438,rpwiv645ah,Ex2A_Prolific,1,98,2024-03-01T20:03:30+00:00,2.294921875,3,Stim_A.csv,Global.csv,Global,A,,,,,,0,Instruct,User,-,"You have completed this section. Please click next.",,Instruct166,1815,,,-1,-1,,,,,1
65aa8b1b46af6e5c652bb438,rpwiv645ah,Ex2A_Prolific,1,99,2024-03-01T20:04:01+00:00,30.417624950409,3,Stim_A.csv,Global.csv,Global,A,,,,,,0,FreeRecall,30,30,"Please type as many words as you can that begin with the letter ""C"". The computer will automatically advance to the next screen in 30 seconds.",,FILLER,30014,"Computer cast cream creative cadet ",0,-1,-1,0,0,,,1
65aa8b1b46af6e5c652bb438,rpwiv645ah,Ex2A_Prolific,1,100,2024-03-01T20:04:06+00:00,5.533007144928,3,Stim_A.csv,Global.csv,Global,A,,,,,,0,Instruct,User,4,"You have completed this section. Please click next.",,Instruct166,4957,,,-1,-1,,,,,1
65aa8b1b46af6e5c652bb438,rpwiv645ah,Ex2A_Prolific,1,101,2024-03-01T20:04:13+00:00,6.6756858825684,3,Stim_A.csv,Global.csv,Global,A,,,,,,0,Instruct,User,4,"You will now complete a memory test for the words you just studied. Please type as many words from the previous list as you can seperated by a comma. Spelling will not count against you and you can recall the words in any order. This test will be timed for one minute, and the computer will automatically advance once time is up. Click next when you are ready to begin.",,Instruct1666,6147,,,-1,-1,,,,,1
65aa8b1b46af6e5c652bb438,rpwiv645ah,Ex2A_Prolific,1,102,2024-03-01T20:05:14+00:00,60.471378087997,3,Stim_A.csv,Global.csv,Global,A,,,,,,0,FreeRecall,60,60,"Please type as many words as you can from the previous study list in any order. Please separate each word with a comma. Spelling will not count against you. This screen will automatically advance in one minute.",,RECALL_Test,60004,"Patient, dentist, nurse, surgeon, lawyer, ",0,-1,-1,0,0,,,1
65aa8b1b46af6e5c652bb438,rpwiv645ah,Ex2A_Prolific,1,103,2024-03-01T20:05:18+00:00,4.6706349849701,3,Stim_A.csv,Global.csv,Global,A,,,,,,0,Instruct,User,3,"You will now be presented with a new study list. Click next when you are ready to begin.",,NEXT_LIST,4200,,,-1,-1,,,,,1
65aa8b1b46af6e5c652bb438,rpwiv645ah,Ex2A_Prolific,1,104,2024-03-01T20:05:24+00:00,5.2615530490875,3,Stim_A.csv,Global.csv,Global,A,fast,,S1,,,62,Study,User,1.25,,Slow,S1,4820,,,-1,-1,,,,,1
65aa8b1b46af6e5c652bb438,rpwiv645ah,Ex2A_Prolific,1,105,2024-03-01T20:05:26+00:00,2.5362198352814,3,Stim_A.csv,Global.csv,Global,A,snail,,S2,,,63,Study,User,1.25,,Slow,S2,1968,,,-1,-1,,,,,1
65aa8b1b46af6e5c652bb438,rpwiv645ah,Ex2A_Prolific,1,106,2024-03-01T20:05:28+00:00,2.4009971618652,3,Stim_A.csv,Global.csv,Global,A,turtle,,S3,,,64,Study,User,1.25,,Slow,S3,2010,,,-1,-1,,,,,1
65aa8b1b46af6e5c652bb438,rpwiv645ah,Ex2A_Prolific,1,107,2024-03-01T20:05:31+00:00,2.4965929985046,3,Stim_A.csv,Global.csv,Global,A,sluggish,,S4,,,65,Study,User,1.25,,Slow,S4,1967,,,-1,-1,,,,,1
65aa8b1b46af6e5c652bb438,rpwiv645ah,Ex2A_Prolific,1,108,2024-03-01T20:05:33+00:00,2.2414479255676,3,Stim_A.csv,Global.csv,Global,A,quick,,S5,,,66,Study,User,1.25,,Slow,S5,1741,,,-1,-1,,,,,1
65aa8b1b46af6e5c652bb438,rpwiv645ah,Ex2A_Prolific,1,109,2024-03-01T20:05:36+00:00,2.5147380828857,3,Stim_A.csv,Global.csv,Global,A,molasses,,S6,,,67,Study,User,1.25,,Slow,S6,2005,,,-1,-1,,,,,1
65aa8b1b46af6e5c652bb438,rpwiv645ah,Ex2A_Prolific,1,110,2024-03-01T20:05:38+00:00,1.8209388256073,3,Stim_A.csv,Global.csv,Global,A,lethargic,,S7,,,68,Study,User,1.25,,Slow,S7,1266,,,-1,-1,,,,,1
65aa8b1b46af6e5c652bb438,rpwiv645ah,Ex2A_Prolific,1,111,2024-03-01T20:05:40+00:00,2.5545451641083,3,Stim_A.csv,Global.csv,Global,A,speed,,S8,,,69,Study,User,1.25,,Slow,S8,2061,,,-1,-1,,,,,1
65aa8b1b46af6e5c652bb438,rpwiv645ah,Ex2A_Prolific,1,112,2024-03-01T20:05:43+00:00,3.3351199626923,3,Stim_A.csv,Global.csv,Global,A,delay,,S9,,,70,Study,User,1.25,,Slow,S9,2600,,,-1,-1,,,,,1
65aa8b1b46af6e5c652bb438,rpwiv645ah,Ex2A_Prolific,1,113,2024-03-01T20:05:46+00:00,2.5059790611267,3,Stim_A.csv,Global.csv,Global,A,hesitant,,S10,,,71,Study,User,1.25,,Slow,S10,2074,,,-1,-1,,,,,1
65aa8b1b46af6e5c652bb438,rpwiv645ah,Ex2A_Prolific,1,114,2024-03-01T20:05:49+00:00,3.4210889339447,3,Stim_A.csv,Global.csv,Global,A,cautious,,S11,,,72,Study,User,1.25,,Slow,S11,2931,,,-1,-1,,,,,1
65aa8b1b46af6e5c652bb438,rpwiv645ah,Ex2A_Prolific,1,115,2024-03-01T20:05:53+00:00,3.8963248729706,3,Stim_A.csv,Global.csv,Global,A,traffic,,S12,,,73,Study,User,1.25,,Slow,S12,3428,,,-1,-1,,,,,1
65aa8b1b46af6e5c652bb438,rpwiv645ah,Ex2A_Prolific,1,116,2024-03-01T20:05:57+00:00,3.9891741275787,3,Stim_A.csv,Global.csv,Global,A,,,,,,0,Instruct,User,-,"You have completed this section and will now be asked to judge your ability to remember the list items you just studied. You will have four seconds to type your rating. Please click next to continue.",,Next_List1,3462,,,-1,-1,,,,,1
65aa8b1b46af6e5c652bb438,rpwiv645ah,Ex2A_Prolific,1,117,2024-03-01T20:06:03+00:00,5.5543370246887,3,Stim_A.csv,Global.csv,Global,A,,,,,,0,JOL_GLOBAL,5,5,"How likely are you to correctly recall each of the items you just studied?|Type your response on a scale from 0-100 and then press Enter (0 = WILL NOT REMEMBER; 100 = DEFINITELY WILL REMEMBER).",Related,JOL6,5003,,,-1,-1,,,,20,1
65aa8b1b46af6e5c652bb438,rpwiv645ah,Ex2A_Prolific,1,118,2024-03-01T20:06:06+00:00,2.9514079093933,3,Stim_A.csv,Global.csv,Global,A,,,,,,0,Instruct,User,1.25,"You have completed this section. Please click next.",,Instruct166,2451,,,-1,-1,,,,,1
65aa8b1b46af6e5c652bb438,rpwiv645ah,Ex2A_Prolific,1,119,2024-03-01T20:06:36+00:00,30.632542133331,3,Stim_A.csv,Global.csv,Global,A,,,,,,0,FreeRecall,30,30,"Please type as many words as you can that begin with the letter ""L"". The computer will automatically advance to the next screen in 30 seconds.",,FILLER,30004,"Leeds library lemon Liverpool London ",0,-1,-1,0,0,,,1
65aa8b1b46af6e5c652bb438,rpwiv645ah,Ex2A_Prolific,1,120,2024-03-01T20:06:39+00:00,3.0675339698792,3,Stim_A.csv,Global.csv,Global,A,,,,,,0,Instruct,User,1.25,"You have completed this section. Please click next.",,Instruct166,2334,,,-1,-1,,,,,1
65aa8b1b46af6e5c652bb438,rpwiv645ah,Ex2A_Prolific,1,121,2024-03-01T20:06:45+00:00,5.3579800128937,3,Stim_A.csv,Global.csv,Global,A,,,,,,0,Instruct,User,4,"You will now complete a memory test for the words you just studied. Please type as many words from the previous list as you can seperated by a comma. Spelling will not count against you and you can recall the words in any order. This test will be timed for one minute, and the computer will automatically advance once time is up. Click next when you are ready to begin.",,Instruct1666,4905,,,-1,-1,,,,,1
65aa8b1b46af6e5c652bb438,rpwiv645ah,Ex2A_Prolific,1,122,2024-03-01T20:07:45+00:00,60.682968854904,3,Stim_A.csv,Global.csv,Global,A,,,,,,0,FreeRecall,60,60,"Please type as many words as you can from the previous study list in any order. Please separate each word with a comma. Spelling will not count against you. This screen will automatically advance in one minute.",,RECALL_Test,60016,"Quick fast turtle snail ",0,-1,-1,0,0,,,1
65aa8b1b46af6e5c652bb438,rpwiv645ah,Ex2A_Prolific,1,123,2024-03-01T20:08:01+00:00,15.985763072968,3,Stim_A.csv,Global.csv,Global,A,,,,,,0,Instruct,User,3,"You will now be presented with a new study list. Click next when you are ready to begin.",,NEXT_LIST,14958,,,-1,-1,,,,,1
65aa8b1b46af6e5c652bb438,rpwiv645ah,Ex2A_Prolific,1,124,2024-03-01T20:08:06+00:00,4.7525680065155,3,Stim_A.csv,Global.csv,Global,A,mississippi,,RR1,,,74,Study,User,1.25,,River,RR1,4222,,,-1,-1,,,,,1
65aa8b1b46af6e5c652bb438,rpwiv645ah,Ex2A_Prolific,1,125,2024-03-01T20:09:45+00:00,98.76636505127,3,Stim_A.csv,Global.csv,Global,A,creek,,RR2,,,75,Study,User,1.25,,River,RR2,97915,,,-1,-1,,,,,1
65aa8b1b46af6e5c652bb438,rpwiv645ah,Ex2A_Prolific,1,126,2024-03-01T20:10:12+00:00,27.435333013535,3,Stim_A.csv,Global.csv,Global,A,stream,,RR3,,,76,Study,User,1.25,,River,RR3,26905,,,-1,-1,,,,,1
65aa8b1b46af6e5c652bb438,rpwiv645ah,Ex2A_Prolific,1,127,2024-03-01T20:10:29+00:00,16.366615056992,3,Stim_A.csv,Global.csv,Global,A,flow,,RR4,,,77,Study,User,1.25,,River,RR4,15877,,,-1,-1,,,,,1
65aa8b1b46af6e5c652bb438,rpwiv645ah,Ex2A_Prolific,1,128,2024-03-01T20:12:53+00:00,144.15625,3,Stim_A.csv,Global.csv,Global,A,bridge,,RR5,,,78,Study,User,1.25,,River,RR5,143757,,,-1,-1,,,,,1
65aa8b1b46af6e5c652bb438,rpwiv645ah,Ex2A_Prolific,1,129,2024-03-01T20:13:05+00:00,11.969160795212,3,Stim_A.csv,Global.csv,Global,A,brook,,RR6,,,79,Study,User,1.25,,River,RR6,11573,,,-1,-1,,,,,1
65aa8b1b46af6e5c652bb438,rpwiv645ah,Ex2A_Prolific,1,130,2024-03-01T20:14:38+00:00,92.941538095474,3,Stim_A.csv,Global.csv,Global,A,lake,,RR7,,,80,Study,User,1.25,,River,RR7,92070,,,-1,-1,,,,,1
65aa8b1b46af6e5c652bb438,rpwiv645ah,Ex2A_Prolific,1,131,2024-03-01T20:14:40+00:00,2.3325190544128,3,Stim_A.csv,Global.csv,Global,A,barge,,RR8,,,81,Study,User,1.25,,River,RR8,1848,,,-1,-1,,,,,1
65aa8b1b46af6e5c652bb438,rpwiv645ah,Ex2A_Prolific,1,132,2024-03-01T20:19:53+00:00,313.13985991478,3,Stim_A.csv,Global.csv,Global,A,water,,RR9,,,82,Study,User,1.25,,River,RR9,312404,,,-1,-1,,,,,0.993
65aa8b1b46af6e5c652bb438,rpwiv645ah,Ex2A_Prolific,1,133,2024-03-01T20:19:56+00:00,2.690465927124,3,Stim_A.csv,Global.csv,Global,A,boat,,RR10,,,83,Study,User,1.25,,River,RR10,1986,,,-1,-1,,,,,1
65aa8b1b46af6e5c652bb438,rpwiv645ah,Ex2A_Prolific,1,134,2024-03-01T20:20:22+00:00,25.642733097076,3,Stim_A.csv,Global.csv,Global,A,tide,,RR11,,,84,Study,User,1.25,,River,RR11,25061,,,-1,-1,,,,,1
65aa8b1b46af6e5c652bb438,rpwiv645ah,Ex2A_Prolific,1,135,2024-03-01T20:20:24+00:00,2.4924490451813,3,Stim_A.csv,Global.csv,Global,A,swim,,RR12,,,85,Study,User,1.25,,River,RR12,2008,,,-1,-1,,,,,1
65aa8b1b46af6e5c652bb438,rpwiv645ah,Ex2A_Prolific,1,136,2024-03-01T20:20:33+00:00,9.0182540416718,3,Stim_A.csv,Global.csv,Global,A,,,,,,0,Instruct,User,1.25,"You have completed this section and will now be asked to judge your ability to remember the list items you just studied. You will have four seconds to type your rating. Please click next to continue.",,Next_List1,8465,,,-1,-1,,,,,1
65aa8b1b46af6e5c652bb438,rpwiv645ah,Ex2A_Prolific,1,137,2024-03-01T20:20:39+00:00,5.4427578449249,3,Stim_A.csv,Global.csv,Global,A,,,,,,0,JOL_GLOBAL,5,5,"How likely are you to correctly recall each of the items you just studied?|Type your response on a scale from 0-100 and then press Enter (0 = WILL NOT REMEMBER; 100 = DEFINITELY WILL REMEMBER).",Related,JOL7,5019,,,-1,-1,,,,,1
65aa8b1b46af6e5c652bb438,rpwiv645ah,Ex2A_Prolific,1,138,2024-03-01T20:20:44+00:00,5.2864949703217,3,Stim_A.csv,Global.csv,Global,A,,,,,,0,Instruct,User,4,"You have completed this section. Please click next.",,Instruct166,4756,,,-1,-1,,,,,1
65aa8b1b46af6e5c652bb438,rpwiv645ah,Ex2A_Prolific,1,139,2024-03-01T20:21:14+00:00,30.521063089371,3,Stim_A.csv,Global.csv,Global,A,,,,,,0,FreeRecall,30,30,"Please type as many words as you can that begin with the letter ""M"". The computer will automatically advance to the next screen in 30 seconds.",,FILLER,30006,"Mario media miss my mill middle ",0,-1,-1,0,0,,,1
65aa8b1b46af6e5c652bb438,rpwiv645ah,Ex2A_Prolific,1,140,2024-03-01T20:21:20+00:00,5.291759967804,3,Stim_A.csv,Global.csv,Global,A,,,,,,0,Instruct,User,4,"You have completed this section. Please click next.",,Instruct166,4886,,,-1,-1,,,,,1
65aa8b1b46af6e5c652bb438,rpwiv645ah,Ex2A_Prolific,1,141,2024-03-01T20:21:25+00:00,5.1654419898987,3,Stim_A.csv,Global.csv,Global,A,,,,,,0,Instruct,User,1.25,"You will now complete a memory test for the words you just studied. Please type as many words from the previous list as you can seperated by a comma. Spelling will not count against you and you can recall the words in any order. This test will be timed for one minute, and the computer will automatically advance once time is up. Click next when you are ready to begin.",,Instruct1666,4666,,,-1,-1,,,,,1
65aa8b1b46af6e5c652bb438,rpwiv645ah,Ex2A_Prolific,1,142,2024-03-01T20:22:25+00:00,60.540343999863,3,Stim_A.csv,Global.csv,Global,A,,,,,,0,FreeRecall,60,60,"Please type as many words as you can from the previous study list in any order. Please separate each word with a comma. Spelling will not count against you. This screen will automatically advance in one minute.",,RECALL_Test,60006,"Stream swim, creek, lake, ",0,-1,-1,0,0,,,1
65aa8b1b46af6e5c652bb438,rpwiv645ah,Ex2A_Prolific,1,143,2024-03-01T20:22:39+00:00,13.983042001724,3,Stim_A.csv,Global.csv,Global,A,,,,,,0,Instruct,User,1.25,"You will now be presented with a new study list. Click next when you are ready to begin.",,NEXT_LIST,13428,,,-1,-1,,,,,1
65aa8b1b46af6e5c652bb438,rpwiv645ah,Ex2A_Prolific,1,144,2024-03-01T20:23:33+00:00,53.605304002762,3,Stim_A.csv,Global.csv,Global,A,rye,,B1,,,86,Study,User,1.25,,Bread,B1,53120,,,-1,-1,,,,,1
65aa8b1b46af6e5c652bb438,rpwiv645ah,Ex2A_Prolific,1,145,2024-03-01T20:23:43+00:00,10.320465087891,3,Stim_A.csv,Global.csv,Global,A,loaf,,B2,,,87,Study,User,1.25,,Bread,B2,9858,,,-1,-1,,,,,1
65aa8b1b46af6e5c652bb438,rpwiv645ah,Ex2A_Prolific,1,146,2024-03-01T20:23:46+00:00,2.9148390293121,3,Stim_A.csv,Global.csv,Global,A,butter,,B3,,,88,Study,User,1.25,,Bread,B3,2412,,,-1,-1,,,,,1
65aa8b1b46af6e5c652bb438,rpwiv645ah,Ex2A_Prolific,1,147,2024-03-01T20:24:06+00:00,19.537603855133,3,Stim_A.csv,Global.csv,Global,A,toast,,B4,,,89,Study,User,1.25,,Bread,B4,19031,,,-1,-1,,,,,1
65aa8b1b46af6e5c652bb438,rpwiv645ah,Ex2A_Prolific,1,148,2024-03-01T20:24:09+00:00,3.1420221328735,3,Stim_A.csv,Global.csv,Global,A,dough,,B5,,,90,Study,User,1.25,,Bread,B5,2609,,,-1,-1,,,,,1
65aa8b1b46af6e5c652bb438,rpwiv645ah,Ex2A_Prolific,1,149,2024-03-01T20:24:11+00:00,2.4055969715118,3,Stim_A.csv,Global.csv,Global,A,crust,,B6,,,91,Study,User,1.25,,Bread,B6,1833,,,-1,-1,,,,,1
65aa8b1b46af6e5c652bb438,rpwiv645ah,Ex2A_Prolific,1,150,2024-03-01T20:24:14+00:00,2.2291898727417,3,Stim_A.csv,Global.csv,Global,A,flour,,B7,,,92,Study,User,1.25,,Bread,B7,1719,,,-1,-1,,,,,1
65aa8b1b46af6e5c652bb438,rpwiv645ah,Ex2A_Prolific,1,151,2024-03-01T20:24:16+00:00,2.2111141681671,3,Stim_A.csv,Global.csv,Global,A,sandwich,,B8,,,93,Study,User,1.25,,Bread,B8,1674,,,-1,-1,,,,,1
65aa8b1b46af6e5c652bb438,rpwiv645ah,Ex2A_Prolific,1,152,2024-03-01T20:24:18+00:00,2.6227898597717,3,Stim_A.csv,Global.csv,Global,A,jam,,B9,,,94,Study,User,1.25,,Bread,B9,2126,,,-1,-1,,,,,1
65aa8b1b46af6e5c652bb438,rpwiv645ah,Ex2A_Prolific,1,153,2024-03-01T20:24:21+00:00,2.2763719558716,3,Stim_A.csv,Global.csv,Global,A,jelly,,B10,,,95,Study,User,1.25,,Bread,B10,1752,,,-1,-1,,,,,1
65aa8b1b46af6e5c652bb438,rpwiv645ah,Ex2A_Prolific,1,154,2024-03-01T20:24:23+00:00,2.1703472137451,3,Stim_A.csv,Global.csv,Global,A,slice,,B11,,,96,Study,User,1.25,,Bread,B11,1674,,,-1,-1,,,,,1
65aa8b1b46af6e5c652bb438,rpwiv645ah,Ex2A_Prolific,1,155,2024-03-01T20:24:25+00:00,2.3208878040314,3,Stim_A.csv,Global.csv,Global,A,milk,,B12,,,97,Study,User,1.25,,Bread,B12,1850,,,-1,-1,,,,,1
65aa8b1b46af6e5c652bb438,rpwiv645ah,Ex2A_Prolific,1,156,2024-03-01T20:24:27+00:00,2.1435890197754,3,Stim_A.csv,Global.csv,Global,A,,,,,,0,Instruct,User,-,"You have completed this section and will now be asked to judge your ability to remember the list items you just studied. You will have four seconds to type your rating. Please click next to continue.",,Next_List1,1622,,,-1,-1,,,,,1
65aa8b1b46af6e5c652bb438,rpwiv645ah,Ex2A_Prolific,1,157,2024-03-01T20:24:33+00:00,5.9241011142731,3,Stim_A.csv,Global.csv,Global,A,,,,,,0,JOL_GLOBAL,5,5,"How likely are you to correctly recall each of the items you just studied?|Type your response on a scale from 0-100 and then press Enter (0 = WILL NOT REMEMBER; 100 = DEFINITELY WILL REMEMBER).",Related,JOL8,5005,,,-1,-1,,,,20,1
65aa8b1b46af6e5c652bb438,rpwiv645ah,Ex2A_Prolific,1,158,2024-03-01T20:24:39+00:00,5.3600609302521,3,Stim_A.csv,Global.csv,Global,A,,,,,,0,Instruct,User,4,"You have completed this section. Please click next.",,Instruct166,4889,,,-1,-1,,,,,1
65aa8b1b46af6e5c652bb438,rpwiv645ah,Ex2A_Prolific,1,159,2024-03-01T20:25:09+00:00,30.530343055725,3,Stim_A.csv,Global.csv,Global,A,,,,,,0,FreeRecall,30,30,"Please type as many words as you can that begin with the letter ""K"". The computer will automatically advance to the next screen in 30 seconds.",,FILLER,30006,"Kill kraken kids know knowledge kn",0,-1,-1,0,0,,,1
65aa8b1b46af6e5c652bb438,rpwiv645ah,Ex2A_Prolific,1,160,2024-03-01T20:25:12+00:00,3.2128238677979,3,Stim_A.csv,Global.csv,Global,A,,,,,,0,Instruct,User,-,"You have completed this section. Please click next.",,Instruct166,2824,,,-1,-1,,,,,1
65aa8b1b46af6e5c652bb438,rpwiv645ah,Ex2A_Prolific,1,161,2024-03-01T20:25:18+00:00,5.3369560241699,3,Stim_A.csv,Global.csv,Global,A,,,,,,0,Instruct,User,4,"You will now complete a memory test for the words you just studied. Please type as many words from the previous list as you can seperated by a comma. Spelling will not count against you and you can recall the words in any order. This test will be timed for one minute, and the computer will automatically advance once time is up. Click next when you are ready to begin.",,Instruct1666,4845,,,-1,-1,,,,,1
65aa8b1b46af6e5c652bb438,rpwiv645ah,Ex2A_Prolific,1,162,2024-03-01T20:26:09+00:00,51.197847127914,3,Stim_A.csv,Global.csv,Global,A,,,,,,0,FreeRecall,60,1.25,"Please type as many words as you can from the previous study list in any order. Please separate each word with a comma. Spelling will not count against you. This screen will automatically advance in one minute.",,RECALL_Test,50207,"Slice, bread, dough, jam, ",0,-1,-1,0,0,,,1
65aa8b1b46af6e5c652bb438,rpwiv645ah,Ex2A_Prolific,1,163,2024-03-01T20:26:44+00:00,35.138429880142,3,Stim_A.csv,Global.csv,Global,A,,,,,,0,Instruct,User,3,"You will now be presented with a new study list. Click next when you are ready to begin.",,NEXT_LIST,34623,,,-1,-1,,,,,1
65aa8b1b46af6e5c652bb438,rpwiv645ah,Ex2A_Prolific,1,164,2024-03-01T20:26:47+00:00,3.3743741512299,3,Stim_A.csv,Global.csv,Global,A,banner,,F1,,,98,Study,User,1.25,,Flag,F1,2911,,,-1,-1,,,,,1
65aa8b1b46af6e5c652bb438,rpwiv645ah,Ex2A_Prolific,1,165,2024-03-01T20:26:50+00:00,2.7166199684143,3,Stim_A.csv,Global.csv,Global,A,checkered,,F2,,,99,Study,User,1.25,,Flag,F2,2183,,,-1,-1,,,,,1
65aa8b1b46af6e5c652bb438,rpwiv645ah,Ex2A_Prolific,1,166,2024-03-01T20:26:53+00:00,2.5807290077209,3,Stim_A.csv,Global.csv,Global,A,american,,F3,,,100,Study,User,1.25,,Flag,F3,2114,,,-1,-1,,,,,1
65aa8b1b46af6e5c652bb438,rpwiv645ah,Ex2A_Prolific,1,167,2024-03-01T20:27:00+00:00,7.7597360610962,3,Stim_A.csv,Global.csv,Global,A,stripes,,F4,,,101,Study,User,1.25,,Flag,F4,7261,,,-1,-1,,,,,1
65aa8b1b46af6e5c652bb438,rpwiv645ah,Ex2A_Prolific,1,168,2024-03-01T20:27:09+00:00,8.2887279987335,3,Stim_A.csv,Global.csv,Global,A,pole,,F5,,,102,Study,User,1.25,,Flag,F5,7818,,,-1,-1,,,,,1
65aa8b1b46af6e5c652bb438,rpwiv645ah,Ex2A_Prolific,1,169,2024-03-01T20:27:15+00:00,5.9790089130402,3,Stim_A.csv,Global.csv,Global,A,anthem,,F6,,,103,Study,User,1.25,,Flag,F6,5495,,,-1,-1,,,,,1
65aa8b1b46af6e5c652bb438,rpwiv645ah,Ex2A_Prolific,1,170,2024-03-01T20:27:17+00:00,2.6144380569458,3,Stim_A.csv,Global.csv,Global,A,emblem,,F7,,,104,Study,User,1.25,,Flag,F7,2139,,,-1,-1,,,,,1
65aa8b1b46af6e5c652bb438,rpwiv645ah,Ex2A_Prolific,1,171,2024-03-01T20:27:21+00:00,3.2062108516693,3,Stim_A.csv,Global.csv,Global,A,national,,F8,,,105,Study,User,1.25,,Flag,F8,2717,,,-1,-1,,,,,1
65aa8b1b46af6e5c652bb438,rpwiv645ah,Ex2A_Prolific,1,172,2024-03-01T20:27:23+00:00,2.4228720664978,3,Stim_A.csv,Global.csv,Global,A,freedom,,F9,,,106,Study,User,1.25,,Flag,F9,1869,,,-1,-1,,,,,1
65aa8b1b46af6e5c652bb438,rpwiv645ah,Ex2A_Prolific,1,173,2024-03-01T20:27:26+00:00,2.9706070423126,3,Stim_A.csv,Global.csv,Global,A,symbol,,F10,,,107,Study,User,1.25,,Flag,F10,2479,,,-1,-1,,,,,1
65aa8b1b46af6e5c652bb438,rpwiv645ah,Ex2A_Prolific,1,174,2024-03-01T20:27:29+00:00,3.5614590644836,3,Stim_A.csv,Global.csv,Global,A,wave,,F11,,,108,Study,User,1.25,,Flag,F11,3148,,,-1,-1,,,,,1
65aa8b1b46af6e5c652bb438,rpwiv645ah,Ex2A_Prolific,1,175,2024-03-01T20:27:34+00:00,4.1510009765625,3,Stim_A.csv,Global.csv,Global,A,stars,,F12,,,109,Study,User,1.25,,Flag,F12,3641,,,-1,-1,,,,,1
65aa8b1b46af6e5c652bb438,rpwiv645ah,Ex2A_Prolific,1,176,2024-03-01T20:27:50+00:00,16.650207996368,3,Stim_A.csv,Global.csv,Global,A,,,,,,0,Instruct,User,-,"You have completed this section and will now be asked to judge your ability to remember the list items you just studied. You will have four seconds to type your rating. Please click next to continue.",,Next_List1,16091,,,-1,-1,,,,,1
65aa8b1b46af6e5c652bb438,rpwiv645ah,Ex2A_Prolific,1,177,2024-03-01T20:27:56+00:00,5.4347639083862,3,Stim_A.csv,Global.csv,Global,A,,,,,,0,JOL_GLOBAL,5,5,"How likely are you to correctly recall each of the items you just studied?|Type your response on a scale from 0-100 and then press Enter (0 = WILL NOT REMEMBER; 100 = DEFINITELY WILL REMEMBER).",Related,JOL9,5006,,,-1,-1,,,,,1
65aa8b1b46af6e5c652bb438,rpwiv645ah,Ex2A_Prolific,1,178,2024-03-01T20:28:04+00:00,8.2811269760132,3,Stim_A.csv,Global.csv,Global,A,,,,,,0,Instruct,User,4,"You have completed this section. Please click next.",,Instruct166,7789,,,-1,-1,,,,,1
65aa8b1b46af6e5c652bb438,rpwiv645ah,Ex2A_Prolific,1,179,2024-03-01T20:28:35+00:00,30.891027927399,3,Stim_A.csv,Global.csv,Global,A,,,,,,0,FreeRecall,30,30,"Please type as many words as you can that begin with the letter ""S"". The computer will automatically advance to the next screen in 30 seconds.",,FILLER,30007,"Swim swimmer swimming swimmingly Swan ",0,-1,-1,0,0,,,1
65aa8b1b46af6e5c652bb438,rpwiv645ah,Ex2A_Prolific,1,180,2024-03-01T20:28:45+00:00,9.7359051704407,3,Stim_A.csv,Global.csv,Global,A,,,,,,0,Instruct,User,4,"You have completed this section. Please click next.",,Instruct166,9303,,,-1,-1,,,,,1
65aa8b1b46af6e5c652bb438,rpwiv645ah,Ex2A_Prolific,1,181,2024-03-01T20:28:58+00:00,13.06077504158,3,Stim_A.csv,Global.csv,Global,A,,,,,,0,Instruct,User,4,"You will now complete a memory test for the words you just studied. Please type as many words from the previous list as you can seperated by a comma. Spelling will not count against you and you can recall the words in any order. This test will be timed for one minute, and the computer will automatically advance once time is up. Click next when you are ready to begin.",,Instruct1666,12493,,,-1,-1,,,,,1
65aa8b1b46af6e5c652bb438,rpwiv645ah,Ex2A_Prolific,1,182,2024-03-01T20:29:59+00:00,61.081885814667,3,Stim_A.csv,Global.csv,Global,A,,,,,,0,FreeRecall,60,60,"Please type as many words as you can from the previous study list in any order. Please separate each word with a comma. Spelling will not count against you. This screen will automatically advance in one minute.",,RECALL_Test,60004,"Banner, national, checkered, ",0,-1,-1,0,0,,,1
65aa8b1b46af6e5c652bb438,rpwiv645ah,Ex2A_Prolific,1,183,2024-03-01T20:30:23+00:00,24.244197130203,3,Stim_A.csv,Global.csv,Global,A,,,,,,0,Instruct,User,3,"You will now be presented with a new study list. Click next when you are ready to begin.",,NEXT_LIST,23768,,,-1,-1,,,,,1
65aa8b1b46af6e5c652bb438,rpwiv645ah,Ex2A_Prolific,1,184,2024-03-01T20:32:18+00:00,114.60686397552,3,Stim_A.csv,Global.csv,Global,A,blouse,,SS1,,,110,Study,User,1.25,,Shirt,SS1,113895,,,-1,-1,,,,,1
65aa8b1b46af6e5c652bb438,rpwiv645ah,Ex2A_Prolific,1,185,2024-03-01T20:32:35+00:00,17.199383020401,3,Stim_A.csv,Global.csv,Global,A,sleeves,,SS2,,,111,Study,User,1.25,,Shirt,SS2,16719,,,-1,-1,,,,,1
65aa8b1b46af6e5c652bb438,rpwiv645ah,Ex2A_Prolific,1,186,2024-03-01T20:32:37+00:00,2.3864989280701,3,Stim_A.csv,Global.csv,Global,A,collar,,SS3,,,112,Study,User,1.25,,Shirt,SS3,1851,,,-1,-1,,,,,1
65aa8b1b46af6e5c652bb438,rpwiv645ah,Ex2A_Prolific,1,187,2024-03-01T20:32:39+00:00,2.2333979606628,3,Stim_A.csv,Global.csv,Global,A,shorts,,SS4,,,113,Study,User,1.25,,Shirt,SS4,1711,,,-1,-1,,,,,1
65aa8b1b46af6e5c652bb438,rpwiv645ah,Ex2A_Prolific,1,188,2024-03-01T20:32:42+00:00,2.1851470470428,3,Stim_A.csv,Global.csv,Global,A,button,,SS5,,,114,Study,User,1.25,,Shirt,SS5,1657,,,-1,-1,,,,,1
65aa8b1b46af6e5c652bb438,rpwiv645ah,Ex2A_Prolific,1,189,2024-03-01T20:32:44+00:00,2.1242110729218,3,Stim_A.csv,Global.csv,Global,A,pants,,SS6,,,115,Study,User,1.25,,Shirt,SS6,1625,,,-1,-1,,,,,1
65aa8b1b46af6e5c652bb438,rpwiv645ah,Ex2A_Prolific,1,190,2024-03-01T20:32:46+00:00,2.584244966507,3,Stim_A.csv,Global.csv,Global,A,polo,,SS7,,,116,Study,User,1.25,,Shirt,SS7,2071,,,-1,-1,,,,,1
65aa8b1b46af6e5c652bb438,rpwiv645ah,Ex2A_Prolific,1,191,2024-03-01T20:32:50+00:00,3.6530458927155,3,Stim_A.csv,Global.csv,Global,A,jersey,,SS8,,,117,Study,User,1.25,,Shirt,SS8,3149,,,-1,-1,,,,,1
65aa8b1b46af6e5c652bb438,rpwiv645ah,Ex2A_Prolific,1,192,2024-03-01T20:32:52+00:00,2.4172530174255,3,Stim_A.csv,Global.csv,Global,A,vest,,SS9,,,118,Study,User,1.25,,Shirt,SS9,1887,,,-1,-1,,,,,1
65aa8b1b46af6e5c652bb438,rpwiv645ah,Ex2A_Prolific,1,193,2024-03-01T20:32:55+00:00,2.5128300189972,3,Stim_A.csv,Global.csv,Global,A,cuffs,,SS10,,,119,Study,User,1.25,,Shirt,SS10,1946,,,-1,-1,,,,,1
65aa8b1b46af6e5c652bb438,rpwiv645ah,Ex2A_Prolific,1,194,2024-03-01T20:32:58+00:00,2.8710160255432,3,Stim_A.csv,Global.csv,Global,A,tie,,SS11,,,120,Study,User,1.25,,Shirt,SS11,2368,,,-1,-1,,,,,1
65aa8b1b46af6e5c652bb438,rpwiv645ah,Ex2A_Prolific,1,195,2024-03-01T20:33:00+00:00,2.2978839874268,3,Stim_A.csv,Global.csv,Global,A,pocket,,SS12,,,121,Study,User,1.25,,Shirt,SS12,1907,,,-1,-1,,,,,1
65aa8b1b46af6e5c652bb438,rpwiv645ah,Ex2A_Prolific,1,196,2024-03-01T20:33:04+00:00,4.0524830818176,3,Stim_A.csv,Global.csv,Global,A,,,,,,0,Instruct,User,-,"You have completed this section and will now be asked to judge your ability to remember the list items you just studied. You will have four seconds to type your rating. Please click next to continue.",,Next_List1,3483,,,-1,-1,,,,,1
65aa8b1b46af6e5c652bb438,rpwiv645ah,Ex2A_Prolific,1,197,2024-03-01T20:33:10+00:00,5.513041973114,3,Stim_A.csv,Global.csv,Global,A,,,,,,0,JOL_GLOBAL,5,5,"How likely are you to correctly recall each of the items you just studied?|Type your response on a scale from 0-100 and then press Enter (0 = WILL NOT REMEMBER; 100 = DEFINITELY WILL REMEMBER).",Related,JOL10,5004,,,-1,-1,,,,10,1
65aa8b1b46af6e5c652bb438,rpwiv645ah,Ex2A_Prolific,1,198,2024-03-01T20:33:15+00:00,4.9838938713074,3,Stim_A.csv,Global.csv,Global,A,,,,,,0,Instruct,User,-,"You have completed this section. Please click next.",,Instruct166,4458,,,-1,-1,,,,,1
65aa8b1b46af6e5c652bb438,rpwiv645ah,Ex2A_Prolific,1,199,2024-03-01T20:33:45+00:00,30.589193105698,3,Stim_A.csv,Global.csv,Global,A,,,,,,0,FreeRecall,30,30,"Please type as many words as you can that begin with the letter ""W"". The computer will automatically advance to the next screen in 30 seconds.",,FILLER,30003,"Want West wrought weather wanted wreath witch week wrong ",0,-1,-1,0,0,,,1
65aa8b1b46af6e5c652bb438,rpwiv645ah,Ex2A_Prolific,1,200,2024-03-01T20:33:47+00:00,1.8233630657196,3,Stim_A.csv,Global.csv,Global,A,,,,,,0,Instruct,User,-,"You have completed this section. Please click next.",,Instruct166,1410,,,-1,-1,,,,,1
65aa8b1b46af6e5c652bb438,rpwiv645ah,Ex2A_Prolific,1,201,2024-03-01T20:33:52+00:00,5.1435258388519,3,Stim_A.csv,Global.csv,Global,A,,,,,,0,Instruct,User,4,"You will now complete a memory test for the words you just studied. Please type as many words from the previous list as you can seperated by a comma. Spelling will not count against you and you can recall the words in any order. This test will be timed for one minute, and the computer will automatically advance once time is up. Click next when you are ready to begin.",,Instruct1666,4750,,,-1,-1,,,,,1
65aa8b1b46af6e5c652bb438,rpwiv645ah,Ex2A_Prolific,1,202,2024-03-01T20:34:53+00:00,60.503377199173,3,Stim_A.csv,Global.csv,Global,A,,,,,,0,FreeRecall,60,60,"Please type as many words as you can from the previous study list in any order. Please separate each word with a comma. Spelling will not count against you. This screen will automatically advance in one minute.",,RECALL_Test,60005,"Blouse, shorts, buttons, tie, sleeves, collar",0,-1,-1,0,0,,,1
65aa8b1b46af6e5c652bb438,rpwiv645ah,Ex2A_Prolific,1,203,2024-03-01T20:34:55+00:00,2.4404978752136,3,Stim_A.csv,Global.csv,Global,A,,,,,,0,Instruct,User,-,"You have completed this section. Please click next.",,Instruct7,2036,,,-1,-1,,,,,1
65aa8b1b46af6e5c652bb438,rpwiv645ah,Ex2A_Prolific,1,204,2024-03-01T20:34:59+00:00,4.1702799797058,3,Stim_A.csv,Global.csv,Global,A,,,,,,0,Instruct,User,-,"The following screen will ask you a few questions abour your experience today. You must complete these questions to receive credit.",,Instruct8,3651,,,-1,-1,,,,,1
