Username,ID,ExperimentName,Session,Trial,Date,TimeDif,"Condition Number","Stimuli File","Order File","Condition Description","Condition Notes",Stimuli*Cue,Stimuli*Answer,Stimuli*Shuffle,"Stimuli*Stimuli Notes",Stimuli*Value,Procedure*Item,"Procedure*Trial Type","Procedure*Max Time","Procedure*Min Time",Procedure*Text,"Procedure*Procedure Notes",Procedure*Shuffle,Response*RT,Response*Response,Response*Accuracy,Response*RTfirst,Response*RTlast,Response*strictAcc,Response*lenientAcc,Response*focus,Response*JOL,Response*Focus
65a961d8a6a64526a0d975a8,ir9qia3my4,Ex2A_Prolific,1,1,2024-02-28T20:08:24+00:00,6.3037741184235,3,Stim_A.csv,Global.csv,Global,A,,,,,,0,Instruct,-,5,"In this section, you will be presented with a series of words. Please study each word carefully. Your memory will be tested!",Initial_Instruct,Instruct1,6129,,,-1,-1,,,,,1
65a961d8a6a64526a0d975a8,ir9qia3my4,Ex2A_Prolific,1,2,2024-02-28T20:08:32+00:00,8.3735830783844,3,Stim_A.csv,Global.csv,Global,A,,,,,,0,Instruct,User,5,"After studying each LIST of words, you will be asked to rate your ability to remember ALL of the words in the list on a later test. You will make these ratings using a scale of 0 to 100. A rating of 0 = WILL NOT REMEMBER, while a rating of 100 = WILL DEFINITELY REMEMBER. Please try to be as accurate as possible with these ratings!",,BLIPBLOOP,8157,,,-1,-1,,,,,1
65a961d8a6a64526a0d975a8,ir9qia3my4,Ex2A_Prolific,1,3,2024-02-28T20:08:34+00:00,2.0588858127594,3,Stim_A.csv,Global.csv,Global,A,,,,,,0,Instruct,User,1.25,"You will now begin the study. Click next when you are ready to begin.",,Instruct16,1841,,,-1,-1,,,,,1
65a961d8a6a64526a0d975a8,ir9qia3my4,Ex2A_Prolific,1,4,2024-02-28T20:08:40+00:00,5.8908760547638,3,Stim_A.csv,Global.csv,Global,A,pane,,Win_1,,,2,Study,User,1.25,,Window,Win_1,5674,,,-1,-1,,,,,1
65a961d8a6a64526a0d975a8,ir9qia3my4,Ex2A_Prolific,1,5,2024-02-28T20:08:43+00:00,2.8493051528931,3,Stim_A.csv,Global.csv,Global,A,sill,,Win_2,,,3,Study,User,1.25,,Window,Win_2,2649,,,-1,-1,,,,,1
65a961d8a6a64526a0d975a8,ir9qia3my4,Ex2A_Prolific,1,6,2024-02-28T20:08:45+00:00,2.0378589630127,3,Stim_A.csv,Global.csv,Global,A,shutter,,Win_3,,,4,Study,User,1.25,,Window,Win_3,1829,,,-1,-1,,,,,1
65a961d8a6a64526a0d975a8,ir9qia3my4,Ex2A_Prolific,1,7,2024-02-28T20:08:47+00:00,2.3399159908295,3,Stim_A.csv,Global.csv,Global,A,curtain,,Win_4,,,5,Study,User,1.25,,Window,Win_4,2130,,,-1,-1,,,,,1
65a961d8a6a64526a0d975a8,ir9qia3my4,Ex2A_Prolific,1,8,2024-02-28T20:08:49+00:00,2.0437848567963,3,Stim_A.csv,Global.csv,Global,A,door,,Win_5,,,6,Study,User,1.25,,Window,Win_5,1844,,,-1,-1,,,,,1
65a961d8a6a64526a0d975a8,ir9qia3my4,Ex2A_Prolific,1,9,2024-02-28T20:08:54+00:00,4.4531080722809,3,Stim_A.csv,Global.csv,Global,A,ledge,,Win_6,,,7,Study,User,1.25,,Window,Win_6,4252,,,-1,-1,,,,,1
65a961d8a6a64526a0d975a8,ir9qia3my4,Ex2A_Prolific,1,10,2024-02-28T20:09:02+00:00,7.8658690452576,3,Stim_A.csv,Global.csv,Global,A,glass,,Win_7,,,8,Study,User,1.25,,Window,Win_7,7658,,,-1,-1,,,,,1
65a961d8a6a64526a0d975a8,ir9qia3my4,Ex2A_Prolific,1,11,2024-02-28T20:09:10+00:00,8.0683529376984,3,Stim_A.csv,Global.csv,Global,A,view,,Win_8,,,9,Study,User,1.25,,Window,Win_8,7865,,,-1,-1,,,,,1
65a961d8a6a64526a0d975a8,ir9qia3my4,Ex2A_Prolific,1,12,2024-02-28T20:09:12+00:00,2.118824005127,3,Stim_A.csv,Global.csv,Global,A,screen,,Win_9,,,10,Study,User,1.25,,Window,Win_9,1910,,,-1,-1,,,,,1
65a961d8a6a64526a0d975a8,ir9qia3my4,Ex2A_Prolific,1,13,2024-02-28T20:09:14+00:00,2.3083760738373,3,Stim_A.csv,Global.csv,Global,A,shade,,Win_10,,,11,Study,User,1.25,,Window,Win_10,2086,,,-1,-1,,,,,1
65a961d8a6a64526a0d975a8,ir9qia3my4,Ex2A_Prolific,1,14,2024-02-28T20:09:17+00:00,2.3778948783875,3,Stim_A.csv,Global.csv,Global,A,open,,Win_11,,,12,Study,User,1.25,,Window,Win_11,2166,,,-1,-1,,,,,1
65a961d8a6a64526a0d975a8,ir9qia3my4,Ex2A_Prolific,1,15,2024-02-28T20:09:18+00:00,1.6142539978027,3,Stim_A.csv,Global.csv,Global,A,frame,,Win_12,,,13,Study,User,1.25,,Window,Win_12,1403,,,-1,-1,,,,,1
65a961d8a6a64526a0d975a8,ir9qia3my4,Ex2A_Prolific,1,16,2024-02-28T20:09:22+00:00,3.3775651454926,3,Stim_A.csv,Global.csv,Global,A,,,,,,0,Instruct,User,-,"You have completed this section and will now be asked to judge your ability to remember the list items you just studied. You will have four seconds to type your rating. Please click next to continue.",,Next_List1,3156,,,-1,-1,,,,,1
65a961d8a6a64526a0d975a8,ir9qia3my4,Ex2A_Prolific,1,17,2024-02-28T20:09:27+00:00,5.2275729179382,3,Stim_A.csv,Global.csv,Global,A,,,,,,0,JOL_GLOBAL,5,5,"How likely are you to correctly recall each of the items you just studied?|Type your response on a scale from 0-100 and then press Enter (0 = WILL NOT REMEMBER; 100 = DEFINITELY WILL REMEMBER).",Related,JOL1,5002,,,1805,2782,,,,25,1
65a961d8a6a64526a0d975a8,ir9qia3my4,Ex2A_Prolific,1,18,2024-02-28T20:09:29+00:00,1.8973350524902,3,Stim_A.csv,Global.csv,Global,A,,,,,,0,Instruct,User,-,"You have completed this section. Please click next.",,Instruct166,1679,,,-1,-1,,,,,1
65a961d8a6a64526a0d975a8,ir9qia3my4,Ex2A_Prolific,1,19,2024-02-28T20:09:59+00:00,30.209751844406,3,Stim_A.csv,Global.csv,Global,A,,,,,,0,FreeRecall,30,30,"Please type as many words as you can that begin with the letter ""W"". The computer will automatically advance to the next screen in 30 seconds.",,FILLER,30002,"window while white widow wind winter with wreath wring ",0,5740,27736,0,0,,,1
65a961d8a6a64526a0d975a8,ir9qia3my4,Ex2A_Prolific,1,20,2024-02-28T20:10:01+00:00,1.6913731098175,3,Stim_A.csv,Global.csv,Global,A,,,,,,0,Instruct,User,-,"You have completed this section. Please click next.",,Instruct166,1471,,,-1,-1,,,,,1
65a961d8a6a64526a0d975a8,ir9qia3my4,Ex2A_Prolific,1,21,2024-02-28T20:10:06+00:00,5.2840058803558,3,Stim_A.csv,Global.csv,Global,A,,,,,,0,Instruct,User,4,"You will now complete a memory test for the words you just studied. Please type as many words from the previous list as you can seperated by a comma. Spelling will not count against you and you can recall the words in any order. This test will be timed for one minute, and the computer will automatically advance once time is up. Click next when you are ready to begin.",,Instruct1666,5071,,,-1,-1,,,,,1
65a961d8a6a64526a0d975a8,ir9qia3my4,Ex2A_Prolific,1,22,2024-02-28T20:11:06+00:00,60.21723818779,3,Stim_A.csv,Global.csv,Global,A,,,,,,0,FreeRecall,60,60,"Please type as many words as you can from the previous study list in any order. Please separate each word with a comma. Spelling will not count against you. This screen will automatically advance in one minute.",,RECALL_Test,60000,"glass, ledge, sill, pane, open, window, door, shutter, ",0,1977,24931,0,0,,,1
65a961d8a6a64526a0d975a8,ir9qia3my4,Ex2A_Prolific,1,23,2024-02-28T20:11:14+00:00,7.4596679210663,3,Stim_A.csv,Global.csv,Global,A,,,,,,0,Instruct,User,3,"You will now be presented with a new study list. Click next when you are ready to begin.",,NEXT_LIST,7197,,,-1,-1,,,,,1
65a961d8a6a64526a0d975a8,ir9qia3my4,Ex2A_Prolific,1,24,2024-02-28T20:11:17+00:00,2.9190199375153,3,Stim_A.csv,Global.csv,Global,A,sandpaper,,R1,,,14,Study,User,1.25,,Rough,R1,2656,,,-1,-1,,,,,1
65a961d8a6a64526a0d975a8,ir9qia3my4,Ex2A_Prolific,1,25,2024-02-28T20:11:19+00:00,2.2609951496124,3,Stim_A.csv,Global.csv,Global,A,smooth,,R2,,,15,Study,User,1.25,,Rough,R2,2040,,,-1,-1,,,,,1
65a961d8a6a64526a0d975a8,ir9qia3my4,Ex2A_Prolific,1,26,2024-02-28T20:11:21+00:00,2.6469068527222,3,Stim_A.csv,Global.csv,Global,A,coarse,,R3,,,16,Study,User,1.25,,Rough,R3,2401,,,-1,-1,,,,,1
65a961d8a6a64526a0d975a8,ir9qia3my4,Ex2A_Prolific,1,27,2024-02-28T20:11:24+00:00,2.8567490577698,3,Stim_A.csv,Global.csv,Global,A,tough,,R4,,,17,Study,User,1.25,,Rough,R4,2648,,,-1,-1,,,,,1
65a961d8a6a64526a0d975a8,ir9qia3my4,Ex2A_Prolific,1,28,2024-02-28T20:11:28+00:00,3.8355469703674,3,Stim_A.csv,Global.csv,Global,A,rugged,,R5,,,18,Study,User,1.25,,Rough,R5,3590,,,-1,-1,,,,,1
65a961d8a6a64526a0d975a8,ir9qia3my4,Ex2A_Prolific,1,29,2024-02-28T20:11:32+00:00,4.1392850875854,3,Stim_A.csv,Global.csv,Global,A,bumpy,,R6,,,19,Study,User,1.25,,Rough,R6,3915,,,-1,-1,,,,,1
65a961d8a6a64526a0d975a8,ir9qia3my4,Ex2A_Prolific,1,30,2024-02-28T20:11:38+00:00,6.0769538879395,3,Stim_A.csv,Global.csv,Global,A,jagged,,R7,,,20,Study,User,1.25,,Rough,R7,5873,,,-1,-1,,,,,1
65a961d8a6a64526a0d975a8,ir9qia3my4,Ex2A_Prolific,1,31,2024-02-28T20:11:56+00:00,18.071699142456,3,Stim_A.csv,Global.csv,Global,A,riders,,R8,,,21,Study,User,1.25,,Rough,R8,17840,,,-1,-1,,,,,1
65a961d8a6a64526a0d975a8,ir9qia3my4,Ex2A_Prolific,1,32,2024-02-28T20:12:12+00:00,15.812093019485,3,Stim_A.csv,Global.csv,Global,A,uneven,,R9,,,22,Study,User,1.25,,Rough,R9,15590,,,-1,-1,,,,,1
65a961d8a6a64526a0d975a8,ir9qia3my4,Ex2A_Prolific,1,33,2024-02-28T20:12:15+00:00,2.7119708061218,3,Stim_A.csv,Global.csv,Global,A,road,,R10,,,23,Study,User,1.25,,Rough,R10,2469,,,-1,-1,,,,,1
65a961d8a6a64526a0d975a8,ir9qia3my4,Ex2A_Prolific,1,34,2024-02-28T20:12:17+00:00,2.231504201889,3,Stim_A.csv,Global.csv,Global,A,ready,,R11,,,24,Study,User,1.25,,Rough,R11,2028,,,-1,-1,,,,,1
65a961d8a6a64526a0d975a8,ir9qia3my4,Ex2A_Prolific,1,35,2024-02-28T20:12:19+00:00,1.91104388237,3,Stim_A.csv,Global.csv,Global,A,sand,,R12,,,25,Study,User,1.25,,Rough,R12,1699,,,-1,-1,,,,,1
65a961d8a6a64526a0d975a8,ir9qia3my4,Ex2A_Prolific,1,36,2024-02-28T20:12:20+00:00,1.2515840530396,3,Stim_A.csv,Global.csv,Global,A,,,,,,0,Instruct,User,-,"You have completed this section and will now be asked to judge your ability to remember the list items you just studied. You will have four seconds to type your rating. Please click next to continue.",,Next_List1,1046,,,-1,-1,,,,,1
65a961d8a6a64526a0d975a8,ir9qia3my4,Ex2A_Prolific,1,37,2024-02-28T20:12:26+00:00,5.2014648914337,3,Stim_A.csv,Global.csv,Global,A,,,,,,0,JOL_GLOBAL,5,5,"How likely are you to correctly recall each of the items you just studied?|Type your response on a scale from 0-100 and then press Enter (0 = WILL NOT REMEMBER; 100 = DEFINITELY WILL REMEMBER).",Unrelated,JOL2,5003,,,1427,1562,,,,10,1
65a961d8a6a64526a0d975a8,ir9qia3my4,Ex2A_Prolific,1,38,2024-02-28T20:12:30+00:00,4.5674061775208,3,Stim_A.csv,Global.csv,Global,A,,,,,,0,Instruct,User,4,"You have completed this section. Please click next.",,Instruct166,4369,,,-1,-1,,,,,1
65a961d8a6a64526a0d975a8,ir9qia3my4,Ex2A_Prolific,1,39,2024-02-28T20:13:00+00:00,30.226527929306,3,Stim_A.csv,Global.csv,Global,A,,,,,,0,FreeRecall,30,30,"Please type as many words as you can that begin with the letter ""L"". The computer will automatically advance to the next screen in 30 seconds.",,FILLER,30001,"loser lame list long longer lunge lounge lung lug lair land last",0,1393,29754,0,0,,,1
65a961d8a6a64526a0d975a8,ir9qia3my4,Ex2A_Prolific,1,40,2024-02-28T20:13:02+00:00,1.9788348674774,3,Stim_A.csv,Global.csv,Global,A,,,,,,0,Instruct,User,-,"You have completed this section. Please click next.",,Instruct166,1767,,,-1,-1,,,,,1
65a961d8a6a64526a0d975a8,ir9qia3my4,Ex2A_Prolific,1,41,2024-02-28T20:13:08+00:00,5.3037600517273,3,Stim_A.csv,Global.csv,Global,A,,,,,,0,Instruct,User,4,"You will now complete a memory test for the words you just studied. Please type as many words from the previous list as you can seperated by a comma. Spelling will not count against you and you can recall the words in any order. This test will be timed for one minute, and the computer will automatically advance once time is up. Click next when you are ready to begin.",,Instruct1666,5082,,,-1,-1,,,,,1
65a961d8a6a64526a0d975a8,ir9qia3my4,Ex2A_Prolific,1,42,2024-02-28T20:14:08+00:00,60.254122018814,3,Stim_A.csv,Global.csv,Global,A,,,,,,0,FreeRecall,60,60,"Please type as many words as you can from the previous study list in any order. Please separate each word with a comma. Spelling will not count against you. This screen will automatically advance in one minute.",,RECALL_Test,60000,"sandpaper, smooth, coarse, rough, jagged, bumpy, uneven, riders, sand, road, ready",0,600,27456,0,0,,,0.99
65a961d8a6a64526a0d975a8,ir9qia3my4,Ex2A_Prolific,1,43,2024-02-28T20:14:14+00:00,6.0386769771576,3,Stim_A.csv,Global.csv,Global,A,,,,,,0,Instruct,User,3,"You will now be presented with a new study list. Click next when you are ready to begin.",,NEXT_LIST,5794,,,-1,-1,,,,,1
65a961d8a6a64526a0d975a8,ir9qia3my4,Ex2A_Prolific,1,44,2024-02-28T20:14:17+00:00,3.4490151405334,3,Stim_A.csv,Global.csv,Global,A,rage,,A1,,,26,Study,User,1.25,,Anger,A1,3242,,,-1,-1,,,,,1
65a961d8a6a64526a0d975a8,ir9qia3my4,Ex2A_Prolific,1,45,2024-02-28T20:14:21+00:00,3.3169348239899,3,Stim_A.csv,Global.csv,Global,A,mad,,A2,,,27,Study,User,1.25,,Anger,A2,3105,,,-1,-1,,,,,1
65a961d8a6a64526a0d975a8,ir9qia3my4,Ex2A_Prolific,1,46,2024-02-28T20:14:24+00:00,3.1872160434723,3,Stim_A.csv,Global.csv,Global,A,enrage,,A3,,,28,Study,User,1.25,,Anger,A3,2947,,,-1,-1,,,,,1
65a961d8a6a64526a0d975a8,ir9qia3my4,Ex2A_Prolific,1,47,2024-02-28T20:14:27+00:00,3.0784640312195,3,Stim_A.csv,Global.csv,Global,A,fury,,A4,,,29,Study,User,1.25,,Anger,A4,2877,,,-1,-1,,,,,1
65a961d8a6a64526a0d975a8,ir9qia3my4,Ex2A_Prolific,1,48,2024-02-28T20:14:30+00:00,3.2396509647369,3,Stim_A.csv,Global.csv,Global,A,temper,,A5,,,30,Study,User,1.25,,Anger,A5,3020,,,-1,-1,,,,,1
65a961d8a6a64526a0d975a8,ir9qia3my4,Ex2A_Prolific,1,49,2024-02-28T20:14:34+00:00,3.9396140575409,3,Stim_A.csv,Global.csv,Global,A,ire,,A6,,,31,Study,User,1.25,,Anger,A6,3728,,,-1,-1,,,,,1
65a961d8a6a64526a0d975a8,ir9qia3my4,Ex2A_Prolific,1,50,2024-02-28T20:14:39+00:00,4.4007840156555,3,Stim_A.csv,Global.csv,Global,A,wrath,,A7,,,32,Study,User,1.25,,Anger,A7,4187,,,-1,-1,,,,,1
65a961d8a6a64526a0d975a8,ir9qia3my4,Ex2A_Prolific,1,51,2024-02-28T20:14:44+00:00,5.386246919632,3,Stim_A.csv,Global.csv,Global,A,mean,,A8,,,33,Study,User,1.25,,Anger,A8,5173,,,-1,-1,,,,,1
65a961d8a6a64526a0d975a8,ir9qia3my4,Ex2A_Prolific,1,52,2024-02-28T20:14:56+00:00,11.941689968109,3,Stim_A.csv,Global.csv,Global,A,hatred,,A9,,,34,Study,User,1.25,,Anger,A9,11712,,,-1,-1,,,,,1
65a961d8a6a64526a0d975a8,ir9qia3my4,Ex2A_Prolific,1,53,2024-02-28T20:15:09+00:00,13.001065015793,3,Stim_A.csv,Global.csv,Global,A,fight,,A10,,,35,Study,User,1.25,,Anger,A10,12769,,,-1,-1,,,,,1
65a961d8a6a64526a0d975a8,ir9qia3my4,Ex2A_Prolific,1,54,2024-02-28T20:15:25+00:00,16.243147134781,3,Stim_A.csv,Global.csv,Global,A,hate,,A11,,,36,Study,User,1.25,,Anger,A11,16025,,,-1,-1,,,,,1
65a961d8a6a64526a0d975a8,ir9qia3my4,Ex2A_Prolific,1,55,2024-02-28T20:15:28+00:00,3.2400548458099,3,Stim_A.csv,Global.csv,Global,A,fear,,A12,,,37,Study,User,1.25,,Anger,A12,3043,,,-1,-1,,,,,1
65a961d8a6a64526a0d975a8,ir9qia3my4,Ex2A_Prolific,1,56,2024-02-28T20:15:30+00:00,1.7572290897369,3,Stim_A.csv,Global.csv,Global,A,,,,,,0,Instruct,User,-,"You have completed this section and will now be asked to judge your ability to remember the list items you just studied. You will have four seconds to type your rating. Please click next to continue.",,Next_List1,1525,,,-1,-1,,,,,1
65a961d8a6a64526a0d975a8,ir9qia3my4,Ex2A_Prolific,1,57,2024-02-28T20:15:35+00:00,5.2127559185028,3,Stim_A.csv,Global.csv,Global,A,,,,,,0,JOL_GLOBAL,5,5,"How likely are you to correctly recall each of the items you just studied?|Type your response on a scale from 0-100 and then press Enter (0 = WILL NOT REMEMBER; 100 = DEFINITELY WILL REMEMBER).",Related,JOL3,5000,,,847,1132,,,,20,1
65a961d8a6a64526a0d975a8,ir9qia3my4,Ex2A_Prolific,1,58,2024-02-28T20:15:37+00:00,1.6258230209351,3,Stim_A.csv,Global.csv,Global,A,,,,,,0,Instruct,User,-,"You have completed this section. Please click next.",,Instruct166,1401,,,-1,-1,,,,,1
65a961d8a6a64526a0d975a8,ir9qia3my4,Ex2A_Prolific,1,59,2024-02-28T20:16:07+00:00,30.202460050583,3,Stim_A.csv,Global.csv,Global,A,,,,,,0,FreeRecall,30,30,"Please type as many words as you can that begin with the letter ""T"". The computer will automatically advance to the next screen in 30 seconds.",,FILLER,30002,"tongue tong tattle tail tale tumble tin tan tonne",0,4358,29319,0,0,,,1
65a961d8a6a64526a0d975a8,ir9qia3my4,Ex2A_Prolific,1,60,2024-02-28T20:16:14+00:00,6.4489440917969,3,Stim_A.csv,Global.csv,Global,A,,,,,,0,Instruct,User,4,"You have completed this section. Please click next.",,Instruct166,6210,,,-1,-1,,,,,1
65a961d8a6a64526a0d975a8,ir9qia3my4,Ex2A_Prolific,1,61,2024-02-28T20:16:19+00:00,5.1590650081635,3,Stim_A.csv,Global.csv,Global,A,,,,,,0,Instruct,User,4,"You will now complete a memory test for the words you just studied. Please type as many words from the previous list as you can seperated by a comma. Spelling will not count against you and you can recall the words in any order. This test will be timed for one minute, and the computer will automatically advance once time is up. Click next when you are ready to begin.",,Instruct1666,4932,,,-1,-1,,,,,1
65a961d8a6a64526a0d975a8,ir9qia3my4,Ex2A_Prolific,1,62,2024-02-28T20:17:19+00:00,60.234620809555,3,Stim_A.csv,Global.csv,Global,A,,,,,,0,FreeRecall,60,60,"Please type as many words as you can from the previous study list in any order. Please separate each word with a comma. Spelling will not count against you. This screen will automatically advance in one minute.",,RECALL_Test,60001,"rage, enrage, mad, fury, temper, ire, wrath, hate, mean, fight, fear",0,830,22708,0,0,,,1
65a961d8a6a64526a0d975a8,ir9qia3my4,Ex2A_Prolific,1,63,2024-02-28T20:17:23+00:00,4.31951212883,3,Stim_A.csv,Global.csv,Global,A,,,,,,0,Instruct,User,3,"You will now be presented with a new study list. Click next when you are ready to begin.",,NEXT_LIST,4087,,,-1,-1,,,,,1
65a961d8a6a64526a0d975a8,ir9qia3my4,Ex2A_Prolific,1,64,2024-02-28T20:17:25+00:00,2.1846590042114,3,Stim_A.csv,Global.csv,Global,A,garbage,,T1,,,38,Study,User,1.25,,Trash,T1,1958,,,-1,-1,,,,,1
65a961d8a6a64526a0d975a8,ir9qia3my4,Ex2A_Prolific,1,65,2024-02-28T20:17:28+00:00,2.2804250717163,3,Stim_A.csv,Global.csv,Global,A,rubbish,,T2,,,39,Study,User,1.25,,Trash,T2,2046,,,-1,-1,,,,,1
65a961d8a6a64526a0d975a8,ir9qia3my4,Ex2A_Prolific,1,66,2024-02-28T20:17:30+00:00,2.3621459007263,3,Stim_A.csv,Global.csv,Global,A,debris,,T3,,,40,Study,User,1.25,,Trash,T3,2156,,,-1,-1,,,,,1
65a961d8a6a64526a0d975a8,ir9qia3my4,Ex2A_Prolific,1,67,2024-02-28T20:17:32+00:00,1.7766079902649,3,Stim_A.csv,Global.csv,Global,A,dump,,T4,,,41,Study,User,1.25,,Trash,T4,1573,,,-1,-1,,,,,1
65a961d8a6a64526a0d975a8,ir9qia3my4,Ex2A_Prolific,1,68,2024-02-28T20:17:36+00:00,4.0167300701141,3,Stim_A.csv,Global.csv,Global,A,litter,,T5,,,42,Study,User,1.25,,Trash,T5,3788,,,-1,-1,,,,,1
65a961d8a6a64526a0d975a8,ir9qia3my4,Ex2A_Prolific,1,69,2024-02-28T20:17:42+00:00,5.7459180355072,3,Stim_A.csv,Global.csv,Global,A,landfill,,T6,,,43,Study,User,1.25,,Trash,T6,5523,,,-1,-1,,,,,1
65a961d8a6a64526a0d975a8,ir9qia3my4,Ex2A_Prolific,1,70,2024-02-28T20:17:47+00:00,5.3623158931732,3,Stim_A.csv,Global.csv,Global,A,junk,,T7,,,44,Study,User,1.25,,Trash,T7,5124,,,-1,-1,,,,,1
65a961d8a6a64526a0d975a8,ir9qia3my4,Ex2A_Prolific,1,71,2024-02-28T20:17:56+00:00,9.2385730743408,3,Stim_A.csv,Global.csv,Global,A,waste,,T8,,,45,Study,User,1.25,,Trash,T8,9003,,,-1,-1,,,,,1
65a961d8a6a64526a0d975a8,ir9qia3my4,Ex2A_Prolific,1,72,2024-02-28T20:18:08+00:00,11.677613973618,3,Stim_A.csv,Global.csv,Global,A,sewage,,T9,,,46,Study,User,1.25,,Trash,T9,11443,,,-1,-1,,,,,1
65a961d8a6a64526a0d975a8,ir9qia3my4,Ex2A_Prolific,1,73,2024-02-28T20:18:23+00:00,15.256285905838,3,Stim_A.csv,Global.csv,Global,A,pile,,T10,,,47,Study,User,1.25,,Trash,T10,15019,,,-1,-1,,,,,1
65a961d8a6a64526a0d975a8,ir9qia3my4,Ex2A_Prolific,1,74,2024-02-28T20:18:26+00:00,2.6313199996948,3,Stim_A.csv,Global.csv,Global,A,scraps,,T11,,,48,Study,User,1.25,,Trash,T11,2391,,,-1,-1,,,,,1
65a961d8a6a64526a0d975a8,ir9qia3my4,Ex2A_Prolific,1,75,2024-02-28T20:18:28+00:00,2.2755899429321,3,Stim_A.csv,Global.csv,Global,A,refuse,,T12,,,49,Study,User,1.25,,Trash,T12,2057,,,-1,-1,,,,,1
65a961d8a6a64526a0d975a8,ir9qia3my4,Ex2A_Prolific,1,76,2024-02-28T20:18:30+00:00,1.4168860912323,3,Stim_A.csv,Global.csv,Global,A,,,,,,0,Instruct,User,-,"You have completed this section and will now be asked to judge your ability to remember the list items you just studied. You will have four seconds to type your rating. Please click next to continue.",,Next_List1,1207,,,-1,-1,,,,,1
65a961d8a6a64526a0d975a8,ir9qia3my4,Ex2A_Prolific,1,77,2024-02-28T20:18:35+00:00,5.2210540771484,3,Stim_A.csv,Global.csv,Global,A,,,,,,0,JOL_GLOBAL,5,5,"How likely are you to correctly recall each of the items you just studied?|Type your response on a scale from 0-100 and then press Enter (0 = WILL NOT REMEMBER; 100 = DEFINITELY WILL REMEMBER).",Related,JOL4,5000,,,1727,1817,,,,10,1
65a961d8a6a64526a0d975a8,ir9qia3my4,Ex2A_Prolific,1,78,2024-02-28T20:18:40+00:00,5.2131328582764,3,Stim_A.csv,Global.csv,Global,A,,,,,,0,Instruct,User,4,"You have completed this section. Please click next.",,Instruct166,5004,,,-1,-1,,,,,1
65a961d8a6a64526a0d975a8,ir9qia3my4,Ex2A_Prolific,1,79,2024-02-28T20:19:10+00:00,30.229765176773,3,Stim_A.csv,Global.csv,Global,A,,,,,,0,FreeRecall,30,1.25,"Please type as many words as you can that begin with the letter ""N"". The computer will automatically advance to the next screen in 30 seconds.",,FILLER,30001,"no nope nun naan nuisance nincompoop nimrod nimble numb nip nipple nudge nugget ",0,1821,29591,0,0,,,1
65a961d8a6a64526a0d975a8,ir9qia3my4,Ex2A_Prolific,1,80,2024-02-28T20:19:12+00:00,1.9409408569336,3,Stim_A.csv,Global.csv,Global,A,,,,,,0,Instruct,User,-,"You have completed this section. Please click next.",,Instruct166,1712,,,-1,-1,,,,,1
65a961d8a6a64526a0d975a8,ir9qia3my4,Ex2A_Prolific,1,81,2024-02-28T20:19:17+00:00,5.1697809696198,3,Stim_A.csv,Global.csv,Global,A,,,,,,0,Instruct,User,4,"You will now complete a memory test for the words you just studied. Please type as many words from the previous list as you can seperated by a comma. Spelling will not count against you and you can recall the words in any order. This test will be timed for one minute, and the computer will automatically advance once time is up. Click next when you are ready to begin.",,Instruct1666,4954,,,-1,-1,,,,,1
65a961d8a6a64526a0d975a8,ir9qia3my4,Ex2A_Prolific,1,82,2024-02-28T20:20:18+00:00,60.239797115326,3,Stim_A.csv,Global.csv,Global,A,,,,,,0,FreeRecall,60,60,"Please type as many words as you can from the previous study list in any order. Please separate each word with a comma. Spelling will not count against you. This screen will automatically advance in one minute.",,RECALL_Test,60002,"garbage, rubbish, dump, junk, landfill, sewage, waste, refuse, ",0,889,28137,0,0,,,1
65a961d8a6a64526a0d975a8,ir9qia3my4,Ex2A_Prolific,1,83,2024-02-28T20:20:24+00:00,6.2032189369202,3,Stim_A.csv,Global.csv,Global,A,,,,,,0,Instruct,User,3,"You will now be presented with a new study list. Click next when you are ready to begin.",,NEXT_LIST,5970,,,-1,-1,,,,,1
65a961d8a6a64526a0d975a8,ir9qia3my4,Ex2A_Prolific,1,84,2024-02-28T20:20:26+00:00,2.5384781360626,3,Stim_A.csv,Global.csv,Global,A,physician,,D1,,,50,Study,User,1.25,,Doctor,D1,2315,,,-1,-1,,,,,1
65a961d8a6a64526a0d975a8,ir9qia3my4,Ex2A_Prolific,1,85,2024-02-28T20:20:28+00:00,2.1142659187317,3,Stim_A.csv,Global.csv,Global,A,nurse,,D2,,,51,Study,User,1.25,,Doctor,D2,1895,,,-1,-1,,,,,1
65a961d8a6a64526a0d975a8,ir9qia3my4,Ex2A_Prolific,1,86,2024-02-28T20:20:30+00:00,1.5830609798431,3,Stim_A.csv,Global.csv,Global,A,stethoscope,,D3,,,52,Study,User,1.25,,Doctor,D3,1362,,,-1,-1,,,,,1
65a961d8a6a64526a0d975a8,ir9qia3my4,Ex2A_Prolific,1,87,2024-02-28T20:20:35+00:00,4.9434580802917,3,Stim_A.csv,Global.csv,Global,A,surgeon,,D4,,,53,Study,User,1.25,,Doctor,D4,4730,,,-1,-1,,,,,1
65a961d8a6a64526a0d975a8,ir9qia3my4,Ex2A_Prolific,1,88,2024-02-28T20:20:41+00:00,6.3052289485931,3,Stim_A.csv,Global.csv,Global,A,patient,,D5,,,54,Study,User,1.25,,Doctor,D5,6097,,,-1,-1,,,,,1
65a961d8a6a64526a0d975a8,ir9qia3my4,Ex2A_Prolific,1,89,2024-02-28T20:20:50+00:00,8.5664808750153,3,Stim_A.csv,Global.csv,Global,A,clinic,,D6,,,55,Study,User,1.25,,Doctor,D6,8345,,,-1,-1,,,,,1
65a961d8a6a64526a0d975a8,ir9qia3my4,Ex2A_Prolific,1,90,2024-02-28T20:21:00+00:00,10.097002983093,3,Stim_A.csv,Global.csv,Global,A,dentist,,D7,,,56,Study,User,1.25,,Doctor,D7,9888,,,-1,-1,,,,,1
65a961d8a6a64526a0d975a8,ir9qia3my4,Ex2A_Prolific,1,91,2024-02-28T20:21:17+00:00,17.373853206635,3,Stim_A.csv,Global.csv,Global,A,medicine,,D8,,,57,Study,User,1.25,,Doctor,D8,17138,,,-1,-1,,,,,1
65a961d8a6a64526a0d975a8,ir9qia3my4,Ex2A_Prolific,1,92,2024-02-28T20:21:31+00:00,13.327566862106,3,Stim_A.csv,Global.csv,Global,A,lawyer,,D9,,,58,Study,User,1.25,,Doctor,D9,13104,,,-1,-1,,,,,1
65a961d8a6a64526a0d975a8,ir9qia3my4,Ex2A_Prolific,1,93,2024-02-28T20:21:42+00:00,11.636835098267,3,Stim_A.csv,Global.csv,Global,A,health,,D10,,,59,Study,User,1.25,,Doctor,D10,11406,,,-1,-1,,,,,1
65a961d8a6a64526a0d975a8,ir9qia3my4,Ex2A_Prolific,1,94,2024-02-28T20:21:55+00:00,12.296243906021,3,Stim_A.csv,Global.csv,Global,A,sick,,D11,,,60,Study,User,1.25,,Doctor,D11,12068,,,-1,-1,,,,,1
65a961d8a6a64526a0d975a8,ir9qia3my4,Ex2A_Prolific,1,95,2024-02-28T20:21:57+00:00,2.3846809864044,3,Stim_A.csv,Global.csv,Global,A,cure,,D12,,,61,Study,User,1.25,,Doctor,D12,2157,,,-1,-1,,,,,1
65a961d8a6a64526a0d975a8,ir9qia3my4,Ex2A_Prolific,1,96,2024-02-28T20:21:58+00:00,1.3253791332245,3,Stim_A.csv,Global.csv,Global,A,,,,,,0,Instruct,User,-,"You have completed this section and will now be asked to judge your ability to remember the list items you just studied. You will have four seconds to type your rating. Please click next to continue.",,Next_List1,1110,,,-1,-1,,,,,1
65a961d8a6a64526a0d975a8,ir9qia3my4,Ex2A_Prolific,1,97,2024-02-28T20:22:02+00:00,3.3607239723206,3,Stim_A.csv,Global.csv,Global,A,,,,,,0,JOL_GLOBAL,5,1.25,"How likely are you to correctly recall each of the items you just studied?|Type your response on a scale from 0-100 and then press Enter (0 = WILL NOT REMEMBER; 100 = DEFINITELY WILL REMEMBER).",Related,JOL5,3151,,,1420,1915,,,,80,1
65a961d8a6a64526a0d975a8,ir9qia3my4,Ex2A_Prolific,1,98,2024-02-28T20:22:07+00:00,5.1316020488739,3,Stim_A.csv,Global.csv,Global,A,,,,,,0,Instruct,User,4,"You have completed this section. Please click next.",,Instruct166,4918,,,-1,-1,,,,,1
65a961d8a6a64526a0d975a8,ir9qia3my4,Ex2A_Prolific,1,99,2024-02-28T20:22:37+00:00,30.228036880493,3,Stim_A.csv,Global.csv,Global,A,,,,,,0,FreeRecall,30,30,"Please type as many words as you can that begin with the letter ""M"". The computer will automatically advance to the next screen in 30 seconds.",,FILLER,30001,"mom man monster mumble mountains miss ma'am missus ",0,1735,29333,0,0,,,1
65a961d8a6a64526a0d975a8,ir9qia3my4,Ex2A_Prolific,1,100,2024-02-28T20:22:39+00:00,1.8658220767975,3,Stim_A.csv,Global.csv,Global,A,,,,,,0,Instruct,User,-,"You have completed this section. Please click next.",,Instruct166,1630,,,-1,-1,,,,,1
65a961d8a6a64526a0d975a8,ir9qia3my4,Ex2A_Prolific,1,101,2024-02-28T20:22:43+00:00,4.2846648693085,3,Stim_A.csv,Global.csv,Global,A,,,,,,0,Instruct,User,4,"You will now complete a memory test for the words you just studied. Please type as many words from the previous list as you can seperated by a comma. Spelling will not count against you and you can recall the words in any order. This test will be timed for one minute, and the computer will automatically advance once time is up. Click next when you are ready to begin.",,Instruct1666,4072,,,-1,-1,,,,,1
65a961d8a6a64526a0d975a8,ir9qia3my4,Ex2A_Prolific,1,102,2024-02-28T20:23:12+00:00,29.181275129318,3,Stim_A.csv,Global.csv,Global,A,,,,,,0,FreeRecall,60,1.25,"Please type as many words as you can from the previous study list in any order. Please separate each word with a comma. Spelling will not count against you. This screen will automatically advance in one minute.",,RECALL_Test,28960,"sick, cure, physician, nurse, patient, surgeon, stethoscope, dentist, clinic, medicine, health, lawyer",0,615,23628,0,0,,,1
65a961d8a6a64526a0d975a8,ir9qia3my4,Ex2A_Prolific,1,103,2024-02-28T20:23:16+00:00,3.8021259307861,3,Stim_A.csv,Global.csv,Global,A,,,,,,0,Instruct,User,3,"You will now be presented with a new study list. Click next when you are ready to begin.",,NEXT_LIST,3563,,,-1,-1,,,,,1
65a961d8a6a64526a0d975a8,ir9qia3my4,Ex2A_Prolific,1,104,2024-02-28T20:23:19+00:00,2.4541161060333,3,Stim_A.csv,Global.csv,Global,A,fast,,S1,,,62,Study,User,1.25,,Slow,S1,2218,,,-1,-1,,,,,1
65a961d8a6a64526a0d975a8,ir9qia3my4,Ex2A_Prolific,1,105,2024-02-28T20:23:21+00:00,2.1312129497528,3,Stim_A.csv,Global.csv,Global,A,snail,,S2,,,63,Study,User,1.25,,Slow,S2,1902,,,-1,-1,,,,,1
65a961d8a6a64526a0d975a8,ir9qia3my4,Ex2A_Prolific,1,106,2024-02-28T20:23:24+00:00,3.0510349273682,3,Stim_A.csv,Global.csv,Global,A,turtle,,S3,,,64,Study,User,1.25,,Slow,S3,2820,,,-1,-1,,,,,1
65a961d8a6a64526a0d975a8,ir9qia3my4,Ex2A_Prolific,1,107,2024-02-28T20:23:30+00:00,6.7429809570312,3,Stim_A.csv,Global.csv,Global,A,sluggish,,S4,,,65,Study,User,1.25,,Slow,S4,6520,,,-1,-1,,,,,1
65a961d8a6a64526a0d975a8,ir9qia3my4,Ex2A_Prolific,1,108,2024-02-28T20:23:34+00:00,3.2721121311188,3,Stim_A.csv,Global.csv,Global,A,quick,,S5,,,66,Study,User,1.25,,Slow,S5,3050,,,-1,-1,,,,,1
65a961d8a6a64526a0d975a8,ir9qia3my4,Ex2A_Prolific,1,109,2024-02-28T20:23:39+00:00,5.4087979793549,3,Stim_A.csv,Global.csv,Global,A,molasses,,S6,,,67,Study,User,1.25,,Slow,S6,5194,,,-1,-1,,,,,1
65a961d8a6a64526a0d975a8,ir9qia3my4,Ex2A_Prolific,1,110,2024-02-28T20:23:44+00:00,5.1020500659943,3,Stim_A.csv,Global.csv,Global,A,lethargic,,S7,,,68,Study,User,1.25,,Slow,S7,4878,,,-1,-1,,,,,1
65a961d8a6a64526a0d975a8,ir9qia3my4,Ex2A_Prolific,1,111,2024-02-28T20:24:07+00:00,23.120987892151,3,Stim_A.csv,Global.csv,Global,A,speed,,S8,,,69,Study,User,1.25,,Slow,S8,22910,,,-1,-1,,,,,1
65a961d8a6a64526a0d975a8,ir9qia3my4,Ex2A_Prolific,1,112,2024-02-28T20:25:10+00:00,62.784487962723,3,Stim_A.csv,Global.csv,Global,A,delay,,S9,,,70,Study,User,1.25,,Slow,S9,62455,,,-1,-1,,,,,1
65a961d8a6a64526a0d975a8,ir9qia3my4,Ex2A_Prolific,1,113,2024-02-28T20:25:13+00:00,2.4964859485626,3,Stim_A.csv,Global.csv,Global,A,hesitant,,S10,,,71,Study,User,1.25,,Slow,S10,2281,,,-1,-1,,,,,1
65a961d8a6a64526a0d975a8,ir9qia3my4,Ex2A_Prolific,1,114,2024-02-28T20:25:15+00:00,2.1690521240234,3,Stim_A.csv,Global.csv,Global,A,cautious,,S11,,,72,Study,User,1.25,,Slow,S11,1930,,,-1,-1,,,,,1
65a961d8a6a64526a0d975a8,ir9qia3my4,Ex2A_Prolific,1,115,2024-02-28T20:25:17+00:00,2.1478569507599,3,Stim_A.csv,Global.csv,Global,A,traffic,,S12,,,73,Study,User,1.25,,Slow,S12,1951,,,-1,-1,,,,,1
65a961d8a6a64526a0d975a8,ir9qia3my4,Ex2A_Prolific,1,116,2024-02-28T20:25:19+00:00,1.5391159057617,3,Stim_A.csv,Global.csv,Global,A,,,,,,0,Instruct,User,-,"You have completed this section and will now be asked to judge your ability to remember the list items you just studied. You will have four seconds to type your rating. Please click next to continue.",,Next_List1,1331,,,-1,-1,,,,,1
65a961d8a6a64526a0d975a8,ir9qia3my4,Ex2A_Prolific,1,117,2024-02-28T20:25:24+00:00,5.2151610851288,3,Stim_A.csv,Global.csv,Global,A,,,,,,0,JOL_GLOBAL,5,5,"How likely are you to correctly recall each of the items you just studied?|Type your response on a scale from 0-100 and then press Enter (0 = WILL NOT REMEMBER; 100 = DEFINITELY WILL REMEMBER).",Related,JOL6,5001,,,838,1566,,,,15,1
65a961d8a6a64526a0d975a8,ir9qia3my4,Ex2A_Prolific,1,118,2024-02-28T20:25:25+00:00,1.481920003891,3,Stim_A.csv,Global.csv,Global,A,,,,,,0,Instruct,User,-,"You have completed this section. Please click next.",,Instruct166,1254,,,-1,-1,,,,,1
65a961d8a6a64526a0d975a8,ir9qia3my4,Ex2A_Prolific,1,119,2024-02-28T20:25:55+00:00,30.220865011215,3,Stim_A.csv,Global.csv,Global,A,,,,,,0,FreeRecall,30,30,"Please type as many words as you can that begin with the letter ""M"". The computer will automatically advance to the next screen in 30 seconds.",,FILLER,30002,"mom ma'am missus mister monster mumble monkey monk mink mutt mo",0,2713,29820,0,0,,,1
65a961d8a6a64526a0d975a8,ir9qia3my4,Ex2A_Prolific,1,120,2024-02-28T20:25:57+00:00,1.6755049228668,3,Stim_A.csv,Global.csv,Global,A,,,,,,0,Instruct,User,-,"You have completed this section. Please click next.",,Instruct166,1445,,,-1,-1,,,,,1
65a961d8a6a64526a0d975a8,ir9qia3my4,Ex2A_Prolific,1,121,2024-02-28T20:26:02+00:00,4.9565970897675,3,Stim_A.csv,Global.csv,Global,A,,,,,,0,Instruct,User,4,"You will now complete a memory test for the words you just studied. Please type as many words from the previous list as you can seperated by a comma. Spelling will not count against you and you can recall the words in any order. This test will be timed for one minute, and the computer will automatically advance once time is up. Click next when you are ready to begin.",,Instruct1666,4753,,,-1,-1,,,,,1
65a961d8a6a64526a0d975a8,ir9qia3my4,Ex2A_Prolific,1,122,2024-02-28T20:27:02+00:00,60.262995004654,3,Stim_A.csv,Global.csv,Global,A,,,,,,0,FreeRecall,60,60,"Please type as many words as you can from the previous study list in any order. Please separate each word with a comma. Spelling will not count against you. This screen will automatically advance in one minute.",,RECALL_Test,60002,"hesitant, cautious, traffic, fast, turtle, sluggish, snail, lethargic, speed, quick, molasses, ",0,703,30757,0,0,,,0.979
65a961d8a6a64526a0d975a8,ir9qia3my4,Ex2A_Prolific,1,123,2024-02-28T20:27:07+00:00,4.538223028183,3,Stim_A.csv,Global.csv,Global,A,,,,,,0,Instruct,User,3,"You will now be presented with a new study list. Click next when you are ready to begin.",,NEXT_LIST,4300,,,-1,-1,,,,,1
65a961d8a6a64526a0d975a8,ir9qia3my4,Ex2A_Prolific,1,124,2024-02-28T20:27:09+00:00,2.1203310489655,3,Stim_A.csv,Global.csv,Global,A,mississippi,,RR1,,,74,Study,User,1.25,,River,RR1,1894,,,-1,-1,,,,,1
65a961d8a6a64526a0d975a8,ir9qia3my4,Ex2A_Prolific,1,125,2024-02-28T20:27:11+00:00,2.0887939929962,3,Stim_A.csv,Global.csv,Global,A,creek,,RR2,,,75,Study,User,1.25,,River,RR2,1848,,,-1,-1,,,,,1
65a961d8a6a64526a0d975a8,ir9qia3my4,Ex2A_Prolific,1,126,2024-02-28T20:27:13+00:00,2.172376871109,3,Stim_A.csv,Global.csv,Global,A,stream,,RR3,,,76,Study,User,1.25,,River,RR3,1945,,,-1,-1,,,,,1
65a961d8a6a64526a0d975a8,ir9qia3my4,Ex2A_Prolific,1,127,2024-02-28T20:27:17+00:00,3.788990020752,3,Stim_A.csv,Global.csv,Global,A,flow,,RR4,,,77,Study,User,1.25,,River,RR4,3557,,,-1,-1,,,,,1
65a961d8a6a64526a0d975a8,ir9qia3my4,Ex2A_Prolific,1,128,2024-02-28T20:27:23+00:00,5.893196105957,3,Stim_A.csv,Global.csv,Global,A,bridge,,RR5,,,78,Study,User,1.25,,River,RR5,5640,,,-1,-1,,,,,1
65a961d8a6a64526a0d975a8,ir9qia3my4,Ex2A_Prolific,1,129,2024-02-28T20:27:39+00:00,16.314759969711,3,Stim_A.csv,Global.csv,Global,A,brook,,RR6,,,79,Study,User,1.25,,River,RR6,16089,,,-1,-1,,,,,1
65a961d8a6a64526a0d975a8,ir9qia3my4,Ex2A_Prolific,1,130,2024-02-28T20:27:46+00:00,7.2245290279388,3,Stim_A.csv,Global.csv,Global,A,lake,,RR7,,,80,Study,User,1.25,,River,RR7,6995,,,-1,-1,,,,,1
65a961d8a6a64526a0d975a8,ir9qia3my4,Ex2A_Prolific,1,131,2024-02-28T20:27:53+00:00,6.1802198886871,3,Stim_A.csv,Global.csv,Global,A,barge,,RR8,,,81,Study,User,1.25,,River,RR8,5940,,,-1,-1,,,,,1
65a961d8a6a64526a0d975a8,ir9qia3my4,Ex2A_Prolific,1,132,2024-02-28T20:27:59+00:00,6.5276770591736,3,Stim_A.csv,Global.csv,Global,A,water,,RR9,,,82,Study,User,1.25,,River,RR9,6264,,,-1,-1,,,,,1
65a961d8a6a64526a0d975a8,ir9qia3my4,Ex2A_Prolific,1,133,2024-02-28T20:28:11+00:00,11.544512033463,3,Stim_A.csv,Global.csv,Global,A,boat,,RR10,,,83,Study,User,1.25,,River,RR10,11306,,,-1,-1,,,,,1
65a961d8a6a64526a0d975a8,ir9qia3my4,Ex2A_Prolific,1,134,2024-02-28T20:28:25+00:00,14.437069892883,3,Stim_A.csv,Global.csv,Global,A,tide,,RR11,,,84,Study,User,1.25,,River,RR11,14209,,,-1,-1,,,,,1
65a961d8a6a64526a0d975a8,ir9qia3my4,Ex2A_Prolific,1,135,2024-02-28T20:28:27+00:00,2.0819001197815,3,Stim_A.csv,Global.csv,Global,A,swim,,RR12,,,85,Study,User,1.25,,River,RR12,1845,,,-1,-1,,,,,1
65a961d8a6a64526a0d975a8,ir9qia3my4,Ex2A_Prolific,1,136,2024-02-28T20:28:29+00:00,1.4071898460388,3,Stim_A.csv,Global.csv,Global,A,,,,,,0,Instruct,User,-,"You have completed this section and will now be asked to judge your ability to remember the list items you just studied. You will have four seconds to type your rating. Please click next to continue.",,Next_List1,1211,,,-1,-1,,,,,1
65a961d8a6a64526a0d975a8,ir9qia3my4,Ex2A_Prolific,1,137,2024-02-28T20:28:34+00:00,5.2175350189209,3,Stim_A.csv,Global.csv,Global,A,,,,,,0,JOL_GLOBAL,5,5,"How likely are you to correctly recall each of the items you just studied?|Type your response on a scale from 0-100 and then press Enter (0 = WILL NOT REMEMBER; 100 = DEFINITELY WILL REMEMBER).",Related,JOL7,5001,,,2930,3239,,,,15,1
65a961d8a6a64526a0d975a8,ir9qia3my4,Ex2A_Prolific,1,138,2024-02-28T20:28:35+00:00,1.5370509624481,3,Stim_A.csv,Global.csv,Global,A,,,,,,0,Instruct,User,1.25,"You have completed this section. Please click next.",,Instruct166,1307,,,-1,-1,,,,,1
65a961d8a6a64526a0d975a8,ir9qia3my4,Ex2A_Prolific,1,139,2024-02-28T20:29:06+00:00,30.240143060684,3,Stim_A.csv,Global.csv,Global,A,,,,,,0,FreeRecall,30,30,"Please type as many words as you can that begin with the letter ""R"". The computer will automatically advance to the next screen in 30 seconds.",,FILLER,30001,"rumble ran run running ruminate rubble robbery ribs ring ",0,1960,25627,0,0,,,1
65a961d8a6a64526a0d975a8,ir9qia3my4,Ex2A_Prolific,1,140,2024-02-28T20:29:07+00:00,1.6711559295654,3,Stim_A.csv,Global.csv,Global,A,,,,,,0,Instruct,User,-,"You have completed this section. Please click next.",,Instruct166,1435,,,53,53,,,,,1
65a961d8a6a64526a0d975a8,ir9qia3my4,Ex2A_Prolific,1,141,2024-02-28T20:29:12+00:00,4.8351871967316,3,Stim_A.csv,Global.csv,Global,A,,,,,,0,Instruct,User,4,"You will now complete a memory test for the words you just studied. Please type as many words from the previous list as you can seperated by a comma. Spelling will not count against you and you can recall the words in any order. This test will be timed for one minute, and the computer will automatically advance once time is up. Click next when you are ready to begin.",,Instruct1666,4620,,,-1,-1,,,,,1
65a961d8a6a64526a0d975a8,ir9qia3my4,Ex2A_Prolific,1,142,2024-02-28T20:30:13+00:00,60.483905792236,3,Stim_A.csv,Global.csv,Global,A,,,,,,0,FreeRecall,60,60,"Please type as many words as you can from the previous study list in any order. Please separate each word with a comma. Spelling will not count against you. This screen will automatically advance in one minute.",,RECALL_Test,60243,"swim, tide, Mississippi, creek, stream, flow, brook, barge, boat, water, ",0,413,41276,0,0,,,0.986
65a961d8a6a64526a0d975a8,ir9qia3my4,Ex2A_Prolific,1,143,2024-02-28T20:30:17+00:00,4.2471761703491,3,Stim_A.csv,Global.csv,Global,A,,,,,,0,Instruct,User,3,"You will now be presented with a new study list. Click next when you are ready to begin.",,NEXT_LIST,4013,,,-1,-1,,,,,0.813
65a961d8a6a64526a0d975a8,ir9qia3my4,Ex2A_Prolific,1,144,2024-02-28T20:30:19+00:00,2.3379340171814,3,Stim_A.csv,Global.csv,Global,A,rye,,B1,,,86,Study,User,1.25,,Bread,B1,2110,,,-1,-1,,,,,1
65a961d8a6a64526a0d975a8,ir9qia3my4,Ex2A_Prolific,1,145,2024-02-28T20:30:21+00:00,2.2465288639069,3,Stim_A.csv,Global.csv,Global,A,loaf,,B2,,,87,Study,User,1.25,,Bread,B2,2015,,,-1,-1,,,,,1
65a961d8a6a64526a0d975a8,ir9qia3my4,Ex2A_Prolific,1,146,2024-02-28T20:30:23+00:00,1.5847520828247,3,Stim_A.csv,Global.csv,Global,A,butter,,B3,,,88,Study,User,1.25,,Bread,B3,1378,,,-1,-1,,,,,1
65a961d8a6a64526a0d975a8,ir9qia3my4,Ex2A_Prolific,1,147,2024-02-28T20:30:26+00:00,2.9268679618835,3,Stim_A.csv,Global.csv,Global,A,toast,,B4,,,89,Study,User,1.25,,Bread,B4,2710,,,-1,-1,,,,,1
65a961d8a6a64526a0d975a8,ir9qia3my4,Ex2A_Prolific,1,148,2024-02-28T20:30:30+00:00,3.7716519832611,3,Stim_A.csv,Global.csv,Global,A,dough,,B5,,,90,Study,User,1.25,,Bread,B5,3491,,,-1,-1,,,,,1
65a961d8a6a64526a0d975a8,ir9qia3my4,Ex2A_Prolific,1,149,2024-02-28T20:30:35+00:00,5.2428319454193,3,Stim_A.csv,Global.csv,Global,A,crust,,B6,,,91,Study,User,1.25,,Bread,B6,5001,,,-1,-1,,,,,1
65a961d8a6a64526a0d975a8,ir9qia3my4,Ex2A_Prolific,1,150,2024-02-28T20:30:41+00:00,5.9060800075531,3,Stim_A.csv,Global.csv,Global,A,flour,,B7,,,92,Study,User,1.25,,Bread,B7,5698,,,-1,-1,,,,,1
65a961d8a6a64526a0d975a8,ir9qia3my4,Ex2A_Prolific,1,151,2024-02-28T20:30:48+00:00,7.5521559715271,3,Stim_A.csv,Global.csv,Global,A,sandwich,,B8,,,93,Study,User,1.25,,Bread,B8,7350,,,-1,-1,,,,,1
65a961d8a6a64526a0d975a8,ir9qia3my4,Ex2A_Prolific,1,152,2024-02-28T20:30:56+00:00,7.5375602245331,3,Stim_A.csv,Global.csv,Global,A,jam,,B9,,,94,Study,User,1.25,,Bread,B9,7318,,,-1,-1,,,,,1
65a961d8a6a64526a0d975a8,ir9qia3my4,Ex2A_Prolific,1,153,2024-02-28T20:31:16+00:00,20.30198597908,3,Stim_A.csv,Global.csv,Global,A,jelly,,B10,,,95,Study,User,1.25,,Bread,B10,20093,,,-1,-1,,,,,1
65a961d8a6a64526a0d975a8,ir9qia3my4,Ex2A_Prolific,1,154,2024-02-28T20:31:19+00:00,2.6505379676819,3,Stim_A.csv,Global.csv,Global,A,slice,,B11,,,96,Study,User,1.25,,Bread,B11,2427,,,-1,-1,,,,,1
65a961d8a6a64526a0d975a8,ir9qia3my4,Ex2A_Prolific,1,155,2024-02-28T20:31:21+00:00,1.8069658279419,3,Stim_A.csv,Global.csv,Global,A,milk,,B12,,,97,Study,User,1.25,,Bread,B12,1578,,,-1,-1,,,,,1
65a961d8a6a64526a0d975a8,ir9qia3my4,Ex2A_Prolific,1,156,2024-02-28T20:31:23+00:00,2.0339651107788,3,Stim_A.csv,Global.csv,Global,A,,,,,,0,Instruct,User,-,"You have completed this section and will now be asked to judge your ability to remember the list items you just studied. You will have four seconds to type your rating. Please click next to continue.",,Next_List1,1815,,,-1,-1,,,,,1
65a961d8a6a64526a0d975a8,ir9qia3my4,Ex2A_Prolific,1,157,2024-02-28T20:31:28+00:00,5.2342689037323,3,Stim_A.csv,Global.csv,Global,A,,,,,,0,JOL_GLOBAL,5,5,"How likely are you to correctly recall each of the items you just studied?|Type your response on a scale from 0-100 and then press Enter (0 = WILL NOT REMEMBER; 100 = DEFINITELY WILL REMEMBER).",Related,JOL8,5001,,,1189,1466,,,,60,1
65a961d8a6a64526a0d975a8,ir9qia3my4,Ex2A_Prolific,1,158,2024-02-28T20:31:33+00:00,4.65598320961,3,Stim_A.csv,Global.csv,Global,A,,,,,,0,Instruct,User,4,"You have completed this section. Please click next.",,Instruct166,4452,,,-1,-1,,,,,1
65a961d8a6a64526a0d975a8,ir9qia3my4,Ex2A_Prolific,1,159,2024-02-28T20:32:03+00:00,30.23898100853,3,Stim_A.csv,Global.csv,Global,A,,,,,,0,FreeRecall,30,30,"Please type as many words as you can that begin with the letter ""S"". The computer will automatically advance to the next screen in 30 seconds.",,FILLER,30001,"slurp slime slop slap sap sopping sinister sister suck silly song slip son s",0,1886,29957,0,0,,,1
65a961d8a6a64526a0d975a8,ir9qia3my4,Ex2A_Prolific,1,160,2024-02-28T20:32:08+00:00,5.0280878543854,3,Stim_A.csv,Global.csv,Global,A,,,,,,0,Instruct,User,4,"You have completed this section. Please click next.",,Instruct166,4803,,,-1,-1,,,,,1
65a961d8a6a64526a0d975a8,ir9qia3my4,Ex2A_Prolific,1,161,2024-02-28T20:32:13+00:00,5.3752319812775,3,Stim_A.csv,Global.csv,Global,A,,,,,,0,Instruct,User,4,"You will now complete a memory test for the words you just studied. Please type as many words from the previous list as you can seperated by a comma. Spelling will not count against you and you can recall the words in any order. This test will be timed for one minute, and the computer will automatically advance once time is up. Click next when you are ready to begin.",,Instruct1666,5112,,,-1,-1,,,,,1
65a961d8a6a64526a0d975a8,ir9qia3my4,Ex2A_Prolific,1,162,2024-02-28T20:33:14+00:00,60.228424072266,3,Stim_A.csv,Global.csv,Global,A,,,,,,0,FreeRecall,60,60,"Please type as many words as you can from the previous study list in any order. Please separate each word with a comma. Spelling will not count against you. This screen will automatically advance in one minute.",,RECALL_Test,60001,"rye, toast, butter, flour, dough, crust, jam, jelly, slice, bread",0,875,29970,0,0,,,1
65a961d8a6a64526a0d975a8,ir9qia3my4,Ex2A_Prolific,1,163,2024-02-28T20:33:15+00:00,1.9213230609894,3,Stim_A.csv,Global.csv,Global,A,,,,,,0,Instruct,User,1.25,"You will now be presented with a new study list. Click next when you are ready to begin.",,NEXT_LIST,1676,,,-1,-1,,,,,1
65a961d8a6a64526a0d975a8,ir9qia3my4,Ex2A_Prolific,1,164,2024-02-28T20:33:18+00:00,2.1844239234924,3,Stim_A.csv,Global.csv,Global,A,banner,,F1,,,98,Study,User,1.25,,Flag,F1,1946,,,-1,-1,,,,,1
65a961d8a6a64526a0d975a8,ir9qia3my4,Ex2A_Prolific,1,165,2024-02-28T20:33:20+00:00,2.0813748836517,3,Stim_A.csv,Global.csv,Global,A,checkered,,F2,,,99,Study,User,1.25,,Flag,F2,1871,,,-1,-1,,,,,1
65a961d8a6a64526a0d975a8,ir9qia3my4,Ex2A_Prolific,1,166,2024-02-28T20:33:22+00:00,2.5966351032257,3,Stim_A.csv,Global.csv,Global,A,american,,F3,,,100,Study,User,1.25,,Flag,F3,2379,,,-1,-1,,,,,1
65a961d8a6a64526a0d975a8,ir9qia3my4,Ex2A_Prolific,1,167,2024-02-28T20:33:24+00:00,1.8283588886261,3,Stim_A.csv,Global.csv,Global,A,stripes,,F4,,,101,Study,User,1.25,,Flag,F4,1618,,,-1,-1,,,,,1
65a961d8a6a64526a0d975a8,ir9qia3my4,Ex2A_Prolific,1,168,2024-02-28T20:33:28+00:00,3.855232000351,3,Stim_A.csv,Global.csv,Global,A,pole,,F5,,,102,Study,User,1.25,,Flag,F5,3654,,,-1,-1,,,,,1
65a961d8a6a64526a0d975a8,ir9qia3my4,Ex2A_Prolific,1,169,2024-02-28T20:33:35+00:00,6.9341170787811,3,Stim_A.csv,Global.csv,Global,A,anthem,,F6,,,103,Study,User,1.25,,Flag,F6,6718,,,-1,-1,,,,,1
65a961d8a6a64526a0d975a8,ir9qia3my4,Ex2A_Prolific,1,170,2024-02-28T20:33:43+00:00,8.2869760990143,3,Stim_A.csv,Global.csv,Global,A,emblem,,F7,,,104,Study,User,1.25,,Flag,F7,8060,,,-1,-1,,,,,1
65a961d8a6a64526a0d975a8,ir9qia3my4,Ex2A_Prolific,1,171,2024-02-28T20:33:53+00:00,9.5866348743439,3,Stim_A.csv,Global.csv,Global,A,national,,F8,,,105,Study,User,1.25,,Flag,F8,9349,,,-1,-1,,,,,1
65a961d8a6a64526a0d975a8,ir9qia3my4,Ex2A_Prolific,1,172,2024-02-28T20:34:03+00:00,9.9571931362152,3,Stim_A.csv,Global.csv,Global,A,freedom,,F9,,,106,Study,User,1.25,,Flag,F9,9742,,,-1,-1,,,,,1
65a961d8a6a64526a0d975a8,ir9qia3my4,Ex2A_Prolific,1,173,2024-02-28T20:34:20+00:00,16.941622972488,3,Stim_A.csv,Global.csv,Global,A,symbol,,F10,,,107,Study,User,1.25,,Flag,F10,16725,,,-1,-1,,,,,1
65a961d8a6a64526a0d975a8,ir9qia3my4,Ex2A_Prolific,1,174,2024-02-28T20:34:41+00:00,21.453759908676,3,Stim_A.csv,Global.csv,Global,A,wave,,F11,,,108,Study,User,1.25,,Flag,F11,21199,,,-1,-1,,,,,1
65a961d8a6a64526a0d975a8,ir9qia3my4,Ex2A_Prolific,1,175,2024-02-28T20:34:45+00:00,3.765506029129,3,Stim_A.csv,Global.csv,Global,A,stars,,F12,,,109,Study,User,1.25,,Flag,F12,3527,,,-1,-1,,,,,1
65a961d8a6a64526a0d975a8,ir9qia3my4,Ex2A_Prolific,1,176,2024-02-28T20:34:46+00:00,1.1824541091919,3,Stim_A.csv,Global.csv,Global,A,,,,,,0,Instruct,User,-,"You have completed this section and will now be asked to judge your ability to remember the list items you just studied. You will have four seconds to type your rating. Please click next to continue.",,Next_List1,981,,,-1,-1,,,,,1
65a961d8a6a64526a0d975a8,ir9qia3my4,Ex2A_Prolific,1,177,2024-02-28T20:34:51+00:00,5.2128899097443,3,Stim_A.csv,Global.csv,Global,A,,,,,,0,JOL_GLOBAL,5,5,"How likely are you to correctly recall each of the items you just studied?|Type your response on a scale from 0-100 and then press Enter (0 = WILL NOT REMEMBER; 100 = DEFINITELY WILL REMEMBER).",Related,JOL9,5001,,,1582,3113,,,,0,1
65a961d8a6a64526a0d975a8,ir9qia3my4,Ex2A_Prolific,1,178,2024-02-28T20:34:56+00:00,4.8087499141693,3,Stim_A.csv,Global.csv,Global,A,,,,,,0,Instruct,User,4,"You have completed this section. Please click next.",,Instruct166,4567,,,-1,-1,,,,,1
65a961d8a6a64526a0d975a8,ir9qia3my4,Ex2A_Prolific,1,179,2024-02-28T20:35:26+00:00,30.219133138657,3,Stim_A.csv,Global.csv,Global,A,,,,,,0,FreeRecall,30,30,"Please type as many words as you can that begin with the letter ""C"". The computer will automatically advance to the next screen in 30 seconds.",,FILLER,30001,"computer camera constant conman can cat cut ",0,1536,27931,0,0,,,1
65a961d8a6a64526a0d975a8,ir9qia3my4,Ex2A_Prolific,1,180,2024-02-28T20:35:31+00:00,4.4619219303131,3,Stim_A.csv,Global.csv,Global,A,,,,,,0,Instruct,User,4,"You have completed this section. Please click next.",,Instruct166,4245,,,-1,-1,,,,,1
65a961d8a6a64526a0d975a8,ir9qia3my4,Ex2A_Prolific,1,181,2024-02-28T20:35:33+00:00,2.0382280349731,3,Stim_A.csv,Global.csv,Global,A,,,,,,0,Instruct,User,1.25,"You will now complete a memory test for the words you just studied. Please type as many words from the previous list as you can seperated by a comma. Spelling will not count against you and you can recall the words in any order. This test will be timed for one minute, and the computer will automatically advance once time is up. Click next when you are ready to begin.",,Instruct1666,1823,,,-1,-1,,,,,1
65a961d8a6a64526a0d975a8,ir9qia3my4,Ex2A_Prolific,1,182,2024-02-28T20:36:33+00:00,60.238169908524,3,Stim_A.csv,Global.csv,Global,A,,,,,,0,FreeRecall,60,60,"Please type as many words as you can from the previous study list in any order. Please separate each word with a comma. Spelling will not count against you. This screen will automatically advance in one minute.",,RECALL_Test,60000,"checkered, banner, american, stripe, anthem, pole, national, emblem, freedom, stars",0,660,17949,0,0,,,0.962
65a961d8a6a64526a0d975a8,ir9qia3my4,Ex2A_Prolific,1,183,2024-02-28T20:36:40+00:00,7.3484110832214,3,Stim_A.csv,Global.csv,Global,A,,,,,,0,Instruct,User,3,"You will now be presented with a new study list. Click next when you are ready to begin.",,NEXT_LIST,7117,,,-1,-1,,,,,1
65a961d8a6a64526a0d975a8,ir9qia3my4,Ex2A_Prolific,1,184,2024-02-28T20:36:52+00:00,11.098747014999,3,Stim_A.csv,Global.csv,Global,A,blouse,,SS1,,,110,Study,User,1.25,,Shirt,SS1,10884,,,-1,-1,,,,,1
65a961d8a6a64526a0d975a8,ir9qia3my4,Ex2A_Prolific,1,185,2024-02-28T20:36:58+00:00,6.356920003891,3,Stim_A.csv,Global.csv,Global,A,sleeves,,SS2,,,111,Study,User,1.25,,Shirt,SS2,6127,,,-1,-1,,,,,1
65a961d8a6a64526a0d975a8,ir9qia3my4,Ex2A_Prolific,1,186,2024-02-28T20:37:01+00:00,2.831876039505,3,Stim_A.csv,Global.csv,Global,A,collar,,SS3,,,112,Study,User,1.25,,Shirt,SS3,2603,,,-1,-1,,,,,1
65a961d8a6a64526a0d975a8,ir9qia3my4,Ex2A_Prolific,1,187,2024-02-28T20:37:05+00:00,3.8944380283356,3,Stim_A.csv,Global.csv,Global,A,shorts,,SS4,,,113,Study,User,1.25,,Shirt,SS4,3674,,,-1,-1,,,,,1
65a961d8a6a64526a0d975a8,ir9qia3my4,Ex2A_Prolific,1,188,2024-02-28T20:37:14+00:00,9.5719769001007,3,Stim_A.csv,Global.csv,Global,A,button,,SS5,,,114,Study,User,1.25,,Shirt,SS5,9344,,,-1,-1,,,,,1
65a961d8a6a64526a0d975a8,ir9qia3my4,Ex2A_Prolific,1,189,2024-02-28T20:37:20+00:00,5.36740899086,3,Stim_A.csv,Global.csv,Global,A,pants,,SS6,,,115,Study,User,1.25,,Shirt,SS6,5154,,,-1,-1,,,,,1
65a961d8a6a64526a0d975a8,ir9qia3my4,Ex2A_Prolific,1,190,2024-02-28T20:37:24+00:00,4.7168409824371,3,Stim_A.csv,Global.csv,Global,A,polo,,SS7,,,116,Study,User,1.25,,Shirt,SS7,4501,,,-1,-1,,,,,1
65a961d8a6a64526a0d975a8,ir9qia3my4,Ex2A_Prolific,1,191,2024-02-28T20:37:36+00:00,12.010360002518,3,Stim_A.csv,Global.csv,Global,A,jersey,,SS8,,,117,Study,User,1.25,,Shirt,SS8,11758,,,-1,-1,,,,,1
65a961d8a6a64526a0d975a8,ir9qia3my4,Ex2A_Prolific,1,192,2024-02-28T20:37:57+00:00,21.039849042892,3,Stim_A.csv,Global.csv,Global,A,vest,,SS9,,,118,Study,User,1.25,,Shirt,SS9,20796,,,-1,-1,,,,,1
65a961d8a6a64526a0d975a8,ir9qia3my4,Ex2A_Prolific,1,193,2024-02-28T20:38:11+00:00,13.453825950623,3,Stim_A.csv,Global.csv,Global,A,cuffs,,SS10,,,119,Study,User,1.25,,Shirt,SS10,13231,,,-1,-1,,,,,1
65a961d8a6a64526a0d975a8,ir9qia3my4,Ex2A_Prolific,1,194,2024-02-28T20:38:14+00:00,3.2618761062622,3,Stim_A.csv,Global.csv,Global,A,tie,,SS11,,,120,Study,User,1.25,,Shirt,SS11,3029,,,-1,-1,,,,,1
65a961d8a6a64526a0d975a8,ir9qia3my4,Ex2A_Prolific,1,195,2024-02-28T20:38:16+00:00,2.0131540298462,3,Stim_A.csv,Global.csv,Global,A,pocket,,SS12,,,121,Study,User,1.25,,Shirt,SS12,1795,,,-1,-1,,,,,1
65a961d8a6a64526a0d975a8,ir9qia3my4,Ex2A_Prolific,1,196,2024-02-28T20:38:18+00:00,1.8746128082275,3,Stim_A.csv,Global.csv,Global,A,,,,,,0,Instruct,User,1.25,"You have completed this section and will now be asked to judge your ability to remember the list items you just studied. You will have four seconds to type your rating. Please click next to continue.",,Next_List1,1654,,,-1,-1,,,,,1
65a961d8a6a64526a0d975a8,ir9qia3my4,Ex2A_Prolific,1,197,2024-02-28T20:38:23+00:00,5.2120440006256,3,Stim_A.csv,Global.csv,Global,A,,,,,,0,JOL_GLOBAL,5,5,"How likely are you to correctly recall each of the items you just studied?|Type your response on a scale from 0-100 and then press Enter (0 = WILL NOT REMEMBER; 100 = DEFINITELY WILL REMEMBER).",Related,JOL10,5001,,,1077,2447,,,,10,1
65a961d8a6a64526a0d975a8,ir9qia3my4,Ex2A_Prolific,1,198,2024-02-28T20:38:25+00:00,1.5919950008392,3,Stim_A.csv,Global.csv,Global,A,,,,,,0,Instruct,User,1.25,"You have completed this section. Please click next.",,Instruct166,1371,,,-1,-1,,,,,1
65a961d8a6a64526a0d975a8,ir9qia3my4,Ex2A_Prolific,1,199,2024-02-28T20:38:55+00:00,30.228883981705,3,Stim_A.csv,Global.csv,Global,A,,,,,,0,FreeRecall,30,30,"Please type as many words as you can that begin with the letter ""K"". The computer will automatically advance to the next screen in 30 seconds.",,FILLER,30001,"kill kitten kilt kit ",0,1763,17283,0,0,,,1
65a961d8a6a64526a0d975a8,ir9qia3my4,Ex2A_Prolific,1,200,2024-02-28T20:39:00+00:00,4.9773151874542,3,Stim_A.csv,Global.csv,Global,A,,,,,,0,Instruct,User,4,"You have completed this section. Please click next.",,Instruct166,4750,,,-1,-1,,,,,1
65a961d8a6a64526a0d975a8,ir9qia3my4,Ex2A_Prolific,1,201,2024-02-28T20:39:06+00:00,5.6952638626099,3,Stim_A.csv,Global.csv,Global,A,,,,,,0,Instruct,User,4,"You will now complete a memory test for the words you just studied. Please type as many words from the previous list as you can seperated by a comma. Spelling will not count against you and you can recall the words in any order. This test will be timed for one minute, and the computer will automatically advance once time is up. Click next when you are ready to begin.",,Instruct1666,5479,,,-1,-1,,,,,1
65a961d8a6a64526a0d975a8,ir9qia3my4,Ex2A_Prolific,1,202,2024-02-28T20:40:06+00:00,60.232728004456,3,Stim_A.csv,Global.csv,Global,A,,,,,,0,FreeRecall,60,60,"Please type as many words as you can from the previous study list in any order. Please separate each word with a comma. Spelling will not count against you. This screen will automatically advance in one minute.",,RECALL_Test,60001,"blouse, sleeve, collar, shorts, button, pants, polo, jersey, vest, cuff, tie",0,2048,24152,0,0,,,0.99
65a961d8a6a64526a0d975a8,ir9qia3my4,Ex2A_Prolific,1,203,2024-02-28T20:40:09+00:00,2.6656141281128,3,Stim_A.csv,Global.csv,Global,A,,,,,,0,Instruct,User,-,"You have completed this section. Please click next.",,Instruct7,2419,,,-1,-1,,,,,1
65a961d8a6a64526a0d975a8,ir9qia3my4,Ex2A_Prolific,1,204,2024-02-28T20:40:17+00:00,8.5630338191986,3,Stim_A.csv,Global.csv,Global,A,,,,,,0,Instruct,User,-,"The following screen will ask you a few questions abour your experience today. You must complete these questions to receive credit.",,Instruct8,8333,,,-1,-1,,,,,1
