Username,ID,ExperimentName,Session,Trial,Date,TimeDif,"Condition Number","Stimuli File","Order File","Condition Description","Condition Notes",Stimuli*Cue,Stimuli*Answer,Stimuli*Shuffle,"Stimuli*Stimuli Notes",Stimuli*Value,Procedure*Item,"Procedure*Trial Type","Procedure*Max Time","Procedure*Min Time",Procedure*Text,"Procedure*Procedure Notes",Procedure*Shuffle,Response*RT,Response*Response,Response*Accuracy,Response*RTfirst,Response*RTlast,Response*strictAcc,Response*lenientAcc,Response*focus,Response*JOL,Response*Focus
60282d2ffedb021342e2df15,7vwphuyu61,Ex2A_Prolific,1,1,2024-03-01T20:00:07+00:00,7.7824981212616,4,Stim_B.csv,Global.csv,Global,B,,,,,,0,Instruct,-,5,"In this section, you will be presented with a series of words. Please study each word carefully. Your memory will be tested!",Initial_Instruct,Instruct1,7538,,,-1,-1,,,,,1
60282d2ffedb021342e2df15,7vwphuyu61,Ex2A_Prolific,1,2,2024-03-01T20:00:45+00:00,38.158055067062,4,Stim_B.csv,Global.csv,Global,B,,,,,,0,Instruct,User,5,"After studying each LIST of words, you will be asked to rate your ability to remember ALL of the words in the list on a later test. You will make these ratings using a scale of 0 to 100. A rating of 0 = WILL NOT REMEMBER, while a rating of 100 = WILL DEFINITELY REMEMBER. Please try to be as accurate as possible with these ratings!",,BLIPBLOOP,37748,,,-1,-1,,,,,1
60282d2ffedb021342e2df15,7vwphuyu61,Ex2A_Prolific,1,3,2024-03-01T20:00:49+00:00,3.8664329051971,4,Stim_B.csv,Global.csv,Global,B,,,,,,0,Instruct,User,1.25,"You will now begin the study. Click next when you are ready to begin.",,Instruct16,3382,,,-1,-1,,,,,1
60282d2ffedb021342e2df15,7vwphuyu61,Ex2A_Prolific,1,4,2024-03-01T20:00:52+00:00,2.7274858951569,4,Stim_B.csv,Global.csv,Global,B,aroma,,Win_1,,,2,Study,User,1.25,,Window,Win_1,2319,,,-1,-1,,,,,1
60282d2ffedb021342e2df15,7vwphuyu61,Ex2A_Prolific,1,5,2024-03-01T20:00:54+00:00,2.6724700927734,4,Stim_B.csv,Global.csv,Global,B,scent,,Win_2,,,3,Study,User,1.25,,Window,Win_2,2277,,,-1,-1,,,,,1
60282d2ffedb021342e2df15,7vwphuyu61,Ex2A_Prolific,1,6,2024-03-01T20:00:57+00:00,2.1915040016174,4,Stim_B.csv,Global.csv,Global,B,whiff,,Win_3,,,4,Study,User,1.25,,Window,Win_3,1790,,,-1,-1,,,,,1
60282d2ffedb021342e2df15,7vwphuyu61,Ex2A_Prolific,1,7,2024-03-01T20:00:59+00:00,2.2340269088745,4,Stim_B.csv,Global.csv,Global,B,stench,,Win_4,,,5,Study,User,1.25,,Window,Win_4,1818,,,-1,-1,,,,,1
60282d2ffedb021342e2df15,7vwphuyu61,Ex2A_Prolific,1,8,2024-03-01T20:01:01+00:00,2.33656001091,4,Stim_B.csv,Global.csv,Global,B,reek,,Win_5,,,6,Study,User,1.25,,Window,Win_5,1929,,,-1,-1,,,,,1
60282d2ffedb021342e2df15,7vwphuyu61,Ex2A_Prolific,1,9,2024-03-01T20:01:03+00:00,2.143835067749,4,Stim_B.csv,Global.csv,Global,B,sniff,,Win_6,,,7,Study,User,1.25,,Window,Win_6,1737,,,-1,-1,,,,,1
60282d2ffedb021342e2df15,7vwphuyu61,Ex2A_Prolific,1,10,2024-03-01T20:01:06+00:00,2.3536510467529,4,Stim_B.csv,Global.csv,Global,B,perfume,,Win_7,,,8,Study,User,1.25,,Window,Win_7,1966,,,-1,-1,,,,,1
60282d2ffedb021342e2df15,7vwphuyu61,Ex2A_Prolific,1,11,2024-03-01T20:01:08+00:00,2.0757360458374,4,Stim_B.csv,Global.csv,Global,B,fragrance,,Win_8,,,9,Study,User,1.25,,Window,Win_8,1690,,,-1,-1,,,,,1
60282d2ffedb021342e2df15,7vwphuyu61,Ex2A_Prolific,1,12,2024-03-01T20:01:10+00:00,2.0314629077911,4,Stim_B.csv,Global.csv,Global,B,nose,,Win_9,,,10,Study,User,1.25,,Window,Win_9,1655,,,-1,-1,,,,,1
60282d2ffedb021342e2df15,7vwphuyu61,Ex2A_Prolific,1,13,2024-03-01T20:01:12+00:00,2.0453350543976,4,Stim_B.csv,Global.csv,Global,B,rose,,Win_10,,,11,Study,User,1.25,,Window,Win_10,1662,,,-1,-1,,,,,1
60282d2ffedb021342e2df15,7vwphuyu61,Ex2A_Prolific,1,14,2024-03-01T20:01:14+00:00,1.9971170425415,4,Stim_B.csv,Global.csv,Global,B,salts,,Win_11,,,12,Study,User,1.25,,Window,Win_11,1632,,,-1,-1,,,,,1
60282d2ffedb021342e2df15,7vwphuyu61,Ex2A_Prolific,1,15,2024-03-01T20:01:16+00:00,2.1180279254913,4,Stim_B.csv,Global.csv,Global,B,breathe,,Win_12,,,13,Study,User,1.25,,Window,Win_12,1750,,,-1,-1,,,,,1
60282d2ffedb021342e2df15,7vwphuyu61,Ex2A_Prolific,1,16,2024-03-01T20:01:28+00:00,12.454159021378,4,Stim_B.csv,Global.csv,Global,B,,,,,,0,Instruct,User,1.25,"You have completed this section and will now be asked to judge your ability to remember the list items you just studied. You will have four seconds to type your rating. Please click next to continue.",,Next_List1,12088,,,-1,-1,,,,,1
60282d2ffedb021342e2df15,7vwphuyu61,Ex2A_Prolific,1,17,2024-03-01T20:01:34+00:00,5.402813911438,4,Stim_B.csv,Global.csv,Global,B,,,,,,0,JOL_GLOBAL,5,5,"How likely are you to correctly recall each of the items you just studied?|Type your response on a scale from 0-100 and then press Enter (0 = WILL NOT REMEMBER; 100 = DEFINITELY WILL REMEMBER).",Related,JOL1,5003,,,4327,4327,,,,7,1
60282d2ffedb021342e2df15,7vwphuyu61,Ex2A_Prolific,1,18,2024-03-01T20:01:36+00:00,2.53919506073,4,Stim_B.csv,Global.csv,Global,B,,,,,,0,Instruct,User,-,"You have completed this section. Please click next.",,Instruct166,2177,,,333,333,,,,,1
60282d2ffedb021342e2df15,7vwphuyu61,Ex2A_Prolific,1,19,2024-03-01T20:02:07+00:00,30.37677693367,4,Stim_B.csv,Global.csv,Global,B,,,,,,0,FreeRecall,30,30,"Please type as many words as you can that begin with the letter ""W"". The computer will automatically advance to the next screen in 30 seconds.",,FILLER,30003,"water wind windfall waterfall water bender whiff waste want was wam wham went",0,4009,29817,0,0,,,1
60282d2ffedb021342e2df15,7vwphuyu61,Ex2A_Prolific,1,20,2024-03-01T20:02:09+00:00,2.3300330638885,4,Stim_B.csv,Global.csv,Global,B,,,,,,0,Instruct,User,-,"You have completed this section. Please click next.",,Instruct166,1923,,,139,139,,,,,1
60282d2ffedb021342e2df15,7vwphuyu61,Ex2A_Prolific,1,21,2024-03-01T20:02:48+00:00,38.873128890991,4,Stim_B.csv,Global.csv,Global,B,,,,,,0,Instruct,User,4,"You will now complete a memory test for the words you just studied. Please type as many words from the previous list as you can seperated by a comma. Spelling will not count against you and you can recall the words in any order. This test will be timed for one minute, and the computer will automatically advance once time is up. Click next when you are ready to begin.",,Instruct1666,38497,,,-1,-1,,,,,1
60282d2ffedb021342e2df15,7vwphuyu61,Ex2A_Prolific,1,22,2024-03-01T20:03:48+00:00,60.463158130646,4,Stim_B.csv,Global.csv,Global,B,,,,,,0,FreeRecall,60,60,"Please type as many words as you can from the previous study list in any order. Please separate each word with a comma. Spelling will not count against you. This screen will automatically advance in one minute.",,RECALL_Test,60001,"aroma, scent, whiff, stench, reek, sniff, perfume, fragrance, nose",0,1503,59883,0,0,,,1
60282d2ffedb021342e2df15,7vwphuyu61,Ex2A_Prolific,1,23,2024-03-01T20:04:00+00:00,11.438127994537,4,Stim_B.csv,Global.csv,Global,B,,,,,,0,Instruct,User,3,"You will now be presented with a new study list. Click next when you are ready to begin.",,NEXT_LIST,10976,,,-1,-1,,,,,1
60282d2ffedb021342e2df15,7vwphuyu61,Ex2A_Prolific,1,24,2024-03-01T20:04:07+00:00,7.2422180175781,4,Stim_B.csv,Global.csv,Global,B,hard,,R1,,,14,Study,User,1.25,,Rough,R1,6844,,,-1,-1,,,,,1
60282d2ffedb021342e2df15,7vwphuyu61,Ex2A_Prolific,1,25,2024-03-01T20:04:09+00:00,2.2558660507202,4,Stim_B.csv,Global.csv,Global,B,loud,,R2,,,15,Study,User,1.25,,Rough,R2,1845,,,-1,-1,,,,,1
60282d2ffedb021342e2df15,7vwphuyu61,Ex2A_Prolific,1,26,2024-03-01T20:04:11+00:00,2.1438448429108,4,Stim_B.csv,Global.csv,Global,B,tender,,R3,,,16,Study,User,1.25,,Rough,R3,1762,,,-1,-1,,,,,1
60282d2ffedb021342e2df15,7vwphuyu61,Ex2A_Prolific,1,27,2024-03-01T20:04:13+00:00,1.7594749927521,4,Stim_B.csv,Global.csv,Global,B,fluffy,,R4,,,17,Study,User,1.25,,Rough,R4,1372,,,-1,-1,,,,,1
60282d2ffedb021342e2df15,7vwphuyu61,Ex2A_Prolific,1,28,2024-03-01T20:04:15+00:00,1.9770860671997,4,Stim_B.csv,Global.csv,Global,B,pillow,,R5,,,18,Study,User,1.25,,Rough,R5,1596,,,-1,-1,,,,,1
60282d2ffedb021342e2df15,7vwphuyu61,Ex2A_Prolific,1,29,2024-03-01T20:04:17+00:00,1.7964549064636,4,Stim_B.csv,Global.csv,Global,B,downy,,R6,,,19,Study,User,1.25,,Rough,R6,1442,,,-1,-1,,,,,1
60282d2ffedb021342e2df15,7vwphuyu61,Ex2A_Prolific,1,30,2024-03-01T20:04:19+00:00,1.9444251060486,4,Stim_B.csv,Global.csv,Global,B,plush,,R7,,,20,Study,User,1.25,,Rough,R7,1573,,,-1,-1,,,,,1
60282d2ffedb021342e2df15,7vwphuyu61,Ex2A_Prolific,1,31,2024-03-01T20:04:21+00:00,2.1325809955597,4,Stim_B.csv,Global.csv,Global,B,cotton,,R8,,,21,Study,User,1.25,,Rough,R8,1761,,,-1,-1,,,,,1
60282d2ffedb021342e2df15,7vwphuyu61,Ex2A_Prolific,1,32,2024-03-01T20:04:23+00:00,2.3002049922943,4,Stim_B.csv,Global.csv,Global,B,skin,,R9,,,22,Study,User,1.25,,Rough,R9,1921,,,-1,-1,,,,,1
60282d2ffedb021342e2df15,7vwphuyu61,Ex2A_Prolific,1,33,2024-03-01T20:04:25+00:00,2.0534219741821,4,Stim_B.csv,Global.csv,Global,B,fur,,R10,,,23,Study,User,1.25,,Rough,R10,1650,,,-1,-1,,,,,1
60282d2ffedb021342e2df15,7vwphuyu61,Ex2A_Prolific,1,34,2024-03-01T20:04:28+00:00,2.3048100471497,4,Stim_B.csv,Global.csv,Global,B,touch,,R11,,,24,Study,User,1.25,,Rough,R11,1904,,,-1,-1,,,,,1
60282d2ffedb021342e2df15,7vwphuyu61,Ex2A_Prolific,1,35,2024-03-01T20:04:30+00:00,2.2635669708252,4,Stim_B.csv,Global.csv,Global,B,furry,,R12,,,25,Study,User,1.25,,Rough,R12,1896,,,-1,-1,,,,,1
60282d2ffedb021342e2df15,7vwphuyu61,Ex2A_Prolific,1,36,2024-03-01T20:04:37+00:00,6.7099559307098,4,Stim_B.csv,Global.csv,Global,B,,,,,,0,Instruct,User,-,"You have completed this section and will now be asked to judge your ability to remember the list items you just studied. You will have four seconds to type your rating. Please click next to continue.",,Next_List1,6327,,,-1,-1,,,,,1
60282d2ffedb021342e2df15,7vwphuyu61,Ex2A_Prolific,1,37,2024-03-01T20:04:42+00:00,5.3846080303192,4,Stim_B.csv,Global.csv,Global,B,,,,,,0,JOL_GLOBAL,5,5,"How likely are you to correctly recall each of the items you just studied?|Type your response on a scale from 0-100 and then press Enter (0 = WILL NOT REMEMBER; 100 = DEFINITELY WILL REMEMBER).",Unrelated,JOL2,5003,,,1073,1276,,,,75,1
60282d2ffedb021342e2df15,7vwphuyu61,Ex2A_Prolific,1,38,2024-03-01T20:04:45+00:00,3.1958990097046,4,Stim_B.csv,Global.csv,Global,B,,,,,,0,Instruct,User,1.25,"You have completed this section. Please click next.",,Instruct166,2828,,,-1,-1,,,,,1
60282d2ffedb021342e2df15,7vwphuyu61,Ex2A_Prolific,1,39,2024-03-01T20:05:16+00:00,30.38493013382,4,Stim_B.csv,Global.csv,Global,B,,,,,,0,FreeRecall,30,1.25,"Please type as many words as you can that begin with the letter ""N"". The computer will automatically advance to the next screen in 30 seconds.",,FILLER,30001,"not night nine nan none nose nowhere nothing nightingale never not no nope nada n",0,2179,29415,0,0,,,1
60282d2ffedb021342e2df15,7vwphuyu61,Ex2A_Prolific,1,40,2024-03-01T20:05:25+00:00,9.8150668144226,4,Stim_B.csv,Global.csv,Global,B,,,,,,0,Instruct,User,-,"You have completed this section. Please click next.",,Instruct166,9407,,,-1,-1,,,,,1
60282d2ffedb021342e2df15,7vwphuyu61,Ex2A_Prolific,1,41,2024-03-01T20:05:31+00:00,5.7580370903015,4,Stim_B.csv,Global.csv,Global,B,,,,,,0,Instruct,User,4,"You will now complete a memory test for the words you just studied. Please type as many words from the previous list as you can seperated by a comma. Spelling will not count against you and you can recall the words in any order. This test will be timed for one minute, and the computer will automatically advance once time is up. Click next when you are ready to begin.",,Instruct1666,5378,,,-1,-1,,,,,1
60282d2ffedb021342e2df15,7vwphuyu61,Ex2A_Prolific,1,42,2024-03-01T20:06:32+00:00,60.393719911575,4,Stim_B.csv,Global.csv,Global,B,,,,,,0,FreeRecall,60,60,"Please type as many words as you can from the previous study list in any order. Please separate each word with a comma. Spelling will not count against you. This screen will automatically advance in one minute.",,RECALL_Test,60003,"hard, loud, tender, fluffy, pillow, downy, plush, cotton, skin, fur, touch, furry",0,712,59365,0,0,,,1
60282d2ffedb021342e2df15,7vwphuyu61,Ex2A_Prolific,1,43,2024-03-01T20:06:36+00:00,4.5691430568695,4,Stim_B.csv,Global.csv,Global,B,,,,,,0,Instruct,User,3,"You will now be presented with a new study list. Click next when you are ready to begin.",,NEXT_LIST,4128,,,-1,-1,,,,,1
60282d2ffedb021342e2df15,7vwphuyu61,Ex2A_Prolific,1,44,2024-03-01T20:06:39+00:00,3.1975190639496,4,Stim_B.csv,Global.csv,Global,B,honey,,A1,,,26,Study,User,1.25,,Anger,A1,2812,,,-1,-1,,,,,1
60282d2ffedb021342e2df15,7vwphuyu61,Ex2A_Prolific,1,45,2024-03-01T20:06:42+00:00,2.4809970855713,4,Stim_B.csv,Global.csv,Global,B,bitter,,A2,,,27,Study,User,1.25,,Anger,A2,2108,,,-1,-1,,,,,1
60282d2ffedb021342e2df15,7vwphuyu61,Ex2A_Prolific,1,46,2024-03-01T20:06:44+00:00,2.2347648143768,4,Stim_B.csv,Global.csv,Global,B,sugar,,A3,,,28,Study,User,1.25,,Anger,A3,1852,,,-1,-1,,,,,1
60282d2ffedb021342e2df15,7vwphuyu61,Ex2A_Prolific,1,47,2024-03-01T20:06:46+00:00,2.0831670761108,4,Stim_B.csv,Global.csv,Global,B,sour,,A4,,,29,Study,User,1.25,,Anger,A4,1678,,,-1,-1,,,,,1
60282d2ffedb021342e2df15,7vwphuyu61,Ex2A_Prolific,1,48,2024-03-01T20:06:48+00:00,2.1006820201874,4,Stim_B.csv,Global.csv,Global,B,candy,,A5,,,30,Study,User,1.25,,Anger,A5,1702,,,-1,-1,,,,,1
60282d2ffedb021342e2df15,7vwphuyu61,Ex2A_Prolific,1,49,2024-03-01T20:06:50+00:00,2.1655020713806,4,Stim_B.csv,Global.csv,Global,B,tart,,A6,,,31,Study,User,1.25,,Anger,A6,1804,,,-1,-1,,,,,1
60282d2ffedb021342e2df15,7vwphuyu61,Ex2A_Prolific,1,50,2024-03-01T20:06:52+00:00,1.9378340244293,4,Stim_B.csv,Global.csv,Global,B,chocolate,,A7,,,32,Study,User,1.25,,Anger,A7,1544,,,-1,-1,,,,,1
60282d2ffedb021342e2df15,7vwphuyu61,Ex2A_Prolific,1,51,2024-03-01T20:06:54+00:00,1.9172039031982,4,Stim_B.csv,Global.csv,Global,B,nice,,A8,,,33,Study,User,1.25,,Anger,A8,1544,,,-1,-1,,,,,1
60282d2ffedb021342e2df15,7vwphuyu61,Ex2A_Prolific,1,52,2024-03-01T20:06:56+00:00,2.0265779495239,4,Stim_B.csv,Global.csv,Global,B,taste,,A9,,,34,Study,User,1.25,,Anger,A9,1655,,,-1,-1,,,,,1
60282d2ffedb021342e2df15,7vwphuyu61,Ex2A_Prolific,1,53,2024-03-01T20:06:58+00:00,2.0452160835266,4,Stim_B.csv,Global.csv,Global,B,cake,,A10,,,35,Study,User,1.25,,Anger,A10,1663,,,-1,-1,,,,,1
60282d2ffedb021342e2df15,7vwphuyu61,Ex2A_Prolific,1,54,2024-03-01T20:07:00+00:00,1.9301068782806,4,Stim_B.csv,Global.csv,Global,B,good,,A11,,,36,Study,User,1.25,,Anger,A11,1564,,,-1,-1,,,,,1
60282d2ffedb021342e2df15,7vwphuyu61,Ex2A_Prolific,1,55,2024-03-01T20:07:02+00:00,1.8559401035309,4,Stim_B.csv,Global.csv,Global,B,tooth,,A12,,,37,Study,User,1.25,,Anger,A12,1482,,,-1,-1,,,,,1
60282d2ffedb021342e2df15,7vwphuyu61,Ex2A_Prolific,1,56,2024-03-01T20:07:15+00:00,13.399621963501,4,Stim_B.csv,Global.csv,Global,B,,,,,,0,Instruct,User,-,"You have completed this section and will now be asked to judge your ability to remember the list items you just studied. You will have four seconds to type your rating. Please click next to continue.",,Next_List1,13030,,,-1,-1,,,,,1
60282d2ffedb021342e2df15,7vwphuyu61,Ex2A_Prolific,1,57,2024-03-01T20:07:21+00:00,5.4149959087372,4,Stim_B.csv,Global.csv,Global,B,,,,,,0,JOL_GLOBAL,5,5,"How likely are you to correctly recall each of the items you just studied?|Type your response on a scale from 0-100 and then press Enter (0 = WILL NOT REMEMBER; 100 = DEFINITELY WILL REMEMBER).",Related,JOL3,5003,,,1572,1922,,,,70,1
60282d2ffedb021342e2df15,7vwphuyu61,Ex2A_Prolific,1,58,2024-03-01T20:07:26+00:00,4.9493281841278,4,Stim_B.csv,Global.csv,Global,B,,,,,,0,Instruct,User,4,"You have completed this section. Please click next.",,Instruct166,4577,,,-1,-1,,,,,1
60282d2ffedb021342e2df15,7vwphuyu61,Ex2A_Prolific,1,59,2024-03-01T20:07:56+00:00,30.373867034912,4,Stim_B.csv,Global.csv,Global,B,,,,,,0,FreeRecall,30,30,"Please type as many words as you can that begin with the letter ""L"". The computer will automatically advance to the next screen in 30 seconds.",,FILLER,30002,"light lizard line linear lightning lighting lamp lane language",0,1560,28503,0,0,,,1
60282d2ffedb021342e2df15,7vwphuyu61,Ex2A_Prolific,1,60,2024-03-01T20:07:58+00:00,2.2332918643951,4,Stim_B.csv,Global.csv,Global,B,,,,,,0,Instruct,User,-,"You have completed this section. Please click next.",,Instruct166,1804,,,-1,-1,,,,,1
60282d2ffedb021342e2df15,7vwphuyu61,Ex2A_Prolific,1,61,2024-03-01T20:08:03+00:00,4.885134935379,4,Stim_B.csv,Global.csv,Global,B,,,,,,0,Instruct,User,4,"You will now complete a memory test for the words you just studied. Please type as many words from the previous list as you can seperated by a comma. Spelling will not count against you and you can recall the words in any order. This test will be timed for one minute, and the computer will automatically advance once time is up. Click next when you are ready to begin.",,Instruct1666,4504,,,-1,-1,,,,,1
60282d2ffedb021342e2df15,7vwphuyu61,Ex2A_Prolific,1,62,2024-03-01T20:09:04+00:00,60.369304180145,4,Stim_B.csv,Global.csv,Global,B,,,,,,0,FreeRecall,60,60,"Please type as many words as you can from the previous study list in any order. Please separate each word with a comma. Spelling will not count against you. This screen will automatically advance in one minute.",,RECALL_Test,60005,"honey, bitter, sugar, sour, candy, tart, chocolate, nice, taste, cake, good, tooth",0,754,37877,0,0,,,1
60282d2ffedb021342e2df15,7vwphuyu61,Ex2A_Prolific,1,63,2024-03-01T20:09:09+00:00,5.703763961792,4,Stim_B.csv,Global.csv,Global,B,,,,,,0,Instruct,User,3,"You will now be presented with a new study list. Click next when you are ready to begin.",,NEXT_LIST,5230,,,-1,-1,,,,,1
60282d2ffedb021342e2df15,7vwphuyu61,Ex2A_Prolific,1,64,2024-03-01T20:09:13+00:00,3.5845739841461,4,Stim_B.csv,Global.csv,Global,B,table,,T1,,,38,Study,User,1.25,,Trash,T1,3106,,,-1,-1,,,,,1
60282d2ffedb021342e2df15,7vwphuyu61,Ex2A_Prolific,1,65,2024-03-01T20:09:15+00:00,1.8600008487701,4,Stim_B.csv,Global.csv,Global,B,swivel,,T2,,,39,Study,User,1.25,,Trash,T2,1464,,,-1,-1,,,,,1
60282d2ffedb021342e2df15,7vwphuyu61,Ex2A_Prolific,1,66,2024-03-01T20:09:17+00:00,2.1379442214966,4,Stim_B.csv,Global.csv,Global,B,rocking,,T3,,,40,Study,User,1.25,,Trash,T3,1743,,,-1,-1,,,,,1
60282d2ffedb021342e2df15,7vwphuyu61,Ex2A_Prolific,1,67,2024-03-01T20:09:19+00:00,2.068913936615,4,Stim_B.csv,Global.csv,Global,B,recliner,,T4,,,41,Study,User,1.25,,Trash,T4,1694,,,-1,-1,,,,,1
60282d2ffedb021342e2df15,7vwphuyu61,Ex2A_Prolific,1,68,2024-03-01T20:09:21+00:00,2.1260590553284,4,Stim_B.csv,Global.csv,Global,B,seat,,T5,,,42,Study,User,1.25,,Trash,T5,1729,,,-1,-1,,,,,1
60282d2ffedb021342e2df15,7vwphuyu61,Ex2A_Prolific,1,69,2024-03-01T20:09:23+00:00,1.975793838501,4,Stim_B.csv,Global.csv,Global,B,stool,,T6,,,43,Study,User,1.25,,Trash,T6,1600,,,-1,-1,,,,,1
60282d2ffedb021342e2df15,7vwphuyu61,Ex2A_Prolific,1,70,2024-03-01T20:09:25+00:00,2.0474109649658,4,Stim_B.csv,Global.csv,Global,B,desk,,T7,,,44,Study,User,1.25,,Trash,T7,1663,,,-1,-1,,,,,1
60282d2ffedb021342e2df15,7vwphuyu61,Ex2A_Prolific,1,71,2024-03-01T20:09:27+00:00,1.844642162323,4,Stim_B.csv,Global.csv,Global,B,couch,,T8,,,45,Study,User,1.25,,Trash,T8,1454,,,-1,-1,,,,,1
60282d2ffedb021342e2df15,7vwphuyu61,Ex2A_Prolific,1,72,2024-03-01T20:09:29+00:00,1.640035867691,4,Stim_B.csv,Global.csv,Global,B,sit,,T9,,,46,Study,User,1.25,,Trash,T9,1262,,,-1,-1,,,,,1
60282d2ffedb021342e2df15,7vwphuyu61,Ex2A_Prolific,1,73,2024-03-01T20:09:30+00:00,1.7498199939728,4,Stim_B.csv,Global.csv,Global,B,sofa,,T10,,,47,Study,User,1.25,,Trash,T10,1368,,,-1,-1,,,,,1
60282d2ffedb021342e2df15,7vwphuyu61,Ex2A_Prolific,1,74,2024-03-01T20:09:32+00:00,1.8154971599579,4,Stim_B.csv,Global.csv,Global,B,bench,,T11,,,48,Study,User,1.25,,Trash,T11,1429,,,-1,-1,,,,,1
60282d2ffedb021342e2df15,7vwphuyu61,Ex2A_Prolific,1,75,2024-03-01T20:09:34+00:00,2.0684888362885,4,Stim_B.csv,Global.csv,Global,B,sitting,,T12,,,49,Study,User,1.25,,Trash,T12,1690,,,-1,-1,,,,,1
60282d2ffedb021342e2df15,7vwphuyu61,Ex2A_Prolific,1,76,2024-03-01T20:10:09+00:00,34.578729152679,4,Stim_B.csv,Global.csv,Global,B,,,,,,0,Instruct,User,-,"You have completed this section and will now be asked to judge your ability to remember the list items you just studied. You will have four seconds to type your rating. Please click next to continue.",,Next_List1,34208,,,-1,-1,,,,,1
60282d2ffedb021342e2df15,7vwphuyu61,Ex2A_Prolific,1,77,2024-03-01T20:10:14+00:00,5.4948389530182,4,Stim_B.csv,Global.csv,Global,B,,,,,,0,JOL_GLOBAL,5,5,"How likely are you to correctly recall each of the items you just studied?|Type your response on a scale from 0-100 and then press Enter (0 = WILL NOT REMEMBER; 100 = DEFINITELY WILL REMEMBER).",Related,JOL4,5005,,,750,3954,,,,100,1
60282d2ffedb021342e2df15,7vwphuyu61,Ex2A_Prolific,1,78,2024-03-01T20:10:22+00:00,7.2277429103851,4,Stim_B.csv,Global.csv,Global,B,,,,,,0,Instruct,User,4,"You have completed this section. Please click next.",,Instruct166,6833,,,-1,-1,,,,,1
60282d2ffedb021342e2df15,7vwphuyu61,Ex2A_Prolific,1,79,2024-03-01T20:10:52+00:00,30.39377117157,4,Stim_B.csv,Global.csv,Global,B,,,,,,0,FreeRecall,30,30,"Please type as many words as you can that begin with the letter ""K"". The computer will automatically advance to the next screen in 30 seconds.",,FILLER,30002,"kick kind knight knighthood knife knives knifing kinder kindn",0,1789,29765,0,0,,,1
60282d2ffedb021342e2df15,7vwphuyu61,Ex2A_Prolific,1,80,2024-03-01T20:10:54+00:00,2.0579378604889,4,Stim_B.csv,Global.csv,Global,B,,,,,,0,Instruct,User,-,"You have completed this section. Please click next.",,Instruct166,1612,,,-1,-1,,,,,1
60282d2ffedb021342e2df15,7vwphuyu61,Ex2A_Prolific,1,81,2024-03-01T20:10:56+00:00,2.2027051448822,4,Stim_B.csv,Global.csv,Global,B,,,,,,0,Instruct,User,1.25,"You will now complete a memory test for the words you just studied. Please type as many words from the previous list as you can seperated by a comma. Spelling will not count against you and you can recall the words in any order. This test will be timed for one minute, and the computer will automatically advance once time is up. Click next when you are ready to begin.",,Instruct1666,1827,,,-1,-1,,,,,1
60282d2ffedb021342e2df15,7vwphuyu61,Ex2A_Prolific,1,82,2024-03-01T20:11:57+00:00,60.376527786255,4,Stim_B.csv,Global.csv,Global,B,,,,,,0,FreeRecall,60,60,"Please type as many words as you can from the previous study list in any order. Please separate each word with a comma. Spelling will not count against you. This screen will automatically advance in one minute.",,RECALL_Test,60001,"table, swivel, rocking, recliner, seat, stool, desk, couch, sit, sofa, bench, sitting,",0,802,44044,0,0,,,1
60282d2ffedb021342e2df15,7vwphuyu61,Ex2A_Prolific,1,83,2024-03-01T20:12:06+00:00,8.9804620742798,4,Stim_B.csv,Global.csv,Global,B,,,,,,0,Instruct,User,3,"You will now be presented with a new study list. Click next when you are ready to begin.",,NEXT_LIST,8522,,,-1,-1,,,,,1
60282d2ffedb021342e2df15,7vwphuyu61,Ex2A_Prolific,1,84,2024-03-01T20:12:10+00:00,4.163684129715,4,Stim_B.csv,Global.csv,Global,B,climber,,D1,,,50,Study,User,1.25,,Doctor,D1,3757,,,-1,-1,,,,,1
60282d2ffedb021342e2df15,7vwphuyu61,Ex2A_Prolific,1,85,2024-03-01T20:12:12+00:00,2.2728478908539,4,Stim_B.csv,Global.csv,Global,B,hill,,D2,,,51,Study,User,1.25,,Doctor,D2,1871,,,-1,-1,,,,,1
60282d2ffedb021342e2df15,7vwphuyu61,Ex2A_Prolific,1,86,2024-03-01T20:12:14+00:00,2.3047459125519,4,Stim_B.csv,Global.csv,Global,B,climb,,D3,,,52,Study,User,1.25,,Doctor,D3,1937,,,-1,-1,,,,,1
60282d2ffedb021342e2df15,7vwphuyu61,Ex2A_Prolific,1,87,2024-03-01T20:12:16+00:00,1.7088232040405,4,Stim_B.csv,Global.csv,Global,B,molehill,,D4,,,53,Study,User,1.25,,Doctor,D4,1329,,,-1,-1,,,,,1
60282d2ffedb021342e2df15,7vwphuyu61,Ex2A_Prolific,1,88,2024-03-01T20:12:19+00:00,2.6889278888702,4,Stim_B.csv,Global.csv,Global,B,peak,,D5,,,54,Study,User,1.25,,Doctor,D5,2289,,,-1,-1,,,,,1
60282d2ffedb021342e2df15,7vwphuyu61,Ex2A_Prolific,1,89,2024-03-01T20:12:22+00:00,3.0919508934021,4,Stim_B.csv,Global.csv,Global,B,valley,,D6,,,55,Study,User,1.25,,Doctor,D6,2699,,,-1,-1,,,,,1
60282d2ffedb021342e2df15,7vwphuyu61,Ex2A_Prolific,1,90,2024-03-01T20:12:24+00:00,2.4598171710968,4,Stim_B.csv,Global.csv,Global,B,summit,,D7,,,56,Study,User,1.25,,Doctor,D7,2087,,,-1,-1,,,,,1
60282d2ffedb021342e2df15,7vwphuyu61,Ex2A_Prolific,1,91,2024-03-01T20:12:27+00:00,2.7406718730927,4,Stim_B.csv,Global.csv,Global,B,steep,,D8,,,57,Study,User,1.25,,Doctor,D8,2359,,,-1,-1,,,,,1
60282d2ffedb021342e2df15,7vwphuyu61,Ex2A_Prolific,1,92,2024-03-01T20:12:29+00:00,2.1935570240021,4,Stim_B.csv,Global.csv,Global,B,ski,,D9,,,58,Study,User,1.25,,Doctor,D9,1799,,,-1,-1,,,,,1
60282d2ffedb021342e2df15,7vwphuyu61,Ex2A_Prolific,1,93,2024-03-01T20:12:32+00:00,2.5439710617065,4,Stim_B.csv,Global.csv,Global,B,bike,,D10,,,59,Study,User,1.25,,Doctor,D10,2147,,,-1,-1,,,,,1
60282d2ffedb021342e2df15,7vwphuyu61,Ex2A_Prolific,1,94,2024-03-01T20:12:34+00:00,2.275810956955,4,Stim_B.csv,Global.csv,Global,B,goat,,D11,,,60,Study,User,1.25,,Doctor,D11,1894,,,-1,-1,,,,,1
60282d2ffedb021342e2df15,7vwphuyu61,Ex2A_Prolific,1,95,2024-03-01T20:12:36+00:00,1.6952450275421,4,Stim_B.csv,Global.csv,Global,B,glacier,,D12,,,61,Study,User,1.25,,Doctor,D12,1307,,,-1,-1,,,,,1
60282d2ffedb021342e2df15,7vwphuyu61,Ex2A_Prolific,1,96,2024-03-01T20:12:39+00:00,3.3364639282227,4,Stim_B.csv,Global.csv,Global,B,,,,,,0,Instruct,User,-,"You have completed this section and will now be asked to judge your ability to remember the list items you just studied. You will have four seconds to type your rating. Please click next to continue.",,Next_List1,2961,,,-1,-1,,,,,1
60282d2ffedb021342e2df15,7vwphuyu61,Ex2A_Prolific,1,97,2024-03-01T20:12:45+00:00,5.3804659843445,4,Stim_B.csv,Global.csv,Global,B,,,,,,0,JOL_GLOBAL,5,1.25,"How likely are you to correctly recall each of the items you just studied?|Type your response on a scale from 0-100 and then press Enter (0 = WILL NOT REMEMBER; 100 = DEFINITELY WILL REMEMBER).",Related,JOL5,5003,,,784,2539,,,,100,1
60282d2ffedb021342e2df15,7vwphuyu61,Ex2A_Prolific,1,98,2024-03-01T20:12:51+00:00,6.3530211448669,4,Stim_B.csv,Global.csv,Global,B,,,,,,0,Instruct,User,1.25,"You have completed this section. Please click next.",,Instruct166,5984,,,-1,-1,,,,,1
60282d2ffedb021342e2df15,7vwphuyu61,Ex2A_Prolific,1,99,2024-03-01T20:13:21+00:00,30.380587816238,4,Stim_B.csv,Global.csv,Global,B,,,,,,0,FreeRecall,30,30,"Please type as many words as you can that begin with the letter ""S"". The computer will automatically advance to the next screen in 30 seconds.",,FILLER,30003,"steel steal steed stead snake save safe safety savings soc",0,1897,29723,0,0,,,1
60282d2ffedb021342e2df15,7vwphuyu61,Ex2A_Prolific,1,100,2024-03-01T20:13:24+00:00,2.2860782146454,4,Stim_B.csv,Global.csv,Global,B,,,,,,0,Instruct,User,-,"You have completed this section. Please click next.",,Instruct166,1866,,,-1,-1,,,,,1
60282d2ffedb021342e2df15,7vwphuyu61,Ex2A_Prolific,1,101,2024-03-01T20:13:28+00:00,4.9584059715271,4,Stim_B.csv,Global.csv,Global,B,,,,,,0,Instruct,User,4,"You will now complete a memory test for the words you just studied. Please type as many words from the previous list as you can seperated by a comma. Spelling will not count against you and you can recall the words in any order. This test will be timed for one minute, and the computer will automatically advance once time is up. Click next when you are ready to begin.",,Instruct1666,4585,,,-1,-1,,,,,1
60282d2ffedb021342e2df15,7vwphuyu61,Ex2A_Prolific,1,102,2024-03-01T20:14:29+00:00,60.377367019653,4,Stim_B.csv,Global.csv,Global,B,,,,,,0,FreeRecall,60,60,"Please type as many words as you can from the previous study list in any order. Please separate each word with a comma. Spelling will not count against you. This screen will automatically advance in one minute.",,RECALL_Test,60002,"hill, climb, molehill, peak, valley, summit, steep, ski, bike, goat, glacier",0,947,44805,0,0,,,1
60282d2ffedb021342e2df15,7vwphuyu61,Ex2A_Prolific,1,103,2024-03-01T20:14:37+00:00,8.2721619606018,4,Stim_B.csv,Global.csv,Global,B,,,,,,0,Instruct,User,3,"You will now be presented with a new study list. Click next when you are ready to begin.",,NEXT_LIST,7804,,,-1,-1,,,,,1
60282d2ffedb021342e2df15,7vwphuyu61,Ex2A_Prolific,1,104,2024-03-01T20:14:40+00:00,2.4413230419159,4,Stim_B.csv,Global.csv,Global,B,band,,S1,,,62,Study,User,1.25,,Slow,S1,2045,,,-1,-1,,,,,1
60282d2ffedb021342e2df15,7vwphuyu61,Ex2A_Prolific,1,105,2024-03-01T20:14:42+00:00,1.9508500099182,4,Stim_B.csv,Global.csv,Global,B,concert,,S2,,,63,Study,User,1.25,,Slow,S2,1584,,,-1,-1,,,,,1
60282d2ffedb021342e2df15,7vwphuyu61,Ex2A_Prolific,1,106,2024-03-01T20:14:44+00:00,2.1634619235992,4,Stim_B.csv,Global.csv,Global,B,jazz,,S3,,,64,Study,User,1.25,,Slow,S3,1777,,,-1,-1,,,,,1
60282d2ffedb021342e2df15,7vwphuyu61,Ex2A_Prolific,1,107,2024-03-01T20:14:46+00:00,1.9321179389954,4,Stim_B.csv,Global.csv,Global,B,symphony,,S4,,,65,Study,User,1.25,,Slow,S4,1564,,,-1,-1,,,,,1
60282d2ffedb021342e2df15,7vwphuyu61,Ex2A_Prolific,1,108,2024-03-01T20:14:48+00:00,2.028697013855,4,Stim_B.csv,Global.csv,Global,B,orchestra,,S5,,,66,Study,User,1.25,,Slow,S5,1645,,,-1,-1,,,,,1
60282d2ffedb021342e2df15,7vwphuyu61,Ex2A_Prolific,1,109,2024-03-01T20:14:50+00:00,1.9625051021576,4,Stim_B.csv,Global.csv,Global,B,rhythm,,S6,,,67,Study,User,1.25,,Slow,S6,1591,,,-1,-1,,,,,1
60282d2ffedb021342e2df15,7vwphuyu61,Ex2A_Prolific,1,110,2024-03-01T20:14:52+00:00,2.0419728755951,4,Stim_B.csv,Global.csv,Global,B,radio,,S7,,,68,Study,User,1.25,,Slow,S7,1663,,,-1,-1,,,,,1
60282d2ffedb021342e2df15,7vwphuyu61,Ex2A_Prolific,1,111,2024-03-01T20:14:54+00:00,2.5286729335785,4,Stim_B.csv,Global.csv,Global,B,melody,,S8,,,69,Study,User,1.25,,Slow,S8,2158,,,-1,-1,,,,,1
60282d2ffedb021342e2df15,7vwphuyu61,Ex2A_Prolific,1,112,2024-03-01T20:14:56+00:00,1.7725541591644,4,Stim_B.csv,Global.csv,Global,B,piano,,S9,,,70,Study,User,1.25,,Slow,S9,1361,,,-1,-1,,,,,1
60282d2ffedb021342e2df15,7vwphuyu61,Ex2A_Prolific,1,113,2024-03-01T20:14:58+00:00,2.2660038471222,4,Stim_B.csv,Global.csv,Global,B,sound,,S10,,,71,Study,User,1.25,,Slow,S10,1898,,,-1,-1,,,,,1
60282d2ffedb021342e2df15,7vwphuyu61,Ex2A_Prolific,1,114,2024-03-01T20:15:01+00:00,2.3978881835938,4,Stim_B.csv,Global.csv,Global,B,instrument,,S11,,,72,Study,User,1.25,,Slow,S11,1984,,,-1,-1,,,,,1
60282d2ffedb021342e2df15,7vwphuyu61,Ex2A_Prolific,1,115,2024-03-01T20:15:03+00:00,2.4098048210144,4,Stim_B.csv,Global.csv,Global,B,note,,S12,,,73,Study,User,1.25,,Slow,S12,1999,,,-1,-1,,,,,1
60282d2ffedb021342e2df15,7vwphuyu61,Ex2A_Prolific,1,116,2024-03-01T20:15:16+00:00,12.940184116364,4,Stim_B.csv,Global.csv,Global,B,,,,,,0,Instruct,User,-,"You have completed this section and will now be asked to judge your ability to remember the list items you just studied. You will have four seconds to type your rating. Please click next to continue.",,Next_List1,12553,,,-1,-1,,,,,1
60282d2ffedb021342e2df15,7vwphuyu61,Ex2A_Prolific,1,117,2024-03-01T20:15:21+00:00,5.4442410469055,4,Stim_B.csv,Global.csv,Global,B,,,,,,0,JOL_GLOBAL,5,5,"How likely are you to correctly recall each of the items you just studied?|Type your response on a scale from 0-100 and then press Enter (0 = WILL NOT REMEMBER; 100 = DEFINITELY WILL REMEMBER).",Related,JOL6,5001,,,2188,2815,,,,100,1
60282d2ffedb021342e2df15,7vwphuyu61,Ex2A_Prolific,1,118,2024-03-01T20:15:46+00:00,24.424419879913,4,Stim_B.csv,Global.csv,Global,B,,,,,,0,Instruct,User,4,"You have completed this section. Please click next.",,Instruct166,24032,,,-1,-1,,,,,1
60282d2ffedb021342e2df15,7vwphuyu61,Ex2A_Prolific,1,119,2024-03-01T20:16:16+00:00,30.413825035095,4,Stim_B.csv,Global.csv,Global,B,,,,,,0,FreeRecall,30,30,"Please type as many words as you can that begin with the letter ""C"". The computer will automatically advance to the next screen in 30 seconds.",,FILLER,30001,"candle christy christmas crime craft crafty climb climb call calling ",0,1489,29020,0,0,,,1
60282d2ffedb021342e2df15,7vwphuyu61,Ex2A_Prolific,1,120,2024-03-01T20:16:22+00:00,5.5297601222992,4,Stim_B.csv,Global.csv,Global,B,,,,,,0,Instruct,User,4,"You have completed this section. Please click next.",,Instruct166,5081,,,-1,-1,,,,,1
60282d2ffedb021342e2df15,7vwphuyu61,Ex2A_Prolific,1,121,2024-03-01T20:16:27+00:00,5.0902409553528,4,Stim_B.csv,Global.csv,Global,B,,,,,,0,Instruct,User,4,"You will now complete a memory test for the words you just studied. Please type as many words from the previous list as you can seperated by a comma. Spelling will not count against you and you can recall the words in any order. This test will be timed for one minute, and the computer will automatically advance once time is up. Click next when you are ready to begin.",,Instruct1666,4702,,,-1,-1,,,,,1
60282d2ffedb021342e2df15,7vwphuyu61,Ex2A_Prolific,1,122,2024-03-01T20:17:27+00:00,60.401124000549,4,Stim_B.csv,Global.csv,Global,B,,,,,,0,FreeRecall,60,60,"Please type as many words as you can from the previous study list in any order. Please separate each word with a comma. Spelling will not count against you. This screen will automatically advance in one minute.",,RECALL_Test,60003,"band, concert, jazz, symphony, orchestra, rhythm, radio, melody, piano, sound, instrument, note",0,865,52315,0,0,,,1
60282d2ffedb021342e2df15,7vwphuyu61,Ex2A_Prolific,1,123,2024-03-01T20:17:32+00:00,5.1723239421844,4,Stim_B.csv,Global.csv,Global,B,,,,,,0,Instruct,User,3,"You will now be presented with a new study list. Click next when you are ready to begin.",,NEXT_LIST,4685,,,-1,-1,,,,,1
60282d2ffedb021342e2df15,7vwphuyu61,Ex2A_Prolific,1,124,2024-03-01T20:17:35+00:00,2.2719750404358,4,Stim_B.csv,Global.csv,Global,B,foam,,RR1,,,74,Study,User,1.25,,River,RR1,1872,,,-1,-1,,,,,1
60282d2ffedb021342e2df15,7vwphuyu61,Ex2A_Prolific,1,125,2024-03-01T20:17:37+00:00,2.119148015976,4,Stim_B.csv,Global.csv,Global,B,latex,,RR2,,,75,Study,User,1.25,,River,RR2,1716,,,-1,-1,,,,,1
60282d2ffedb021342e2df15,7vwphuyu61,Ex2A_Prolific,1,126,2024-03-01T20:17:39+00:00,2.1754050254822,4,Stim_B.csv,Global.csv,Global,B,galoshes,,RR3,,,76,Study,User,1.25,,River,RR3,1785,,,-1,-1,,,,,1
60282d2ffedb021342e2df15,7vwphuyu61,Ex2A_Prolific,1,127,2024-03-01T20:17:41+00:00,2.2438189983368,4,Stim_B.csv,Global.csv,Global,B,tire,,RR4,,,77,Study,User,1.25,,River,RR4,1799,,,-1,-1,,,,,1
60282d2ffedb021342e2df15,7vwphuyu61,Ex2A_Prolific,1,128,2024-03-01T20:17:43+00:00,2.1358189582825,4,Stim_B.csv,Global.csv,Global,B,flexible,,RR5,,,78,Study,User,1.25,,River,RR5,1739,,,-1,-1,,,,,1
60282d2ffedb021342e2df15,7vwphuyu61,Ex2A_Prolific,1,129,2024-03-01T20:17:46+00:00,2.7173209190369,4,Stim_B.csv,Global.csv,Global,B,elastic,,RR6,,,79,Study,User,1.25,,River,RR6,2323,,,-1,-1,,,,,1
60282d2ffedb021342e2df15,7vwphuyu61,Ex2A_Prolific,1,130,2024-03-01T20:17:48+00:00,2.1934330463409,4,Stim_B.csv,Global.csv,Global,B,gloves,,RR7,,,80,Study,User,1.25,,River,RR7,1810,,,-1,-1,,,,,1
60282d2ffedb021342e2df15,7vwphuyu61,Ex2A_Prolific,1,131,2024-03-01T20:17:50+00:00,1.7989931106567,4,Stim_B.csv,Global.csv,Global,B,eraser,,RR8,,,81,Study,User,1.25,,River,RR8,1417,,,-1,-1,,,,,1
60282d2ffedb021342e2df15,7vwphuyu61,Ex2A_Prolific,1,132,2024-03-01T20:17:52+00:00,1.813197851181,4,Stim_B.csv,Global.csv,Global,B,bounce,,RR9,,,82,Study,User,1.25,,River,RR9,1410,,,-1,-1,,,,,1
60282d2ffedb021342e2df15,7vwphuyu61,Ex2A_Prolific,1,133,2024-03-01T20:17:54+00:00,1.8157889842987,4,Stim_B.csv,Global.csv,Global,B,ball,,RR10,,,83,Study,User,1.25,,River,RR10,1418,,,-1,-1,,,,,1
60282d2ffedb021342e2df15,7vwphuyu61,Ex2A_Prolific,1,134,2024-03-01T20:17:56+00:00,2.3424911499023,4,Stim_B.csv,Global.csv,Global,B,soles,,RR11,,,84,Study,User,1.25,,River,RR11,1935,,,-1,-1,,,,,1
60282d2ffedb021342e2df15,7vwphuyu61,Ex2A_Prolific,1,135,2024-03-01T20:17:58+00:00,1.9753468036652,4,Stim_B.csv,Global.csv,Global,B,springy,,RR12,,,85,Study,User,1.25,,River,RR12,1529,,,-1,-1,,,,,1
60282d2ffedb021342e2df15,7vwphuyu61,Ex2A_Prolific,1,136,2024-03-01T20:18:01+00:00,2.707643032074,4,Stim_B.csv,Global.csv,Global,B,,,,,,0,Instruct,User,-,"You have completed this section and will now be asked to judge your ability to remember the list items you just studied. You will have four seconds to type your rating. Please click next to continue.",,Next_List1,2315,,,-1,-1,,,,,1
60282d2ffedb021342e2df15,7vwphuyu61,Ex2A_Prolific,1,137,2024-03-01T20:18:06+00:00,5.40949010849,4,Stim_B.csv,Global.csv,Global,B,,,,,,0,JOL_GLOBAL,5,5,"How likely are you to correctly recall each of the items you just studied?|Type your response on a scale from 0-100 and then press Enter (0 = WILL NOT REMEMBER; 100 = DEFINITELY WILL REMEMBER).",Related,JOL7,5002,,,4412,4413,,,,1,1
60282d2ffedb021342e2df15,7vwphuyu61,Ex2A_Prolific,1,138,2024-03-01T20:18:09+00:00,2.6315250396729,4,Stim_B.csv,Global.csv,Global,B,,,,,,0,Instruct,User,-,"You have completed this section. Please click next.",,Instruct166,2257,,,-1,-1,,,,,1
60282d2ffedb021342e2df15,7vwphuyu61,Ex2A_Prolific,1,139,2024-03-01T20:18:39+00:00,30.428529977798,4,Stim_B.csv,Global.csv,Global,B,,,,,,0,FreeRecall,30,30,"Please type as many words as you can that begin with the letter ""T"". The computer will automatically advance to the next screen in 30 seconds.",,FILLER,30000,"tiger tie tea team tennis tempo teas tea till toll tile tier ",0,1530,29463,0,0,,,1
60282d2ffedb021342e2df15,7vwphuyu61,Ex2A_Prolific,1,140,2024-03-01T20:18:45+00:00,5.4684858322144,4,Stim_B.csv,Global.csv,Global,B,,,,,,0,Instruct,User,4,"You have completed this section. Please click next.",,Instruct166,5045,,,-1,-1,,,,,1
60282d2ffedb021342e2df15,7vwphuyu61,Ex2A_Prolific,1,141,2024-03-01T20:18:50+00:00,5.228865146637,4,Stim_B.csv,Global.csv,Global,B,,,,,,0,Instruct,User,4,"You will now complete a memory test for the words you just studied. Please type as many words from the previous list as you can seperated by a comma. Spelling will not count against you and you can recall the words in any order. This test will be timed for one minute, and the computer will automatically advance once time is up. Click next when you are ready to begin.",,Instruct1666,4806,,,-1,-1,,,,,1
60282d2ffedb021342e2df15,7vwphuyu61,Ex2A_Prolific,1,142,2024-03-01T20:19:50+00:00,60.428676843643,4,Stim_B.csv,Global.csv,Global,B,,,,,,0,FreeRecall,60,60,"Please type as many words as you can from the previous study list in any order. Please separate each word with a comma. Spelling will not count against you. This screen will automatically advance in one minute.",,RECALL_Test,60001,"foam, latex, galoshes, tire, flexible, elastic, gloves, eraser, bounce, ball, soles, springy, ",0,723,48962,0,0,,,1
60282d2ffedb021342e2df15,7vwphuyu61,Ex2A_Prolific,1,143,2024-03-01T20:19:56+00:00,5.3625741004944,4,Stim_B.csv,Global.csv,Global,B,,,,,,0,Instruct,User,3,"You will now be presented with a new study list. Click next when you are ready to begin.",,NEXT_LIST,4875,,,-1,-1,,,,,1
60282d2ffedb021342e2df15,7vwphuyu61,Ex2A_Prolific,1,144,2024-03-01T20:19:58+00:00,2.1080749034882,4,Stim_B.csv,Global.csv,Global,B,toe,,B1,,,86,Study,User,1.25,,Bread,B1,1704,,,-1,-1,,,,,1
60282d2ffedb021342e2df15,7vwphuyu61,Ex2A_Prolific,1,145,2024-03-01T20:20:00+00:00,2.1685161590576,4,Stim_B.csv,Global.csv,Global,B,inch,,B2,,,87,Study,User,1.25,,Bread,B2,1784,,,-1,-1,,,,,1
60282d2ffedb021342e2df15,7vwphuyu61,Ex2A_Prolific,1,146,2024-03-01T20:20:02+00:00,2.0074429512024,4,Stim_B.csv,Global.csv,Global,B,ankle,,B3,,,88,Study,User,1.25,,Bread,B3,1617,,,-1,-1,,,,,1
60282d2ffedb021342e2df15,7vwphuyu61,Ex2A_Prolific,1,147,2024-03-01T20:20:04+00:00,2.1280770301819,4,Stim_B.csv,Global.csv,Global,B,shoe,,B4,,,89,Study,User,1.25,,Bread,B4,1754,,,-1,-1,,,,,1
60282d2ffedb021342e2df15,7vwphuyu61,Ex2A_Prolific,1,148,2024-03-01T20:20:06+00:00,1.8479008674622,4,Stim_B.csv,Global.csv,Global,B,sandals,,B5,,,90,Study,User,1.25,,Bread,B5,1441,,,-1,-1,,,,,1
60282d2ffedb021342e2df15,7vwphuyu61,Ex2A_Prolific,1,149,2024-03-01T20:20:08+00:00,1.7512381076813,4,Stim_B.csv,Global.csv,Global,B,sock,,B6,,,91,Study,User,1.25,,Bread,B6,1368,,,-1,-1,,,,,1
60282d2ffedb021342e2df15,7vwphuyu61,Ex2A_Prolific,1,150,2024-03-01T20:20:09+00:00,1.7419459819794,4,Stim_B.csv,Global.csv,Global,B,hand,,B7,,,92,Study,User,1.25,,Bread,B7,1332,,,-1,-1,,,,,1
60282d2ffedb021342e2df15,7vwphuyu61,Ex2A_Prolific,1,151,2024-03-01T20:20:11+00:00,1.757285118103,4,Stim_B.csv,Global.csv,Global,B,boot,,B8,,,93,Study,User,1.25,,Bread,B8,1375,,,-1,-1,,,,,1
60282d2ffedb021342e2df15,7vwphuyu61,Ex2A_Prolific,1,152,2024-03-01T20:20:13+00:00,1.8185927867889,4,Stim_B.csv,Global.csv,Global,B,yard,,B9,,,94,Study,User,1.25,,Bread,B9,1417,,,-1,-1,,,,,1
60282d2ffedb021342e2df15,7vwphuyu61,Ex2A_Prolific,1,153,2024-03-01T20:20:15+00:00,1.8243730068207,4,Stim_B.csv,Global.csv,Global,B,kick,,B10,,,95,Study,User,1.25,,Bread,B10,1416,,,-1,-1,,,,,1
60282d2ffedb021342e2df15,7vwphuyu61,Ex2A_Prolific,1,154,2024-03-01T20:20:17+00:00,1.7706320285797,4,Stim_B.csv,Global.csv,Global,B,knee,,B11,,,96,Study,User,1.25,,Bread,B11,1375,,,-1,-1,,,,,1
60282d2ffedb021342e2df15,7vwphuyu61,Ex2A_Prolific,1,155,2024-03-01T20:20:18+00:00,1.6425440311432,4,Stim_B.csv,Global.csv,Global,B,walk,,B12,,,97,Study,User,1.25,,Bread,B12,1258,,,-1,-1,,,,,1
60282d2ffedb021342e2df15,7vwphuyu61,Ex2A_Prolific,1,156,2024-03-01T20:20:25+00:00,6.4187481403351,4,Stim_B.csv,Global.csv,Global,B,,,,,,0,Instruct,User,-,"You have completed this section and will now be asked to judge your ability to remember the list items you just studied. You will have four seconds to type your rating. Please click next to continue.",,Next_List1,6036,,,-1,-1,,,,,1
60282d2ffedb021342e2df15,7vwphuyu61,Ex2A_Prolific,1,157,2024-03-01T20:20:30+00:00,5.3760688304901,4,Stim_B.csv,Global.csv,Global,B,,,,,,0,JOL_GLOBAL,5,5,"How likely are you to correctly recall each of the items you just studied?|Type your response on a scale from 0-100 and then press Enter (0 = WILL NOT REMEMBER; 100 = DEFINITELY WILL REMEMBER).",Related,JOL8,5001,,,1967,2513,,,,100,1
60282d2ffedb021342e2df15,7vwphuyu61,Ex2A_Prolific,1,158,2024-03-01T20:20:35+00:00,5.1333529949188,4,Stim_B.csv,Global.csv,Global,B,,,,,,0,Instruct,User,4,"You have completed this section. Please click next.",,Instruct166,4759,,,-1,-1,,,,,1
60282d2ffedb021342e2df15,7vwphuyu61,Ex2A_Prolific,1,159,2024-03-01T20:21:06+00:00,30.384631156921,4,Stim_B.csv,Global.csv,Global,B,,,,,,0,FreeRecall,30,30,"Please type as many words as you can that begin with the letter ""M"". The computer will automatically advance to the next screen in 30 seconds.",,FILLER,30003,"mum mam man mom mumma mummy mama mice mig ",0,1919,29995,0,0,,,1
60282d2ffedb021342e2df15,7vwphuyu61,Ex2A_Prolific,1,160,2024-03-01T20:21:11+00:00,5.1125988960266,4,Stim_B.csv,Global.csv,Global,B,,,,,,0,Instruct,User,4,"You have completed this section. Please click next.",,Instruct166,4624,,,-1,-1,,,,,1
60282d2ffedb021342e2df15,7vwphuyu61,Ex2A_Prolific,1,161,2024-03-01T20:21:16+00:00,5.137510061264,4,Stim_B.csv,Global.csv,Global,B,,,,,,0,Instruct,User,4,"You will now complete a memory test for the words you just studied. Please type as many words from the previous list as you can seperated by a comma. Spelling will not count against you and you can recall the words in any order. This test will be timed for one minute, and the computer will automatically advance once time is up. Click next when you are ready to begin.",,Instruct1666,4729,,,-1,-1,,,,,1
60282d2ffedb021342e2df15,7vwphuyu61,Ex2A_Prolific,1,162,2024-03-01T20:22:17+00:00,61.407863855362,4,Stim_B.csv,Global.csv,Global,B,,,,,,0,FreeRecall,60,60,"Please type as many words as you can from the previous study list in any order. Please separate each word with a comma. Spelling will not count against you. This screen will automatically advance in one minute.",,RECALL_Test,60900,"toe, inch, ankle, shoe, sandals, sock, hand, boot, yard, kick, knee, walk",0,765,50235,0,0,,,0.997
60282d2ffedb021342e2df15,7vwphuyu61,Ex2A_Prolific,1,163,2024-03-01T20:22:23+00:00,5.6153061389923,4,Stim_B.csv,Global.csv,Global,B,,,,,,0,Instruct,User,3,"You will now be presented with a new study list. Click next when you are ready to begin.",,NEXT_LIST,5026,,,-1,-1,,,,,0.958
60282d2ffedb021342e2df15,7vwphuyu61,Ex2A_Prolific,1,164,2024-03-01T20:22:25+00:00,2.3729479312897,4,Stim_B.csv,Global.csv,Global,B,boy,,F1,,,98,Study,User,1.25,,Flag,F1,1700,,,-1,-1,,,,,1
60282d2ffedb021342e2df15,7vwphuyu61,Ex2A_Prolific,1,165,2024-03-01T20:22:27+00:00,2.165598154068,4,Stim_B.csv,Global.csv,Global,B,dolls,,F2,,,99,Study,User,1.25,,Flag,F2,1640,,,-1,-1,,,,,1
60282d2ffedb021342e2df15,7vwphuyu61,Ex2A_Prolific,1,166,2024-03-01T20:22:30+00:00,2.1285419464111,4,Stim_B.csv,Global.csv,Global,B,pretty,,F3,,,100,Study,User,1.25,,Flag,F3,1750,,,-1,-1,,,,,1
60282d2ffedb021342e2df15,7vwphuyu61,Ex2A_Prolific,1,167,2024-03-01T20:22:32+00:00,2.1193020343781,4,Stim_B.csv,Global.csv,Global,B,female,,F4,,,101,Study,User,1.25,,Flag,F4,1707,,,-1,-1,,,,,1
60282d2ffedb021342e2df15,7vwphuyu61,Ex2A_Prolific,1,168,2024-03-01T20:22:34+00:00,2.2350678443909,4,Stim_B.csv,Global.csv,Global,B,dress,,F5,,,102,Study,User,1.25,,Flag,F5,1853,,,-1,-1,,,,,1
60282d2ffedb021342e2df15,7vwphuyu61,Ex2A_Prolific,1,169,2024-03-01T20:22:36+00:00,1.9906010627747,4,Stim_B.csv,Global.csv,Global,B,date,,F6,,,103,Study,User,1.25,,Flag,F6,1582,,,-1,-1,,,,,1
60282d2ffedb021342e2df15,7vwphuyu61,Ex2A_Prolific,1,170,2024-03-01T20:22:38+00:00,1.8856198787689,4,Stim_B.csv,Global.csv,Global,B,beautiful,,F7,,,104,Study,User,1.25,,Flag,F7,1496,,,-1,-1,,,,,1
60282d2ffedb021342e2df15,7vwphuyu61,Ex2A_Prolific,1,171,2024-03-01T20:22:41+00:00,2.9092960357666,4,Stim_B.csv,Global.csv,Global,B,daughter,,F8,,,105,Study,User,1.25,,Flag,F8,2460,,,-1,-1,,,,,1
60282d2ffedb021342e2df15,7vwphuyu61,Ex2A_Prolific,1,172,2024-03-01T20:22:43+00:00,2.1276681423187,4,Stim_B.csv,Global.csv,Global,B,sister,,F9,,,106,Study,User,1.25,,Flag,F9,1730,,,-1,-1,,,,,1
60282d2ffedb021342e2df15,7vwphuyu61,Ex2A_Prolific,1,173,2024-03-01T20:22:45+00:00,2.4459669589996,4,Stim_B.csv,Global.csv,Global,B,cute,,F10,,,107,Study,User,1.25,,Flag,F10,2024,,,-1,-1,,,,,1
60282d2ffedb021342e2df15,7vwphuyu61,Ex2A_Prolific,1,174,2024-03-01T20:22:47+00:00,1.9829330444336,4,Stim_B.csv,Global.csv,Global,B,niece,,F11,,,108,Study,User,1.25,,Flag,F11,1597,,,-1,-1,,,,,1
60282d2ffedb021342e2df15,7vwphuyu61,Ex2A_Prolific,1,175,2024-03-01T20:22:51+00:00,3.3997299671173,4,Stim_B.csv,Global.csv,Global,B,young,,F12,,,109,Study,User,1.25,,Flag,F12,2950,,,-1,-1,,,,,1
60282d2ffedb021342e2df15,7vwphuyu61,Ex2A_Prolific,1,176,2024-03-01T20:23:17+00:00,26.081429004669,4,Stim_B.csv,Global.csv,Global,B,,,,,,0,Instruct,User,-,"You have completed this section and will now be asked to judge your ability to remember the list items you just studied. You will have four seconds to type your rating. Please click next to continue.",,Next_List1,25703,,,-1,-1,,,,,1
60282d2ffedb021342e2df15,7vwphuyu61,Ex2A_Prolific,1,177,2024-03-01T20:23:22+00:00,5.4368288516998,4,Stim_B.csv,Global.csv,Global,B,,,,,,0,JOL_GLOBAL,5,5,"How likely are you to correctly recall each of the items you just studied?|Type your response on a scale from 0-100 and then press Enter (0 = WILL NOT REMEMBER; 100 = DEFINITELY WILL REMEMBER).",Related,JOL9,5001,,,1909,2517,,,,100,1
60282d2ffedb021342e2df15,7vwphuyu61,Ex2A_Prolific,1,178,2024-03-01T20:23:27+00:00,4.978049993515,4,Stim_B.csv,Global.csv,Global,B,,,,,,0,Instruct,User,4,"You have completed this section. Please click next.",,Instruct166,4586,,,-1,-1,,,,,1
60282d2ffedb021342e2df15,7vwphuyu61,Ex2A_Prolific,1,179,2024-03-01T20:23:58+00:00,30.420381069183,4,Stim_B.csv,Global.csv,Global,B,,,,,,0,FreeRecall,30,30,"Please type as many words as you can that begin with the letter ""M"". The computer will automatically advance to the next screen in 30 seconds.",,FILLER,30002,"mum man midnight murder might mite mice mind mike mend made ",0,1356,28240,0,0,,,1
60282d2ffedb021342e2df15,7vwphuyu61,Ex2A_Prolific,1,180,2024-03-01T20:24:04+00:00,6.2215261459351,4,Stim_B.csv,Global.csv,Global,B,,,,,,0,Instruct,User,-,"You have completed this section. Please click next.",,Instruct166,5806,,,-1,-1,,,,,1
60282d2ffedb021342e2df15,7vwphuyu61,Ex2A_Prolific,1,181,2024-03-01T20:24:12+00:00,8.1336958408356,4,Stim_B.csv,Global.csv,Global,B,,,,,,0,Instruct,User,4,"You will now complete a memory test for the words you just studied. Please type as many words from the previous list as you can seperated by a comma. Spelling will not count against you and you can recall the words in any order. This test will be timed for one minute, and the computer will automatically advance once time is up. Click next when you are ready to begin.",,Instruct1666,7668,,,-1,-1,,,,,1
60282d2ffedb021342e2df15,7vwphuyu61,Ex2A_Prolific,1,182,2024-03-01T20:25:01+00:00,49.319830179214,4,Stim_B.csv,Global.csv,Global,B,,,,,,0,FreeRecall,60,1.25,"Please type as many words as you can from the previous study list in any order. Please separate each word with a comma. Spelling will not count against you. This screen will automatically advance in one minute.",,RECALL_Test,48946,"boy, dolls, pretty, female, dress, date, beautiful, daughter, sister, cute, niece, young, ",0,1053,41308,0,0,,,1
60282d2ffedb021342e2df15,7vwphuyu61,Ex2A_Prolific,1,183,2024-03-01T20:25:05+00:00,4.1651458740234,4,Stim_B.csv,Global.csv,Global,B,,,,,,0,Instruct,User,1.25,"You will now be presented with a new study list. Click next when you are ready to begin.",,NEXT_LIST,3695,,,-1,-1,,,,,1
60282d2ffedb021342e2df15,7vwphuyu61,Ex2A_Prolific,1,184,2024-03-01T20:25:08+00:00,2.2683761119843,4,Stim_B.csv,Global.csv,Global,B,white,,SS1,,,110,Study,User,1.25,,Shirt,SS1,1761,,,-1,-1,,,,,1
60282d2ffedb021342e2df15,7vwphuyu61,Ex2A_Prolific,1,185,2024-03-01T20:25:10+00:00,2.2767868041992,4,Stim_B.csv,Global.csv,Global,B,gray,,SS2,,,111,Study,User,1.25,,Shirt,SS2,1840,,,-1,-1,,,,,1
60282d2ffedb021342e2df15,7vwphuyu61,Ex2A_Prolific,1,186,2024-03-01T20:25:12+00:00,1.8648800849915,4,Stim_B.csv,Global.csv,Global,B,brown,,SS3,,,112,Study,User,1.25,,Shirt,SS3,1464,,,-1,-1,,,,,1
60282d2ffedb021342e2df15,7vwphuyu61,Ex2A_Prolific,1,187,2024-03-01T20:25:14+00:00,1.7541279792786,4,Stim_B.csv,Global.csv,Global,B,coal,,SS4,,,113,Study,User,1.25,,Shirt,SS4,1344,,,-1,-1,,,,,1
60282d2ffedb021342e2df15,7vwphuyu61,Ex2A_Prolific,1,188,2024-03-01T20:25:15+00:00,1.8746750354767,4,Stim_B.csv,Global.csv,Global,B,dark,,SS5,,,114,Study,User,1.25,,Shirt,SS5,1478,,,-1,-1,,,,,1
60282d2ffedb021342e2df15,7vwphuyu61,Ex2A_Prolific,1,189,2024-03-01T20:25:18+00:00,2.1750199794769,4,Stim_B.csv,Global.csv,Global,B,color,,SS6,,,115,Study,User,1.25,,Shirt,SS6,1760,,,-1,-1,,,,,1
60282d2ffedb021342e2df15,7vwphuyu61,Ex2A_Prolific,1,190,2024-03-01T20:25:20+00:00,2.2587220668793,4,Stim_B.csv,Global.csv,Global,B,funeral,,SS7,,,116,Study,User,1.25,,Shirt,SS7,1865,,,-1,-1,,,,,1
60282d2ffedb021342e2df15,7vwphuyu61,Ex2A_Prolific,1,191,2024-03-01T20:25:22+00:00,1.8375380039215,4,Stim_B.csv,Global.csv,Global,B,blue,,SS8,,,117,Study,User,1.25,,Shirt,SS8,1438,,,-1,-1,,,,,1
60282d2ffedb021342e2df15,7vwphuyu61,Ex2A_Prolific,1,192,2024-03-01T20:25:26+00:00,4.4946579933167,4,Stim_B.csv,Global.csv,Global,B,charred,,SS9,,,118,Study,User,1.25,,Shirt,SS9,4064,,,-1,-1,,,,,1
60282d2ffedb021342e2df15,7vwphuyu61,Ex2A_Prolific,1,193,2024-03-01T20:25:28+00:00,2.2809209823608,4,Stim_B.csv,Global.csv,Global,B,ink,,SS10,,,119,Study,User,1.25,,Shirt,SS10,1895,,,-1,-1,,,,,1
60282d2ffedb021342e2df15,7vwphuyu61,Ex2A_Prolific,1,194,2024-03-01T20:25:30+00:00,1.6987359523773,4,Stim_B.csv,Global.csv,Global,B,death,,SS11,,,120,Study,User,1.25,,Shirt,SS11,1267,,,-1,-1,,,,,1
60282d2ffedb021342e2df15,7vwphuyu61,Ex2A_Prolific,1,195,2024-03-01T20:25:33+00:00,2.9566810131073,4,Stim_B.csv,Global.csv,Global,B,cat,,SS12,,,121,Study,User,1.25,,Shirt,SS12,2537,,,-1,-1,,,,,1
60282d2ffedb021342e2df15,7vwphuyu61,Ex2A_Prolific,1,196,2024-03-01T20:25:43+00:00,9.5486660003662,4,Stim_B.csv,Global.csv,Global,B,,,,,,0,Instruct,User,-,"You have completed this section and will now be asked to judge your ability to remember the list items you just studied. You will have four seconds to type your rating. Please click next to continue.",,Next_List1,9150,,,-1,-1,,,,,1
60282d2ffedb021342e2df15,7vwphuyu61,Ex2A_Prolific,1,197,2024-03-01T20:25:48+00:00,5.4467179775238,4,Stim_B.csv,Global.csv,Global,B,,,,,,0,JOL_GLOBAL,5,5,"How likely are you to correctly recall each of the items you just studied?|Type your response on a scale from 0-100 and then press Enter (0 = WILL NOT REMEMBER; 100 = DEFINITELY WILL REMEMBER).",Related,JOL10,5001,,,1663,2268,,,,100,1
60282d2ffedb021342e2df15,7vwphuyu61,Ex2A_Prolific,1,198,2024-03-01T20:25:50+00:00,1.9964349269867,4,Stim_B.csv,Global.csv,Global,B,,,,,,0,Instruct,User,-,"You have completed this section. Please click next.",,Instruct166,1581,,,-1,-1,,,,,1
60282d2ffedb021342e2df15,7vwphuyu61,Ex2A_Prolific,1,199,2024-03-01T20:26:21+00:00,30.435576200485,4,Stim_B.csv,Global.csv,Global,B,,,,,,0,FreeRecall,30,30,"Please type as many words as you can that begin with the letter ""R"". The computer will automatically advance to the next screen in 30 seconds.",,FILLER,30001,"right red ride rear rite rind rid rum rid ",0,1257,26119,0,0,,,1
60282d2ffedb021342e2df15,7vwphuyu61,Ex2A_Prolific,1,200,2024-03-01T20:26:25+00:00,4.5345478057861,4,Stim_B.csv,Global.csv,Global,B,,,,,,0,Instruct,User,4,"You have completed this section. Please click next.",,Instruct166,4118,,,-1,-1,,,,,1
60282d2ffedb021342e2df15,7vwphuyu61,Ex2A_Prolific,1,201,2024-03-01T20:26:30+00:00,5.1562809944153,4,Stim_B.csv,Global.csv,Global,B,,,,,,0,Instruct,User,4,"You will now complete a memory test for the words you just studied. Please type as many words from the previous list as you can seperated by a comma. Spelling will not count against you and you can recall the words in any order. This test will be timed for one minute, and the computer will automatically advance once time is up. Click next when you are ready to begin.",,Instruct1666,4727,,,-1,-1,,,,,1
60282d2ffedb021342e2df15,7vwphuyu61,Ex2A_Prolific,1,202,2024-03-01T20:27:31+00:00,60.37960600853,4,Stim_B.csv,Global.csv,Global,B,,,,,,0,FreeRecall,60,60,"Please type as many words as you can from the previous study list in any order. Please separate each word with a comma. Spelling will not count against you. This screen will automatically advance in one minute.",,RECALL_Test,60003,"white, gray, brown, coal, dark, color, funeral, blue, charred, ink, death, cat, ",0,1258,37475,0,0,,,1
60282d2ffedb021342e2df15,7vwphuyu61,Ex2A_Prolific,1,203,2024-03-01T20:27:34+00:00,2.9729959964752,4,Stim_B.csv,Global.csv,Global,B,,,,,,0,Instruct,User,-,"You have completed this section. Please click next.",,Instruct7,2505,,,-1,-1,,,,,1
60282d2ffedb021342e2df15,7vwphuyu61,Ex2A_Prolific,1,204,2024-03-01T20:27:37+00:00,3.0569431781769,4,Stim_B.csv,Global.csv,Global,B,,,,,,0,Instruct,User,-,"The following screen will ask you a few questions abour your experience today. You must complete these questions to receive credit.",,Instruct8,2665,,,-1,-1,,,,,1
