Username,ID,ExperimentName,Session,Trial,Date,TimeDif,"Condition Number","Stimuli File","Order File","Condition Description","Condition Notes",Stimuli*Cue,Stimuli*Answer,Stimuli*Shuffle,"Stimuli*Stimuli Notes",Stimuli*Value,Procedure*Item,"Procedure*Trial Type","Procedure*Max Time","Procedure*Min Time",Procedure*Text,"Procedure*Procedure Notes",Procedure*Shuffle,Response*RT,Response*Response,Response*Accuracy,Response*RTfirst,Response*RTlast,Response*strictAcc,Response*lenientAcc,Response*focus,Response*JOL,Response*Focus
6509ced499369f98b2c27874,jn3qjpiyvp,Ex2A_Prolific,1,1,2024-02-27T23:28:24+00:00,8.7129261493683,3,Stim_A.csv,Global.csv,Global,A,,,,,,0,Instruct,-,5,"In this section, you will be presented with a series of words. Please study each word carefully. Your memory will be tested!",Initial_Instruct,Instruct1,8447,,,-1,-1,,,,,1
6509ced499369f98b2c27874,jn3qjpiyvp,Ex2A_Prolific,1,2,2024-02-27T23:28:44+00:00,19.822788000107,3,Stim_A.csv,Global.csv,Global,A,,,,,,0,Instruct,User,5,"After studying each LIST of words, you will be asked to rate your ability to remember ALL of the words in the list on a later test. You will make these ratings using a scale of 0 to 100. A rating of 0 = WILL NOT REMEMBER, while a rating of 100 = WILL DEFINITELY REMEMBER. Please try to be as accurate as possible with these ratings!",,BLIPBLOOP,19358,,,-1,-1,,,,,1
6509ced499369f98b2c27874,jn3qjpiyvp,Ex2A_Prolific,1,3,2024-02-27T23:28:46+00:00,2.8151249885559,3,Stim_A.csv,Global.csv,Global,A,,,,,,0,Instruct,User,1.25,"You will now begin the study. Click next when you are ready to begin.",,Instruct16,2416,,,-1,-1,,,,,1
6509ced499369f98b2c27874,jn3qjpiyvp,Ex2A_Prolific,1,4,2024-02-27T23:28:52+00:00,5.6520340442657,3,Stim_A.csv,Global.csv,Global,A,pane,,Win_1,,,2,Study,User,1.25,,Window,Win_1,5252,,,-1,-1,,,,,1
6509ced499369f98b2c27874,jn3qjpiyvp,Ex2A_Prolific,1,5,2024-02-27T23:28:58+00:00,5.5441069602966,3,Stim_A.csv,Global.csv,Global,A,sill,,Win_2,,,3,Study,User,1.25,,Window,Win_2,5062,,,-1,-1,,,,,1
6509ced499369f98b2c27874,jn3qjpiyvp,Ex2A_Prolific,1,6,2024-02-27T23:29:03+00:00,5.1853098869324,3,Stim_A.csv,Global.csv,Global,A,shutter,,Win_3,,,4,Study,User,1.25,,Window,Win_3,4661,,,-1,-1,,,,,1
6509ced499369f98b2c27874,jn3qjpiyvp,Ex2A_Prolific,1,7,2024-02-27T23:29:08+00:00,4.8337781429291,3,Stim_A.csv,Global.csv,Global,A,curtain,,Win_4,,,5,Study,User,1.25,,Window,Win_4,4385,,,-1,-1,,,,,1
6509ced499369f98b2c27874,jn3qjpiyvp,Ex2A_Prolific,1,8,2024-02-27T23:29:12+00:00,3.9831109046936,3,Stim_A.csv,Global.csv,Global,A,door,,Win_5,,,6,Study,User,1.25,,Window,Win_5,3601,,,-1,-1,,,,,1
6509ced499369f98b2c27874,jn3qjpiyvp,Ex2A_Prolific,1,9,2024-02-27T23:29:17+00:00,5.1480181217194,3,Stim_A.csv,Global.csv,Global,A,ledge,,Win_6,,,7,Study,User,1.25,,Window,Win_6,4697,,,-1,-1,,,,,1
6509ced499369f98b2c27874,jn3qjpiyvp,Ex2A_Prolific,1,10,2024-02-27T23:29:21+00:00,3.7530908584595,3,Stim_A.csv,Global.csv,Global,A,glass,,Win_7,,,8,Study,User,1.25,,Window,Win_7,3301,,,-1,-1,,,,,1
6509ced499369f98b2c27874,jn3qjpiyvp,Ex2A_Prolific,1,11,2024-02-27T23:29:24+00:00,3.5253541469574,3,Stim_A.csv,Global.csv,Global,A,view,,Win_8,,,9,Study,User,1.25,,Window,Win_8,3071,,,-1,-1,,,,,1
6509ced499369f98b2c27874,jn3qjpiyvp,Ex2A_Prolific,1,12,2024-02-27T23:29:28+00:00,4.0136289596558,3,Stim_A.csv,Global.csv,Global,A,screen,,Win_9,,,10,Study,User,1.25,,Window,Win_9,3510,,,-1,-1,,,,,1
6509ced499369f98b2c27874,jn3qjpiyvp,Ex2A_Prolific,1,13,2024-02-27T23:29:34+00:00,6.3946149349213,3,Stim_A.csv,Global.csv,Global,A,shade,,Win_10,,,11,Study,User,1.25,,Window,Win_10,5904,,,-1,-1,,,,,1
6509ced499369f98b2c27874,jn3qjpiyvp,Ex2A_Prolific,1,14,2024-02-27T23:29:38+00:00,3.5320320129395,3,Stim_A.csv,Global.csv,Global,A,open,,Win_11,,,12,Study,User,1.25,,Window,Win_11,3085,,,-1,-1,,,,,1
6509ced499369f98b2c27874,jn3qjpiyvp,Ex2A_Prolific,1,15,2024-02-27T23:29:42+00:00,3.9511139392853,3,Stim_A.csv,Global.csv,Global,A,frame,,Win_12,,,13,Study,User,1.25,,Window,Win_12,3453,,,-1,-1,,,,,1
6509ced499369f98b2c27874,jn3qjpiyvp,Ex2A_Prolific,1,16,2024-02-27T23:30:07+00:00,25.416181087494,3,Stim_A.csv,Global.csv,Global,A,,,,,,0,Instruct,User,-,"You have completed this section and will now be asked to judge your ability to remember the list items you just studied. You will have four seconds to type your rating. Please click next to continue.",,Next_List1,24967,,,-1,-1,,,,,1
6509ced499369f98b2c27874,jn3qjpiyvp,Ex2A_Prolific,1,17,2024-02-27T23:30:13+00:00,5.5335030555725,3,Stim_A.csv,Global.csv,Global,A,,,,,,0,JOL_GLOBAL,5,5,"How likely are you to correctly recall each of the items you just studied?|Type your response on a scale from 0-100 and then press Enter (0 = WILL NOT REMEMBER; 100 = DEFINITELY WILL REMEMBER).",Related,JOL1,5003,,,-1,-1,,,,,1
6509ced499369f98b2c27874,jn3qjpiyvp,Ex2A_Prolific,1,18,2024-02-27T23:30:19+00:00,5.7937359809875,3,Stim_A.csv,Global.csv,Global,A,,,,,,0,Instruct,User,-,"You have completed this section. Please click next.",,Instruct166,5266,,,-1,-1,,,,,1
6509ced499369f98b2c27874,jn3qjpiyvp,Ex2A_Prolific,1,19,2024-02-27T23:30:49+00:00,30.46683382988,3,Stim_A.csv,Global.csv,Global,A,,,,,,0,FreeRecall,30,30,"Please type as many words as you can that begin with the letter ""C"". The computer will automatically advance to the next screen in 30 seconds.",,FILLER,30001,"consider cut con computer cloud can cat cap car court compe",0,6966,29904,0,0,,,1
6509ced499369f98b2c27874,jn3qjpiyvp,Ex2A_Prolific,1,20,2024-02-27T23:30:52+00:00,2.5557401180267,3,Stim_A.csv,Global.csv,Global,A,,,,,,0,Instruct,User,-,"You have completed this section. Please click next.",,Instruct166,2055,,,-1,-1,,,,,1
6509ced499369f98b2c27874,jn3qjpiyvp,Ex2A_Prolific,1,21,2024-02-27T23:31:10+00:00,18.26395201683,3,Stim_A.csv,Global.csv,Global,A,,,,,,0,Instruct,User,4,"You will now complete a memory test for the words you just studied. Please type as many words from the previous list as you can seperated by a comma. Spelling will not count against you and you can recall the words in any order. This test will be timed for one minute, and the computer will automatically advance once time is up. Click next when you are ready to begin.",,Instruct1666,17753,,,-1,-1,,,,,1
6509ced499369f98b2c27874,jn3qjpiyvp,Ex2A_Prolific,1,22,2024-02-27T23:32:10+00:00,60.4375,3,Stim_A.csv,Global.csv,Global,A,,,,,,0,FreeRecall,60,60,"Please type as many words as you can from the previous study list in any order. Please separate each word with a comma. Spelling will not count against you. This screen will automatically advance in one minute.",,RECALL_Test,60004,"pane, sill, ledge, screen, view, curtain, door, open, frame, glass, shade,",0,640,44205,0,0,,,1
6509ced499369f98b2c27874,jn3qjpiyvp,Ex2A_Prolific,1,23,2024-02-27T23:32:19+00:00,9.096442937851,3,Stim_A.csv,Global.csv,Global,A,,,,,,0,Instruct,User,3,"You will now be presented with a new study list. Click next when you are ready to begin.",,NEXT_LIST,8670,,,-1,-1,,,,,1
6509ced499369f98b2c27874,jn3qjpiyvp,Ex2A_Prolific,1,24,2024-02-27T23:32:25+00:00,5.375461101532,3,Stim_A.csv,Global.csv,Global,A,sandpaper,,R1,,,14,Study,User,1.25,,Rough,R1,4893,,,-1,-1,,,,,1
6509ced499369f98b2c27874,jn3qjpiyvp,Ex2A_Prolific,1,25,2024-02-27T23:32:29+00:00,4.0173239707947,3,Stim_A.csv,Global.csv,Global,A,smooth,,R2,,,15,Study,User,1.25,,Rough,R2,3504,,,-1,-1,,,,,1
6509ced499369f98b2c27874,jn3qjpiyvp,Ex2A_Prolific,1,26,2024-02-27T23:32:33+00:00,3.9657249450684,3,Stim_A.csv,Global.csv,Global,A,coarse,,R3,,,16,Study,User,1.25,,Rough,R3,3462,,,-1,-1,,,,,1
6509ced499369f98b2c27874,jn3qjpiyvp,Ex2A_Prolific,1,27,2024-02-27T23:32:37+00:00,3.8059899806976,3,Stim_A.csv,Global.csv,Global,A,tough,,R4,,,17,Study,User,1.25,,Rough,R4,3274,,,-1,-1,,,,,1
6509ced499369f98b2c27874,jn3qjpiyvp,Ex2A_Prolific,1,28,2024-02-27T23:32:41+00:00,4.227254152298,3,Stim_A.csv,Global.csv,Global,A,rugged,,R5,,,18,Study,User,1.25,,Rough,R5,3702,,,-1,-1,,,,,1
6509ced499369f98b2c27874,jn3qjpiyvp,Ex2A_Prolific,1,29,2024-02-27T23:32:46+00:00,5.1104428768158,3,Stim_A.csv,Global.csv,Global,A,bumpy,,R6,,,19,Study,User,1.25,,Rough,R6,4632,,,-1,-1,,,,,1
6509ced499369f98b2c27874,jn3qjpiyvp,Ex2A_Prolific,1,30,2024-02-27T23:32:51+00:00,4.5748589038849,3,Stim_A.csv,Global.csv,Global,A,jagged,,R7,,,20,Study,User,1.25,,Rough,R7,4064,,,-1,-1,,,,,1
6509ced499369f98b2c27874,jn3qjpiyvp,Ex2A_Prolific,1,31,2024-02-27T23:32:57+00:00,6.3604881763458,3,Stim_A.csv,Global.csv,Global,A,riders,,R8,,,21,Study,User,1.25,,Rough,R8,5832,,,-1,-1,,,,,1
6509ced499369f98b2c27874,jn3qjpiyvp,Ex2A_Prolific,1,32,2024-02-27T23:33:01+00:00,4.503720998764,3,Stim_A.csv,Global.csv,Global,A,uneven,,R9,,,22,Study,User,1.25,,Rough,R9,3981,,,-1,-1,,,,,1
6509ced499369f98b2c27874,jn3qjpiyvp,Ex2A_Prolific,1,33,2024-02-27T23:33:09+00:00,7.4055378437042,3,Stim_A.csv,Global.csv,Global,A,road,,R10,,,23,Study,User,1.25,,Rough,R10,6887,,,-1,-1,,,,,1
6509ced499369f98b2c27874,jn3qjpiyvp,Ex2A_Prolific,1,34,2024-02-27T23:33:13+00:00,4.4457581043243,3,Stim_A.csv,Global.csv,Global,A,ready,,R11,,,24,Study,User,1.25,,Rough,R11,3966,,,-1,-1,,,,,1
6509ced499369f98b2c27874,jn3qjpiyvp,Ex2A_Prolific,1,35,2024-02-27T23:33:20+00:00,6.5223019123077,3,Stim_A.csv,Global.csv,Global,A,sand,,R12,,,25,Study,User,1.25,,Rough,R12,6089,,,-1,-1,,,,,1
6509ced499369f98b2c27874,jn3qjpiyvp,Ex2A_Prolific,1,36,2024-02-27T23:33:26+00:00,5.9219291210175,3,Stim_A.csv,Global.csv,Global,A,,,,,,0,Instruct,User,1.25,"You have completed this section and will now be asked to judge your ability to remember the list items you just studied. You will have four seconds to type your rating. Please click next to continue.",,Next_List1,5439,,,-1,-1,,,,,1
6509ced499369f98b2c27874,jn3qjpiyvp,Ex2A_Prolific,1,37,2024-02-27T23:33:31+00:00,5.4981739521027,3,Stim_A.csv,Global.csv,Global,A,,,,,,0,JOL_GLOBAL,5,5,"How likely are you to correctly recall each of the items you just studied?|Type your response on a scale from 0-100 and then press Enter (0 = WILL NOT REMEMBER; 100 = DEFINITELY WILL REMEMBER).",Unrelated,JOL2,5006,,,1158,1208,,,,50,1
6509ced499369f98b2c27874,jn3qjpiyvp,Ex2A_Prolific,1,38,2024-02-27T23:33:36+00:00,4.5744299888611,3,Stim_A.csv,Global.csv,Global,A,,,,,,0,Instruct,User,-,"You have completed this section. Please click next.",,Instruct166,4054,,,-1,-1,,,,,1
6509ced499369f98b2c27874,jn3qjpiyvp,Ex2A_Prolific,1,39,2024-02-27T23:34:06+00:00,30.462023019791,3,Stim_A.csv,Global.csv,Global,A,,,,,,0,FreeRecall,30,30,"Please type as many words as you can that begin with the letter ""S"". The computer will automatically advance to the next screen in 30 seconds.",,FILLER,30001,"show shut shot snap snack snot snow sound son sat same sane sand sandpap",0,2837,29828,0,0,,,1
6509ced499369f98b2c27874,jn3qjpiyvp,Ex2A_Prolific,1,40,2024-02-27T23:34:11+00:00,5.2098400592804,3,Stim_A.csv,Global.csv,Global,A,,,,,,0,Instruct,User,4,"You have completed this section. Please click next.",,Instruct166,4689,,,-1,-1,,,,,1
6509ced499369f98b2c27874,jn3qjpiyvp,Ex2A_Prolific,1,41,2024-02-27T23:34:21+00:00,9.7560720443726,3,Stim_A.csv,Global.csv,Global,A,,,,,,0,Instruct,User,4,"You will now complete a memory test for the words you just studied. Please type as many words from the previous list as you can seperated by a comma. Spelling will not count against you and you can recall the words in any order. This test will be timed for one minute, and the computer will automatically advance once time is up. Click next when you are ready to begin.",,Instruct1666,9237,,,-1,-1,,,,,1
6509ced499369f98b2c27874,jn3qjpiyvp,Ex2A_Prolific,1,42,2024-02-27T23:35:22+00:00,60.501388788223,3,Stim_A.csv,Global.csv,Global,A,,,,,,0,FreeRecall,60,60,"Please type as many words as you can from the previous study list in any order. Please separate each word with a comma. Spelling will not count against you. This screen will automatically advance in one minute.",,RECALL_Test,60005,"sandpaper, sand, rugged, road, coarse, tough, smooth, uneven, riders, bumpy, ",0,329,58912,0,0,,,1
6509ced499369f98b2c27874,jn3qjpiyvp,Ex2A_Prolific,1,43,2024-02-27T23:35:28+00:00,6.6614120006561,3,Stim_A.csv,Global.csv,Global,A,,,,,,0,Instruct,User,3,"You will now be presented with a new study list. Click next when you are ready to begin.",,NEXT_LIST,6153,,,-1,-1,,,,,1
6509ced499369f98b2c27874,jn3qjpiyvp,Ex2A_Prolific,1,44,2024-02-27T23:35:33+00:00,4.405914068222,3,Stim_A.csv,Global.csv,Global,A,rage,,A1,,,26,Study,User,1.25,,Anger,A1,4016,,,-1,-1,,,,,1
6509ced499369f98b2c27874,jn3qjpiyvp,Ex2A_Prolific,1,45,2024-02-27T23:35:36+00:00,3.6313891410828,3,Stim_A.csv,Global.csv,Global,A,mad,,A2,,,27,Study,User,1.25,,Anger,A2,3218,,,-1,-1,,,,,1
6509ced499369f98b2c27874,jn3qjpiyvp,Ex2A_Prolific,1,46,2024-02-27T23:35:41+00:00,4.077910900116,3,Stim_A.csv,Global.csv,Global,A,enrage,,A3,,,28,Study,User,1.25,,Anger,A3,3620,,,-1,-1,,,,,1
6509ced499369f98b2c27874,jn3qjpiyvp,Ex2A_Prolific,1,47,2024-02-27T23:35:45+00:00,4.4482300281525,3,Stim_A.csv,Global.csv,Global,A,fury,,A4,,,29,Study,User,1.25,,Anger,A4,3971,,,-1,-1,,,,,1
6509ced499369f98b2c27874,jn3qjpiyvp,Ex2A_Prolific,1,48,2024-02-27T23:35:53+00:00,8.080286026001,3,Stim_A.csv,Global.csv,Global,A,temper,,A5,,,30,Study,User,1.25,,Anger,A5,7663,,,-1,-1,,,,,1
6509ced499369f98b2c27874,jn3qjpiyvp,Ex2A_Prolific,1,49,2024-02-27T23:35:58+00:00,4.673810005188,3,Stim_A.csv,Global.csv,Global,A,ire,,A6,,,31,Study,User,1.25,,Anger,A6,4235,,,-1,-1,,,,,1
6509ced499369f98b2c27874,jn3qjpiyvp,Ex2A_Prolific,1,50,2024-02-27T23:36:02+00:00,4.7310678958893,3,Stim_A.csv,Global.csv,Global,A,wrath,,A7,,,32,Study,User,1.25,,Anger,A7,4270,,,-1,-1,,,,,1
6509ced499369f98b2c27874,jn3qjpiyvp,Ex2A_Prolific,1,51,2024-02-27T23:36:06+00:00,3.983943939209,3,Stim_A.csv,Global.csv,Global,A,mean,,A8,,,33,Study,User,1.25,,Anger,A8,3522,,,-1,-1,,,,,1
6509ced499369f98b2c27874,jn3qjpiyvp,Ex2A_Prolific,1,52,2024-02-27T23:36:11+00:00,4.8968160152435,3,Stim_A.csv,Global.csv,Global,A,hatred,,A9,,,34,Study,User,1.25,,Anger,A9,4423,,,-1,-1,,,,,1
6509ced499369f98b2c27874,jn3qjpiyvp,Ex2A_Prolific,1,53,2024-02-27T23:36:16+00:00,4.6583640575409,3,Stim_A.csv,Global.csv,Global,A,fight,,A10,,,35,Study,User,1.25,,Anger,A10,4188,,,-1,-1,,,,,1
6509ced499369f98b2c27874,jn3qjpiyvp,Ex2A_Prolific,1,54,2024-02-27T23:36:21+00:00,5.2175400257111,3,Stim_A.csv,Global.csv,Global,A,hate,,A11,,,36,Study,User,1.25,,Anger,A11,4804,,,-1,-1,,,,,1
6509ced499369f98b2c27874,jn3qjpiyvp,Ex2A_Prolific,1,55,2024-02-27T23:36:26+00:00,4.4299559593201,3,Stim_A.csv,Global.csv,Global,A,fear,,A12,,,37,Study,User,1.25,,Anger,A12,4001,,,-1,-1,,,,,1
6509ced499369f98b2c27874,jn3qjpiyvp,Ex2A_Prolific,1,56,2024-02-27T23:36:32+00:00,6.0659000873566,3,Stim_A.csv,Global.csv,Global,A,,,,,,0,Instruct,User,-,"You have completed this section and will now be asked to judge your ability to remember the list items you just studied. You will have four seconds to type your rating. Please click next to continue.",,Next_List1,5546,,,-1,-1,,,,,1
6509ced499369f98b2c27874,jn3qjpiyvp,Ex2A_Prolific,1,57,2024-02-27T23:36:37+00:00,5.5060529708862,3,Stim_A.csv,Global.csv,Global,A,,,,,,0,JOL_GLOBAL,5,5,"How likely are you to correctly recall each of the items you just studied?|Type your response on a scale from 0-100 and then press Enter (0 = WILL NOT REMEMBER; 100 = DEFINITELY WILL REMEMBER).",Related,JOL3,5004,,,2504,2753,,,,70,1
6509ced499369f98b2c27874,jn3qjpiyvp,Ex2A_Prolific,1,58,2024-02-27T23:36:42+00:00,5.1185219287872,3,Stim_A.csv,Global.csv,Global,A,,,,,,0,Instruct,User,4,"You have completed this section. Please click next.",,Instruct166,4591,,,-1,-1,,,,,1
6509ced499369f98b2c27874,jn3qjpiyvp,Ex2A_Prolific,1,59,2024-02-27T23:37:13+00:00,30.525876045227,3,Stim_A.csv,Global.csv,Global,A,,,,,,0,FreeRecall,30,30,"Please type as many words as you can that begin with the letter ""W"". The computer will automatically advance to the next screen in 30 seconds.",,FILLER,30002,"write wrong wait want wow won will wilt wane wave wall walk",0,1988,29291,0,0,,,1
6509ced499369f98b2c27874,jn3qjpiyvp,Ex2A_Prolific,1,60,2024-02-27T23:37:18+00:00,5.1804881095886,3,Stim_A.csv,Global.csv,Global,A,,,,,,0,Instruct,User,4,"You have completed this section. Please click next.",,Instruct166,4676,,,-1,-1,,,,,1
6509ced499369f98b2c27874,jn3qjpiyvp,Ex2A_Prolific,1,61,2024-02-27T23:37:23+00:00,5.0268878936768,3,Stim_A.csv,Global.csv,Global,A,,,,,,0,Instruct,User,4,"You will now complete a memory test for the words you just studied. Please type as many words from the previous list as you can seperated by a comma. Spelling will not count against you and you can recall the words in any order. This test will be timed for one minute, and the computer will automatically advance once time is up. Click next when you are ready to begin.",,Instruct1666,4588,,,-1,-1,,,,,1
6509ced499369f98b2c27874,jn3qjpiyvp,Ex2A_Prolific,1,62,2024-02-27T23:38:24+00:00,60.447978019714,3,Stim_A.csv,Global.csv,Global,A,,,,,,0,FreeRecall,60,1.25,"Please type as many words as you can from the previous study list in any order. Please separate each word with a comma. Spelling will not count against you. This screen will automatically advance in one minute.",,RECALL_Test,60004,"rage, enrage, hate, hatred, fight, fear, mean, temper, mad, fury, ire, wrath,",0,367,41331,0,0,,,1
6509ced499369f98b2c27874,jn3qjpiyvp,Ex2A_Prolific,1,63,2024-02-27T23:38:29+00:00,5.6159400939941,3,Stim_A.csv,Global.csv,Global,A,,,,,,0,Instruct,User,3,"You will now be presented with a new study list. Click next when you are ready to begin.",,NEXT_LIST,5103,,,-1,-1,,,,,1
6509ced499369f98b2c27874,jn3qjpiyvp,Ex2A_Prolific,1,64,2024-02-27T23:38:35+00:00,5.7995538711548,3,Stim_A.csv,Global.csv,Global,A,garbage,,T1,,,38,Study,User,1.25,,Trash,T1,5279,,,-1,-1,,,,,1
6509ced499369f98b2c27874,jn3qjpiyvp,Ex2A_Prolific,1,65,2024-02-27T23:38:41+00:00,5.5799570083618,3,Stim_A.csv,Global.csv,Global,A,rubbish,,T2,,,39,Study,User,1.25,,Trash,T2,5144,,,-1,-1,,,,,1
6509ced499369f98b2c27874,jn3qjpiyvp,Ex2A_Prolific,1,66,2024-02-27T23:38:45+00:00,4.3922770023346,3,Stim_A.csv,Global.csv,Global,A,debris,,T3,,,40,Study,User,1.25,,Trash,T3,3875,,,-1,-1,,,,,1
6509ced499369f98b2c27874,jn3qjpiyvp,Ex2A_Prolific,1,67,2024-02-27T23:38:51+00:00,5.7798941135406,3,Stim_A.csv,Global.csv,Global,A,dump,,T4,,,41,Study,User,1.25,,Trash,T4,5238,,,-1,-1,,,,,1
6509ced499369f98b2c27874,jn3qjpiyvp,Ex2A_Prolific,1,68,2024-02-27T23:38:56+00:00,5.2254679203033,3,Stim_A.csv,Global.csv,Global,A,litter,,T5,,,42,Study,User,1.25,,Trash,T5,4762,,,-1,-1,,,,,1
6509ced499369f98b2c27874,jn3qjpiyvp,Ex2A_Prolific,1,69,2024-02-27T23:39:01+00:00,5.0359308719635,3,Stim_A.csv,Global.csv,Global,A,landfill,,T6,,,43,Study,User,1.25,,Trash,T6,4568,,,-1,-1,,,,,1
6509ced499369f98b2c27874,jn3qjpiyvp,Ex2A_Prolific,1,70,2024-02-27T23:39:12+00:00,11.501039981842,3,Stim_A.csv,Global.csv,Global,A,junk,,T7,,,44,Study,User,1.25,,Trash,T7,11051,,,-1,-1,,,,,1
6509ced499369f98b2c27874,jn3qjpiyvp,Ex2A_Prolific,1,71,2024-02-27T23:39:17+00:00,4.4179530143738,3,Stim_A.csv,Global.csv,Global,A,waste,,T8,,,45,Study,User,1.25,,Trash,T8,3993,,,-1,-1,,,,,1
6509ced499369f98b2c27874,jn3qjpiyvp,Ex2A_Prolific,1,72,2024-02-27T23:39:22+00:00,5.6155459880829,3,Stim_A.csv,Global.csv,Global,A,sewage,,T9,,,46,Study,User,1.25,,Trash,T9,5125,,,-1,-1,,,,,1
6509ced499369f98b2c27874,jn3qjpiyvp,Ex2A_Prolific,1,73,2024-02-27T23:39:26+00:00,3.9739511013031,3,Stim_A.csv,Global.csv,Global,A,pile,,T10,,,47,Study,User,1.25,,Trash,T10,3451,,,-1,-1,,,,,1
6509ced499369f98b2c27874,jn3qjpiyvp,Ex2A_Prolific,1,74,2024-02-27T23:39:35+00:00,8.798907995224,3,Stim_A.csv,Global.csv,Global,A,scraps,,T11,,,48,Study,User,1.25,,Trash,T11,8353,,,-1,-1,,,,,1
6509ced499369f98b2c27874,jn3qjpiyvp,Ex2A_Prolific,1,75,2024-02-27T23:39:42+00:00,6.8484320640564,3,Stim_A.csv,Global.csv,Global,A,refuse,,T12,,,49,Study,User,1.25,,Trash,T12,6390,,,-1,-1,,,,,1
6509ced499369f98b2c27874,jn3qjpiyvp,Ex2A_Prolific,1,76,2024-02-27T23:39:46+00:00,3.4246950149536,3,Stim_A.csv,Global.csv,Global,A,,,,,,0,Instruct,User,-,"You have completed this section and will now be asked to judge your ability to remember the list items you just studied. You will have four seconds to type your rating. Please click next to continue.",,Next_List1,2962,,,-1,-1,,,,,1
6509ced499369f98b2c27874,jn3qjpiyvp,Ex2A_Prolific,1,77,2024-02-27T23:39:51+00:00,5.5039489269257,3,Stim_A.csv,Global.csv,Global,A,,,,,,0,JOL_GLOBAL,5,5,"How likely are you to correctly recall each of the items you just studied?|Type your response on a scale from 0-100 and then press Enter (0 = WILL NOT REMEMBER; 100 = DEFINITELY WILL REMEMBER).",Related,JOL4,5005,,,2957,3064,,,,50,1
6509ced499369f98b2c27874,jn3qjpiyvp,Ex2A_Prolific,1,78,2024-02-27T23:39:53+00:00,2.3859069347382,3,Stim_A.csv,Global.csv,Global,A,,,,,,0,Instruct,User,1.25,"You have completed this section. Please click next.",,Instruct166,1932,,,-1,-1,,,,,1
6509ced499369f98b2c27874,jn3qjpiyvp,Ex2A_Prolific,1,79,2024-02-27T23:40:24+00:00,30.520375013351,3,Stim_A.csv,Global.csv,Global,A,,,,,,0,FreeRecall,30,30,"Please type as many words as you can that begin with the letter ""T"". The computer will automatically advance to the next screen in 30 seconds.",,FILLER,30003,"tip type top tap ton tin tan ten tell till toll tag",0,1526,29028,0,0,,,1
6509ced499369f98b2c27874,jn3qjpiyvp,Ex2A_Prolific,1,80,2024-02-27T23:40:26+00:00,2.0433781147003,3,Stim_A.csv,Global.csv,Global,A,,,,,,0,Instruct,User,-,"You have completed this section. Please click next.",,Instruct166,1581,,,-1,-1,,,,,1
6509ced499369f98b2c27874,jn3qjpiyvp,Ex2A_Prolific,1,81,2024-02-27T23:40:31+00:00,5.3714609146118,3,Stim_A.csv,Global.csv,Global,A,,,,,,0,Instruct,User,4,"You will now complete a memory test for the words you just studied. Please type as many words from the previous list as you can seperated by a comma. Spelling will not count against you and you can recall the words in any order. This test will be timed for one minute, and the computer will automatically advance once time is up. Click next when you are ready to begin.",,Instruct1666,4855,,,-1,-1,,,,,1
6509ced499369f98b2c27874,jn3qjpiyvp,Ex2A_Prolific,1,82,2024-02-27T23:41:32+00:00,60.487010002136,3,Stim_A.csv,Global.csv,Global,A,,,,,,0,FreeRecall,60,60,"Please type as many words as you can from the previous study list in any order. Please separate each word with a comma. Spelling will not count against you. This screen will automatically advance in one minute.",,RECALL_Test,60006,"refuse, landfill, debris, pile, garbage, rubbish, junk, dump, waste, sewage, ",0,1985,52969,0,0,,,1
6509ced499369f98b2c27874,jn3qjpiyvp,Ex2A_Prolific,1,83,2024-02-27T23:41:36+00:00,3.9132199287415,3,Stim_A.csv,Global.csv,Global,A,,,,,,0,Instruct,User,3,"You will now be presented with a new study list. Click next when you are ready to begin.",,NEXT_LIST,3414,,,-1,-1,,,,,1
6509ced499369f98b2c27874,jn3qjpiyvp,Ex2A_Prolific,1,84,2024-02-27T23:41:46+00:00,9.8899230957031,3,Stim_A.csv,Global.csv,Global,A,physician,,D1,,,50,Study,User,1.25,,Doctor,D1,9398,,,-1,-1,,,,,1
6509ced499369f98b2c27874,jn3qjpiyvp,Ex2A_Prolific,1,85,2024-02-27T23:41:50+00:00,4.0406711101532,3,Stim_A.csv,Global.csv,Global,A,nurse,,D2,,,51,Study,User,1.25,,Doctor,D2,3514,,,-1,-1,,,,,1
6509ced499369f98b2c27874,jn3qjpiyvp,Ex2A_Prolific,1,86,2024-02-27T23:41:59+00:00,8.9041547775269,3,Stim_A.csv,Global.csv,Global,A,stethoscope,,D3,,,52,Study,User,1.25,,Doctor,D3,8422,,,-1,-1,,,,,1
6509ced499369f98b2c27874,jn3qjpiyvp,Ex2A_Prolific,1,87,2024-02-27T23:42:06+00:00,6.9613690376282,3,Stim_A.csv,Global.csv,Global,A,surgeon,,D4,,,53,Study,User,1.25,,Doctor,D4,6475,,,-1,-1,,,,,1
6509ced499369f98b2c27874,jn3qjpiyvp,Ex2A_Prolific,1,88,2024-02-27T23:42:11+00:00,5.0361251831055,3,Stim_A.csv,Global.csv,Global,A,patient,,D5,,,54,Study,User,1.25,,Doctor,D5,4541,,,-1,-1,,,,,1
6509ced499369f98b2c27874,jn3qjpiyvp,Ex2A_Prolific,1,89,2024-02-27T23:42:16+00:00,4.9731769561768,3,Stim_A.csv,Global.csv,Global,A,clinic,,D6,,,55,Study,User,1.25,,Doctor,D6,4503,,,-1,-1,,,,,1
6509ced499369f98b2c27874,jn3qjpiyvp,Ex2A_Prolific,1,90,2024-02-27T23:42:26+00:00,10.71973991394,3,Stim_A.csv,Global.csv,Global,A,dentist,,D7,,,56,Study,User,1.25,,Doctor,D7,10205,,,-1,-1,,,,,1
6509ced499369f98b2c27874,jn3qjpiyvp,Ex2A_Prolific,1,91,2024-02-27T23:42:32+00:00,6.0150020122528,3,Stim_A.csv,Global.csv,Global,A,medicine,,D8,,,57,Study,User,1.25,,Doctor,D8,5579,,,-1,-1,,,,,1
6509ced499369f98b2c27874,jn3qjpiyvp,Ex2A_Prolific,1,92,2024-02-27T23:42:37+00:00,4.5343210697174,3,Stim_A.csv,Global.csv,Global,A,lawyer,,D9,,,58,Study,User,1.25,,Doctor,D9,4051,,,-1,-1,,,,,1
6509ced499369f98b2c27874,jn3qjpiyvp,Ex2A_Prolific,1,93,2024-02-27T23:42:41+00:00,4.6063098907471,3,Stim_A.csv,Global.csv,Global,A,health,,D10,,,59,Study,User,1.25,,Doctor,D10,4170,,,-1,-1,,,,,1
6509ced499369f98b2c27874,jn3qjpiyvp,Ex2A_Prolific,1,94,2024-02-27T23:42:46+00:00,4.8307220935822,3,Stim_A.csv,Global.csv,Global,A,sick,,D11,,,60,Study,User,1.25,,Doctor,D11,4379,,,-1,-1,,,,,1
6509ced499369f98b2c27874,jn3qjpiyvp,Ex2A_Prolific,1,95,2024-02-27T23:42:52+00:00,5.9476568698883,3,Stim_A.csv,Global.csv,Global,A,cure,,D12,,,61,Study,User,1.25,,Doctor,D12,5543,,,-1,-1,,,,,1
6509ced499369f98b2c27874,jn3qjpiyvp,Ex2A_Prolific,1,96,2024-02-27T23:42:55+00:00,2.8286612033844,3,Stim_A.csv,Global.csv,Global,A,,,,,,0,Instruct,User,-,"You have completed this section and will now be asked to judge your ability to remember the list items you just studied. You will have four seconds to type your rating. Please click next to continue.",,Next_List1,2312,,,-1,-1,,,,,1
6509ced499369f98b2c27874,jn3qjpiyvp,Ex2A_Prolific,1,97,2024-02-27T23:43:00+00:00,5.4709248542786,3,Stim_A.csv,Global.csv,Global,A,,,,,,0,JOL_GLOBAL,5,1.25,"How likely are you to correctly recall each of the items you just studied?|Type your response on a scale from 0-100 and then press Enter (0 = WILL NOT REMEMBER; 100 = DEFINITELY WILL REMEMBER).",Related,JOL5,5003,,,2460,2540,,,,70,1
6509ced499369f98b2c27874,jn3qjpiyvp,Ex2A_Prolific,1,98,2024-02-27T23:43:04+00:00,3.9474461078644,3,Stim_A.csv,Global.csv,Global,A,,,,,,0,Instruct,User,-,"You have completed this section. Please click next.",,Instruct166,3466,,,-1,-1,,,,,1
6509ced499369f98b2c27874,jn3qjpiyvp,Ex2A_Prolific,1,99,2024-02-27T23:43:35+00:00,30.627877950668,3,Stim_A.csv,Global.csv,Global,A,,,,,,0,FreeRecall,30,30,"Please type as many words as you can that begin with the letter ""M"". The computer will automatically advance to the next screen in 30 seconds.",,FILLER,30001,"monday mount mole mill milk mail malt mama mom meal melt make male ",0,1351,29650,0,0,,,1
6509ced499369f98b2c27874,jn3qjpiyvp,Ex2A_Prolific,1,100,2024-02-27T23:43:37+00:00,1.5919990539551,3,Stim_A.csv,Global.csv,Global,A,,,,,,0,Instruct,User,-,"You have completed this section. Please click next.",,Instruct166,1139,,,-1,-1,,,,,1
6509ced499369f98b2c27874,jn3qjpiyvp,Ex2A_Prolific,1,101,2024-02-27T23:43:42+00:00,5.3267698287964,3,Stim_A.csv,Global.csv,Global,A,,,,,,0,Instruct,User,4,"You will now complete a memory test for the words you just studied. Please type as many words from the previous list as you can seperated by a comma. Spelling will not count against you and you can recall the words in any order. This test will be timed for one minute, and the computer will automatically advance once time is up. Click next when you are ready to begin.",,Instruct1666,4834,,,-1,-1,,,,,1
6509ced499369f98b2c27874,jn3qjpiyvp,Ex2A_Prolific,1,102,2024-02-27T23:44:42+00:00,60.502367973328,3,Stim_A.csv,Global.csv,Global,A,,,,,,0,FreeRecall,60,60,"Please type as many words as you can from the previous study list in any order. Please separate each word with a comma. Spelling will not count against you. This screen will automatically advance in one minute.",,RECALL_Test,60006,"physician, surgeon, nurse, dentist, lawyer, patient, clinic, medicine, cure, stethoscope, health, ",0,894,58208,0,0,,,1
6509ced499369f98b2c27874,jn3qjpiyvp,Ex2A_Prolific,1,103,2024-02-27T23:44:46+00:00,3.8192181587219,3,Stim_A.csv,Global.csv,Global,A,,,,,,0,Instruct,User,3,"You will now be presented with a new study list. Click next when you are ready to begin.",,NEXT_LIST,3299,,,-1,-1,,,,,1
6509ced499369f98b2c27874,jn3qjpiyvp,Ex2A_Prolific,1,104,2024-02-27T23:44:52+00:00,6.0307419300079,3,Stim_A.csv,Global.csv,Global,A,fast,,S1,,,62,Study,User,1.25,,Slow,S1,5544,,,-1,-1,,,,,1
6509ced499369f98b2c27874,jn3qjpiyvp,Ex2A_Prolific,1,105,2024-02-27T23:44:57+00:00,4.3899960517883,3,Stim_A.csv,Global.csv,Global,A,snail,,S2,,,63,Study,User,1.25,,Slow,S2,3896,,,-1,-1,,,,,1
6509ced499369f98b2c27874,jn3qjpiyvp,Ex2A_Prolific,1,106,2024-02-27T23:45:01+00:00,4.2429120540619,3,Stim_A.csv,Global.csv,Global,A,turtle,,S3,,,64,Study,User,1.25,,Slow,S3,3740,,,-1,-1,,,,,1
6509ced499369f98b2c27874,jn3qjpiyvp,Ex2A_Prolific,1,107,2024-02-27T23:45:11+00:00,9.5222008228302,3,Stim_A.csv,Global.csv,Global,A,sluggish,,S4,,,65,Study,User,1.25,,Slow,S4,9073,,,-1,-1,,,,,1
6509ced499369f98b2c27874,jn3qjpiyvp,Ex2A_Prolific,1,108,2024-02-27T23:45:16+00:00,5.396290063858,3,Stim_A.csv,Global.csv,Global,A,quick,,S5,,,66,Study,User,1.25,,Slow,S5,4927,,,-1,-1,,,,,1
6509ced499369f98b2c27874,jn3qjpiyvp,Ex2A_Prolific,1,109,2024-02-27T23:45:21+00:00,5.3692760467529,3,Stim_A.csv,Global.csv,Global,A,molasses,,S6,,,67,Study,User,1.25,,Slow,S6,4866,,,-1,-1,,,,,1
6509ced499369f98b2c27874,jn3qjpiyvp,Ex2A_Prolific,1,110,2024-02-27T23:45:41+00:00,19.457046985626,3,Stim_A.csv,Global.csv,Global,A,lethargic,,S7,,,68,Study,User,1.25,,Slow,S7,19001,,,-1,-1,,,,,1
6509ced499369f98b2c27874,jn3qjpiyvp,Ex2A_Prolific,1,111,2024-02-27T23:45:48+00:00,7.0099279880524,3,Stim_A.csv,Global.csv,Global,A,speed,,S8,,,69,Study,User,1.25,,Slow,S8,6557,,,-1,-1,,,,,1
6509ced499369f98b2c27874,jn3qjpiyvp,Ex2A_Prolific,1,112,2024-02-27T23:46:04+00:00,16.07603096962,3,Stim_A.csv,Global.csv,Global,A,delay,,S9,,,70,Study,User,1.25,,Slow,S9,15573,,,-1,-1,,,,,1
6509ced499369f98b2c27874,jn3qjpiyvp,Ex2A_Prolific,1,113,2024-02-27T23:46:10+00:00,6.0458450317383,3,Stim_A.csv,Global.csv,Global,A,hesitant,,S10,,,71,Study,User,1.25,,Slow,S10,5543,,,-1,-1,,,,,1
6509ced499369f98b2c27874,jn3qjpiyvp,Ex2A_Prolific,1,114,2024-02-27T23:46:17+00:00,7.3391869068146,3,Stim_A.csv,Global.csv,Global,A,cautious,,S11,,,72,Study,User,1.25,,Slow,S11,6846,,,-1,-1,,,,,1
6509ced499369f98b2c27874,jn3qjpiyvp,Ex2A_Prolific,1,115,2024-02-27T23:46:23+00:00,5.9822330474854,3,Stim_A.csv,Global.csv,Global,A,traffic,,S12,,,73,Study,User,1.25,,Slow,S12,5557,,,-1,-1,,,,,1
6509ced499369f98b2c27874,jn3qjpiyvp,Ex2A_Prolific,1,116,2024-02-27T23:46:27+00:00,3.3386471271515,3,Stim_A.csv,Global.csv,Global,A,,,,,,0,Instruct,User,-,"You have completed this section and will now be asked to judge your ability to remember the list items you just studied. You will have four seconds to type your rating. Please click next to continue.",,Next_List1,2842,,,-1,-1,,,,,1
6509ced499369f98b2c27874,jn3qjpiyvp,Ex2A_Prolific,1,117,2024-02-27T23:46:32+00:00,5.4371178150177,3,Stim_A.csv,Global.csv,Global,A,,,,,,0,JOL_GLOBAL,5,5,"How likely are you to correctly recall each of the items you just studied?|Type your response on a scale from 0-100 and then press Enter (0 = WILL NOT REMEMBER; 100 = DEFINITELY WILL REMEMBER).",Related,JOL6,5002,,,1788,2060,,,,60,1
6509ced499369f98b2c27874,jn3qjpiyvp,Ex2A_Prolific,1,118,2024-02-27T23:46:34+00:00,2.2573461532593,3,Stim_A.csv,Global.csv,Global,A,,,,,,0,Instruct,User,-,"You have completed this section. Please click next.",,Instruct166,1730,,,-1,-1,,,,,1
6509ced499369f98b2c27874,jn3qjpiyvp,Ex2A_Prolific,1,119,2024-02-27T23:47:05+00:00,30.531372070312,3,Stim_A.csv,Global.csv,Global,A,,,,,,0,FreeRecall,30,30,"Please type as many words as you can that begin with the letter ""L"". The computer will automatically advance to the next screen in 30 seconds.",,FILLER,30004,"little lone late land lane lake loop loot long laugh la",0,2072,29990,0,0,,,1
6509ced499369f98b2c27874,jn3qjpiyvp,Ex2A_Prolific,1,120,2024-02-27T23:47:06+00:00,1.7106728553772,3,Stim_A.csv,Global.csv,Global,A,,,,,,0,Instruct,User,-,"You have completed this section. Please click next.",,Instruct166,1220,,,-1,-1,,,,,1
6509ced499369f98b2c27874,jn3qjpiyvp,Ex2A_Prolific,1,121,2024-02-27T23:47:12+00:00,5.2816150188446,3,Stim_A.csv,Global.csv,Global,A,,,,,,0,Instruct,User,4,"You will now complete a memory test for the words you just studied. Please type as many words from the previous list as you can seperated by a comma. Spelling will not count against you and you can recall the words in any order. This test will be timed for one minute, and the computer will automatically advance once time is up. Click next when you are ready to begin.",,Instruct1666,4850,,,-1,-1,,,,,1
6509ced499369f98b2c27874,jn3qjpiyvp,Ex2A_Prolific,1,122,2024-02-27T23:48:12+00:00,60.469300031662,3,Stim_A.csv,Global.csv,Global,A,,,,,,0,FreeRecall,60,60,"Please type as many words as you can from the previous study list in any order. Please separate each word with a comma. Spelling will not count against you. This screen will automatically advance in one minute.",,RECALL_Test,60001,"hesitant, traffic, molasses, cautious, speed, fast, quick, sluggish, lethargic, snail, turtle, delay",0,876,58596,0,0,,,1
6509ced499369f98b2c27874,jn3qjpiyvp,Ex2A_Prolific,1,123,2024-02-27T23:48:16+00:00,4.0605459213257,3,Stim_A.csv,Global.csv,Global,A,,,,,,0,Instruct,User,3,"You will now be presented with a new study list. Click next when you are ready to begin.",,NEXT_LIST,3643,,,-1,-1,,,,,1
6509ced499369f98b2c27874,jn3qjpiyvp,Ex2A_Prolific,1,124,2024-02-27T23:48:23+00:00,6.9832921028137,3,Stim_A.csv,Global.csv,Global,A,mississippi,,RR1,,,74,Study,User,1.25,,River,RR1,6535,,,-1,-1,,,,,1
6509ced499369f98b2c27874,jn3qjpiyvp,Ex2A_Prolific,1,125,2024-02-27T23:48:27+00:00,4.1368560791016,3,Stim_A.csv,Global.csv,Global,A,creek,,RR2,,,75,Study,User,1.25,,River,RR2,3694,,,-1,-1,,,,,1
6509ced499369f98b2c27874,jn3qjpiyvp,Ex2A_Prolific,1,126,2024-02-27T23:48:32+00:00,4.2426898479462,3,Stim_A.csv,Global.csv,Global,A,stream,,RR3,,,76,Study,User,1.25,,River,RR3,3744,,,-1,-1,,,,,1
6509ced499369f98b2c27874,jn3qjpiyvp,Ex2A_Prolific,1,127,2024-02-27T23:48:37+00:00,4.9622039794922,3,Stim_A.csv,Global.csv,Global,A,flow,,RR4,,,77,Study,User,1.25,,River,RR4,4509,,,-1,-1,,,,,1
6509ced499369f98b2c27874,jn3qjpiyvp,Ex2A_Prolific,1,128,2024-02-27T23:48:43+00:00,6.0580160617828,3,Stim_A.csv,Global.csv,Global,A,bridge,,RR5,,,78,Study,User,1.25,,River,RR5,5548,,,-1,-1,,,,,1
6509ced499369f98b2c27874,jn3qjpiyvp,Ex2A_Prolific,1,129,2024-02-27T23:48:51+00:00,7.9161820411682,3,Stim_A.csv,Global.csv,Global,A,brook,,RR6,,,79,Study,User,1.25,,River,RR6,7394,,,-1,-1,,,,,1
6509ced499369f98b2c27874,jn3qjpiyvp,Ex2A_Prolific,1,130,2024-02-27T23:49:02+00:00,11.223479032516,3,Stim_A.csv,Global.csv,Global,A,lake,,RR7,,,80,Study,User,1.25,,River,RR7,10746,,,-1,-1,,,,,1
6509ced499369f98b2c27874,jn3qjpiyvp,Ex2A_Prolific,1,131,2024-02-27T23:49:07+00:00,5.667454957962,3,Stim_A.csv,Global.csv,Global,A,barge,,RR8,,,81,Study,User,1.25,,River,RR8,5157,,,-1,-1,,,,,1
6509ced499369f98b2c27874,jn3qjpiyvp,Ex2A_Prolific,1,132,2024-02-27T23:49:11+00:00,3.8030860424042,3,Stim_A.csv,Global.csv,Global,A,water,,RR9,,,82,Study,User,1.25,,River,RR9,3317,,,-1,-1,,,,,1
6509ced499369f98b2c27874,jn3qjpiyvp,Ex2A_Prolific,1,133,2024-02-27T23:49:17+00:00,5.3063678741455,3,Stim_A.csv,Global.csv,Global,A,boat,,RR10,,,83,Study,User,1.25,,River,RR10,4886,,,-1,-1,,,,,1
6509ced499369f98b2c27874,jn3qjpiyvp,Ex2A_Prolific,1,134,2024-02-27T23:49:20+00:00,3.9265241622925,3,Stim_A.csv,Global.csv,Global,A,tide,,RR11,,,84,Study,User,1.25,,River,RR11,3453,,,-1,-1,,,,,1
6509ced499369f98b2c27874,jn3qjpiyvp,Ex2A_Prolific,1,135,2024-02-27T23:49:24+00:00,3.9615879058838,3,Stim_A.csv,Global.csv,Global,A,swim,,RR12,,,85,Study,User,1.25,,River,RR12,3516,,,-1,-1,,,,,1
6509ced499369f98b2c27874,jn3qjpiyvp,Ex2A_Prolific,1,136,2024-02-27T23:49:28+00:00,3.6046540737152,3,Stim_A.csv,Global.csv,Global,A,,,,,,0,Instruct,User,-,"You have completed this section and will now be asked to judge your ability to remember the list items you just studied. You will have four seconds to type your rating. Please click next to continue.",,Next_List1,3129,,,-1,-1,,,,,1
6509ced499369f98b2c27874,jn3qjpiyvp,Ex2A_Prolific,1,137,2024-02-27T23:49:34+00:00,5.4608559608459,3,Stim_A.csv,Global.csv,Global,A,,,,,,0,JOL_GLOBAL,5,5,"How likely are you to correctly recall each of the items you just studied?|Type your response on a scale from 0-100 and then press Enter (0 = WILL NOT REMEMBER; 100 = DEFINITELY WILL REMEMBER).",Related,JOL7,5006,,,1897,4760,,,,60,1
6509ced499369f98b2c27874,jn3qjpiyvp,Ex2A_Prolific,1,138,2024-02-27T23:49:39+00:00,5.2446849346161,3,Stim_A.csv,Global.csv,Global,A,,,,,,0,Instruct,User,4,"You have completed this section. Please click next.",,Instruct166,4723,,,-1,-1,,,,,1
6509ced499369f98b2c27874,jn3qjpiyvp,Ex2A_Prolific,1,139,2024-02-27T23:50:09+00:00,30.50678396225,3,Stim_A.csv,Global.csv,Global,A,,,,,,0,FreeRecall,30,30,"Please type as many words as you can that begin with the letter ""K"". The computer will automatically advance to the next screen in 30 seconds.",,FILLER,30002,"kill krill k",0,1684,29729,0,0,,,1
6509ced499369f98b2c27874,jn3qjpiyvp,Ex2A_Prolific,1,140,2024-02-27T23:50:17+00:00,7.9170479774475,3,Stim_A.csv,Global.csv,Global,A,,,,,,0,Instruct,User,4,"You have completed this section. Please click next.",,Instruct166,7412,,,-1,-1,,,,,1
6509ced499369f98b2c27874,jn3qjpiyvp,Ex2A_Prolific,1,141,2024-02-27T23:50:32+00:00,15.180267095566,3,Stim_A.csv,Global.csv,Global,A,,,,,,0,Instruct,User,4,"You will now complete a memory test for the words you just studied. Please type as many words from the previous list as you can seperated by a comma. Spelling will not count against you and you can recall the words in any order. This test will be timed for one minute, and the computer will automatically advance once time is up. Click next when you are ready to begin.",,Instruct1666,14702,,,-1,-1,,,,,1
6509ced499369f98b2c27874,jn3qjpiyvp,Ex2A_Prolific,1,142,2024-02-27T23:51:33+00:00,60.453903913498,3,Stim_A.csv,Global.csv,Global,A,,,,,,0,FreeRecall,60,60,"Please type as many words as you can from the previous study list in any order. Please separate each word with a comma. Spelling will not count against you. This screen will automatically advance in one minute.",,RECALL_Test,60003,"boat, barge, swim, tide, water, mississippi, creek, flow, brook, lake, stream, bridge,",0,1229,58424,0,0,,,1
6509ced499369f98b2c27874,jn3qjpiyvp,Ex2A_Prolific,1,143,2024-02-27T23:51:37+00:00,4.1379430294037,3,Stim_A.csv,Global.csv,Global,A,,,,,,0,Instruct,User,3,"You will now be presented with a new study list. Click next when you are ready to begin.",,NEXT_LIST,3621,,,-1,-1,,,,,1
6509ced499369f98b2c27874,jn3qjpiyvp,Ex2A_Prolific,1,144,2024-02-27T23:51:43+00:00,6.0194571018219,3,Stim_A.csv,Global.csv,Global,A,rye,,B1,,,86,Study,User,1.25,,Bread,B1,5554,,,-1,-1,,,,,1
6509ced499369f98b2c27874,jn3qjpiyvp,Ex2A_Prolific,1,145,2024-02-27T23:51:47+00:00,3.8035399913788,3,Stim_A.csv,Global.csv,Global,A,loaf,,B2,,,87,Study,User,1.25,,Bread,B2,3305,,,-1,-1,,,,,1
6509ced499369f98b2c27874,jn3qjpiyvp,Ex2A_Prolific,1,146,2024-02-27T23:51:51+00:00,4.4454970359802,3,Stim_A.csv,Global.csv,Global,A,butter,,B3,,,88,Study,User,1.25,,Bread,B3,3955,,,-1,-1,,,,,1
6509ced499369f98b2c27874,jn3qjpiyvp,Ex2A_Prolific,1,147,2024-02-27T23:52:00+00:00,8.2907319068909,3,Stim_A.csv,Global.csv,Global,A,toast,,B4,,,89,Study,User,1.25,,Bread,B4,7845,,,-1,-1,,,,,1
6509ced499369f98b2c27874,jn3qjpiyvp,Ex2A_Prolific,1,148,2024-02-27T23:52:04+00:00,4.8276948928833,3,Stim_A.csv,Global.csv,Global,A,dough,,B5,,,90,Study,User,1.25,,Bread,B5,4382,,,-1,-1,,,,,1
6509ced499369f98b2c27874,jn3qjpiyvp,Ex2A_Prolific,1,149,2024-02-27T23:52:09+00:00,4.3246340751648,3,Stim_A.csv,Global.csv,Global,A,crust,,B6,,,91,Study,User,1.25,,Bread,B6,3897,,,-1,-1,,,,,1
6509ced499369f98b2c27874,jn3qjpiyvp,Ex2A_Prolific,1,150,2024-02-27T23:52:13+00:00,4.0329599380493,3,Stim_A.csv,Global.csv,Global,A,flour,,B7,,,92,Study,User,1.25,,Bread,B7,3527,,,-1,-1,,,,,1
6509ced499369f98b2c27874,jn3qjpiyvp,Ex2A_Prolific,1,151,2024-02-27T23:52:19+00:00,6.6503551006317,3,Stim_A.csv,Global.csv,Global,A,sandwich,,B8,,,93,Study,User,1.25,,Bread,B8,6189,,,-1,-1,,,,,1
6509ced499369f98b2c27874,jn3qjpiyvp,Ex2A_Prolific,1,152,2024-02-27T23:52:24+00:00,5.0969650745392,3,Stim_A.csv,Global.csv,Global,A,jam,,B9,,,94,Study,User,1.25,,Bread,B9,4624,,,-1,-1,,,,,1
6509ced499369f98b2c27874,jn3qjpiyvp,Ex2A_Prolific,1,153,2024-02-27T23:52:28+00:00,3.7467219829559,3,Stim_A.csv,Global.csv,Global,A,jelly,,B10,,,95,Study,User,1.25,,Bread,B10,3243,,,-1,-1,,,,,1
6509ced499369f98b2c27874,jn3qjpiyvp,Ex2A_Prolific,1,154,2024-02-27T23:52:32+00:00,4.2288930416107,3,Stim_A.csv,Global.csv,Global,A,slice,,B11,,,96,Study,User,1.25,,Bread,B11,3794,,,-1,-1,,,,,1
6509ced499369f98b2c27874,jn3qjpiyvp,Ex2A_Prolific,1,155,2024-02-27T23:52:37+00:00,5.0616388320923,3,Stim_A.csv,Global.csv,Global,A,milk,,B12,,,97,Study,User,1.25,,Bread,B12,4554,,,-1,-1,,,,,1
6509ced499369f98b2c27874,jn3qjpiyvp,Ex2A_Prolific,1,156,2024-02-27T23:52:41+00:00,3.4645011425018,3,Stim_A.csv,Global.csv,Global,A,,,,,,0,Instruct,User,-,"You have completed this section and will now be asked to judge your ability to remember the list items you just studied. You will have four seconds to type your rating. Please click next to continue.",,Next_List1,2998,,,-1,-1,,,,,1
6509ced499369f98b2c27874,jn3qjpiyvp,Ex2A_Prolific,1,157,2024-02-27T23:52:46+00:00,5.4907009601593,3,Stim_A.csv,Global.csv,Global,A,,,,,,0,JOL_GLOBAL,5,5,"How likely are you to correctly recall each of the items you just studied?|Type your response on a scale from 0-100 and then press Enter (0 = WILL NOT REMEMBER; 100 = DEFINITELY WILL REMEMBER).",Related,JOL8,5001,,,2101,2200,,,,80,1
6509ced499369f98b2c27874,jn3qjpiyvp,Ex2A_Prolific,1,158,2024-02-27T23:52:52+00:00,5.1622488498688,3,Stim_A.csv,Global.csv,Global,A,,,,,,0,Instruct,User,4,"You have completed this section. Please click next.",,Instruct166,4644,,,-1,-1,,,,,1
6509ced499369f98b2c27874,jn3qjpiyvp,Ex2A_Prolific,1,159,2024-02-27T23:53:22+00:00,30.478404998779,3,Stim_A.csv,Global.csv,Global,A,,,,,,0,FreeRecall,30,30,"Please type as many words as you can that begin with the letter ""R"". The computer will automatically advance to the next screen in 30 seconds.",,FILLER,30001,"rot row roe rain rail rake rat ran ram rag ray red ",0,1519,29304,0,0,,,1
6509ced499369f98b2c27874,jn3qjpiyvp,Ex2A_Prolific,1,160,2024-02-27T23:53:24+00:00,1.4875710010529,3,Stim_A.csv,Global.csv,Global,A,,,,,,0,Instruct,User,-,"You have completed this section. Please click next.",,Instruct166,976,,,-1,-1,,,,,1
6509ced499369f98b2c27874,jn3qjpiyvp,Ex2A_Prolific,1,161,2024-02-27T23:53:29+00:00,5.8365530967712,3,Stim_A.csv,Global.csv,Global,A,,,,,,0,Instruct,User,4,"You will now complete a memory test for the words you just studied. Please type as many words from the previous list as you can seperated by a comma. Spelling will not count against you and you can recall the words in any order. This test will be timed for one minute, and the computer will automatically advance once time is up. Click next when you are ready to begin.",,Instruct1666,5376,,,-1,-1,,,,,1
6509ced499369f98b2c27874,jn3qjpiyvp,Ex2A_Prolific,1,162,2024-02-27T23:54:30+00:00,60.476987123489,3,Stim_A.csv,Global.csv,Global,A,,,,,,0,FreeRecall,60,60,"Please type as many words as you can from the previous study list in any order. Please separate each word with a comma. Spelling will not count against you. This screen will automatically advance in one minute.",,RECALL_Test,60005,"milk, jelly, jam, butter, dough, rye, toast, loaf, crust, sandwich, flour,",0,1363,49383,0,0,,,1
6509ced499369f98b2c27874,jn3qjpiyvp,Ex2A_Prolific,1,163,2024-02-27T23:54:32+00:00,2.4654018878937,3,Stim_A.csv,Global.csv,Global,A,,,,,,0,Instruct,User,1.25,"You will now be presented with a new study list. Click next when you are ready to begin.",,NEXT_LIST,1966,,,-1,-1,,,,,1
6509ced499369f98b2c27874,jn3qjpiyvp,Ex2A_Prolific,1,164,2024-02-27T23:54:40+00:00,7.9259400367737,3,Stim_A.csv,Global.csv,Global,A,banner,,F1,,,98,Study,User,1.25,,Flag,F1,7448,,,-1,-1,,,,,1
6509ced499369f98b2c27874,jn3qjpiyvp,Ex2A_Prolific,1,165,2024-02-27T23:54:46+00:00,5.9640409946442,3,Stim_A.csv,Global.csv,Global,A,checkered,,F2,,,99,Study,User,1.25,,Flag,F2,5502,,,-1,-1,,,,,1
6509ced499369f98b2c27874,jn3qjpiyvp,Ex2A_Prolific,1,166,2024-02-27T23:54:52+00:00,5.6107568740845,3,Stim_A.csv,Global.csv,Global,A,american,,F3,,,100,Study,User,1.25,,Flag,F3,5078,,,-1,-1,,,,,1
6509ced499369f98b2c27874,jn3qjpiyvp,Ex2A_Prolific,1,167,2024-02-27T23:54:58+00:00,6.5192980766296,3,Stim_A.csv,Global.csv,Global,A,stripes,,F4,,,101,Study,User,1.25,,Flag,F4,6071,,,-1,-1,,,,,1
6509ced499369f98b2c27874,jn3qjpiyvp,Ex2A_Prolific,1,168,2024-02-27T23:55:03+00:00,4.5076451301575,3,Stim_A.csv,Global.csv,Global,A,pole,,F5,,,102,Study,User,1.25,,Flag,F5,4024,,,-1,-1,,,,,1
6509ced499369f98b2c27874,jn3qjpiyvp,Ex2A_Prolific,1,169,2024-02-27T23:55:07+00:00,4.6142859458923,3,Stim_A.csv,Global.csv,Global,A,anthem,,F6,,,103,Study,User,1.25,,Flag,F6,4119,,,-1,-1,,,,,1
6509ced499369f98b2c27874,jn3qjpiyvp,Ex2A_Prolific,1,170,2024-02-27T23:55:13+00:00,5.4585769176483,3,Stim_A.csv,Global.csv,Global,A,emblem,,F7,,,104,Study,User,1.25,,Flag,F7,4988,,,-1,-1,,,,,1
6509ced499369f98b2c27874,jn3qjpiyvp,Ex2A_Prolific,1,171,2024-02-27T23:55:18+00:00,5.2749710083008,3,Stim_A.csv,Global.csv,Global,A,national,,F8,,,105,Study,User,1.25,,Flag,F8,4836,,,-1,-1,,,,,1
6509ced499369f98b2c27874,jn3qjpiyvp,Ex2A_Prolific,1,172,2024-02-27T23:55:23+00:00,4.7399821281433,3,Stim_A.csv,Global.csv,Global,A,freedom,,F9,,,106,Study,User,1.25,,Flag,F9,4246,,,-1,-1,,,,,1
6509ced499369f98b2c27874,jn3qjpiyvp,Ex2A_Prolific,1,173,2024-02-27T23:55:30+00:00,7.3418638706207,3,Stim_A.csv,Global.csv,Global,A,symbol,,F10,,,107,Study,User,1.25,,Flag,F10,6876,,,-1,-1,,,,,1
6509ced499369f98b2c27874,jn3qjpiyvp,Ex2A_Prolific,1,174,2024-02-27T23:55:34+00:00,3.7443420886993,3,Stim_A.csv,Global.csv,Global,A,wave,,F11,,,108,Study,User,1.25,,Flag,F11,3255,,,-1,-1,,,,,1
6509ced499369f98b2c27874,jn3qjpiyvp,Ex2A_Prolific,1,175,2024-02-27T23:55:38+00:00,4.365592956543,3,Stim_A.csv,Global.csv,Global,A,stars,,F12,,,109,Study,User,1.25,,Flag,F12,3909,,,-1,-1,,,,,1
6509ced499369f98b2c27874,jn3qjpiyvp,Ex2A_Prolific,1,176,2024-02-27T23:55:42+00:00,3.6100790500641,3,Stim_A.csv,Global.csv,Global,A,,,,,,0,Instruct,User,-,"You have completed this section and will now be asked to judge your ability to remember the list items you just studied. You will have four seconds to type your rating. Please click next to continue.",,Next_List1,3141,,,-1,-1,,,,,1
6509ced499369f98b2c27874,jn3qjpiyvp,Ex2A_Prolific,1,177,2024-02-27T23:55:47+00:00,5.4708149433136,3,Stim_A.csv,Global.csv,Global,A,,,,,,0,JOL_GLOBAL,5,5,"How likely are you to correctly recall each of the items you just studied?|Type your response on a scale from 0-100 and then press Enter (0 = WILL NOT REMEMBER; 100 = DEFINITELY WILL REMEMBER).",Related,JOL9,5005,,,1966,2279,,,,50,1
6509ced499369f98b2c27874,jn3qjpiyvp,Ex2A_Prolific,1,178,2024-02-27T23:55:52+00:00,4.5792939662933,3,Stim_A.csv,Global.csv,Global,A,,,,,,0,Instruct,User,4,"You have completed this section. Please click next.",,Instruct166,4065,,,-1,-1,,,,,1
6509ced499369f98b2c27874,jn3qjpiyvp,Ex2A_Prolific,1,179,2024-02-27T23:56:23+00:00,30.45259308815,3,Stim_A.csv,Global.csv,Global,A,,,,,,0,FreeRecall,30,30,"Please type as many words as you can that begin with the letter ""M"". The computer will automatically advance to the next screen in 30 seconds.",,FILLER,30001,"mow mom mama mate make male mail milk mill mole mild mold melt meal mast",0,1284,29491,0,0,,,1
6509ced499369f98b2c27874,jn3qjpiyvp,Ex2A_Prolific,1,180,2024-02-27T23:56:27+00:00,4.6543040275574,3,Stim_A.csv,Global.csv,Global,A,,,,,,0,Instruct,User,4,"You have completed this section. Please click next.",,Instruct166,4153,,,-1,-1,,,,,1
6509ced499369f98b2c27874,jn3qjpiyvp,Ex2A_Prolific,1,181,2024-02-27T23:56:30+00:00,3.2861618995667,3,Stim_A.csv,Global.csv,Global,A,,,,,,0,Instruct,User,1.25,"You will now complete a memory test for the words you just studied. Please type as many words from the previous list as you can seperated by a comma. Spelling will not count against you and you can recall the words in any order. This test will be timed for one minute, and the computer will automatically advance once time is up. Click next when you are ready to begin.",,Instruct1666,2833,,,-1,-1,,,,,1
6509ced499369f98b2c27874,jn3qjpiyvp,Ex2A_Prolific,1,182,2024-02-27T23:57:31+00:00,60.458863973618,3,Stim_A.csv,Global.csv,Global,A,,,,,,0,FreeRecall,60,60,"Please type as many words as you can from the previous study list in any order. Please separate each word with a comma. Spelling will not count against you. This screen will automatically advance in one minute.",,RECALL_Test,60002,"emblem, symbol, national, stripes, stars, checkered, american, banner, freedom, wave,",0,425,47270,0,0,,,1
6509ced499369f98b2c27874,jn3qjpiyvp,Ex2A_Prolific,1,183,2024-02-27T23:57:34+00:00,3.5385661125183,3,Stim_A.csv,Global.csv,Global,A,,,,,,0,Instruct,User,3,"You will now be presented with a new study list. Click next when you are ready to begin.",,NEXT_LIST,3021,,,-1,-1,,,,,1
6509ced499369f98b2c27874,jn3qjpiyvp,Ex2A_Prolific,1,184,2024-02-27T23:57:41+00:00,6.4783189296722,3,Stim_A.csv,Global.csv,Global,A,blouse,,SS1,,,110,Study,User,1.25,,Shirt,SS1,6025,,,-1,-1,,,,,1
6509ced499369f98b2c27874,jn3qjpiyvp,Ex2A_Prolific,1,185,2024-02-27T23:57:46+00:00,4.8920068740845,3,Stim_A.csv,Global.csv,Global,A,sleeves,,SS2,,,111,Study,User,1.25,,Shirt,SS2,4368,,,-1,-1,,,,,1
6509ced499369f98b2c27874,jn3qjpiyvp,Ex2A_Prolific,1,186,2024-02-27T23:57:50+00:00,4.3582291603088,3,Stim_A.csv,Global.csv,Global,A,collar,,SS3,,,112,Study,User,1.25,,Shirt,SS3,3911,,,-1,-1,,,,,1
6509ced499369f98b2c27874,jn3qjpiyvp,Ex2A_Prolific,1,187,2024-02-27T23:57:54+00:00,4.0178909301758,3,Stim_A.csv,Global.csv,Global,A,shorts,,SS4,,,113,Study,User,1.25,,Shirt,SS4,3525,,,-1,-1,,,,,1
6509ced499369f98b2c27874,jn3qjpiyvp,Ex2A_Prolific,1,188,2024-02-27T23:58:03+00:00,8.7312440872192,3,Stim_A.csv,Global.csv,Global,A,button,,SS5,,,114,Study,User,1.25,,Shirt,SS5,8261,,,-1,-1,,,,,1
6509ced499369f98b2c27874,jn3qjpiyvp,Ex2A_Prolific,1,189,2024-02-27T23:58:09+00:00,6.0910139083862,3,Stim_A.csv,Global.csv,Global,A,pants,,SS6,,,115,Study,User,1.25,,Shirt,SS6,5642,,,-1,-1,,,,,1
6509ced499369f98b2c27874,jn3qjpiyvp,Ex2A_Prolific,1,190,2024-02-27T23:58:25+00:00,16.210901975632,3,Stim_A.csv,Global.csv,Global,A,polo,,SS7,,,116,Study,User,1.25,,Shirt,SS7,15707,,,-1,-1,,,,,1
6509ced499369f98b2c27874,jn3qjpiyvp,Ex2A_Prolific,1,191,2024-02-27T23:58:42+00:00,16.660031080246,3,Stim_A.csv,Global.csv,Global,A,jersey,,SS8,,,117,Study,User,1.25,,Shirt,SS8,16198,,,-1,-1,,,,,1
6509ced499369f98b2c27874,jn3qjpiyvp,Ex2A_Prolific,1,192,2024-02-27T23:58:46+00:00,3.7224419116974,3,Stim_A.csv,Global.csv,Global,A,vest,,SS9,,,118,Study,User,1.25,,Shirt,SS9,3218,,,-1,-1,,,,,1
6509ced499369f98b2c27874,jn3qjpiyvp,Ex2A_Prolific,1,193,2024-02-27T23:58:49+00:00,3.8069970607758,3,Stim_A.csv,Global.csv,Global,A,cuffs,,SS10,,,119,Study,User,1.25,,Shirt,SS10,3342,,,-1,-1,,,,,1
6509ced499369f98b2c27874,jn3qjpiyvp,Ex2A_Prolific,1,194,2024-02-27T23:58:53+00:00,3.98326587677,3,Stim_A.csv,Global.csv,Global,A,tie,,SS11,,,120,Study,User,1.25,,Shirt,SS11,3537,,,-1,-1,,,,,1
6509ced499369f98b2c27874,jn3qjpiyvp,Ex2A_Prolific,1,195,2024-02-27T23:59:00+00:00,6.5064589977264,3,Stim_A.csv,Global.csv,Global,A,pocket,,SS12,,,121,Study,User,1.25,,Shirt,SS12,6054,,,-1,-1,,,,,1
6509ced499369f98b2c27874,jn3qjpiyvp,Ex2A_Prolific,1,196,2024-02-27T23:59:08+00:00,8.1222651004791,3,Stim_A.csv,Global.csv,Global,A,,,,,,0,Instruct,User,-,"You have completed this section and will now be asked to judge your ability to remember the list items you just studied. You will have four seconds to type your rating. Please click next to continue.",,Next_List1,7616,,,-1,-1,,,,,1
6509ced499369f98b2c27874,jn3qjpiyvp,Ex2A_Prolific,1,197,2024-02-27T23:59:14+00:00,5.4761490821838,3,Stim_A.csv,Global.csv,Global,A,,,,,,0,JOL_GLOBAL,5,5,"How likely are you to correctly recall each of the items you just studied?|Type your response on a scale from 0-100 and then press Enter (0 = WILL NOT REMEMBER; 100 = DEFINITELY WILL REMEMBER).",Related,JOL10,5002,,,422,477,,,,80,1
6509ced499369f98b2c27874,jn3qjpiyvp,Ex2A_Prolific,1,198,2024-02-27T23:59:38+00:00,24.429240942001,3,Stim_A.csv,Global.csv,Global,A,,,,,,0,Instruct,User,1.25,"You have completed this section. Please click next.",,Instruct166,23952,,,-1,-1,,,,,1
6509ced499369f98b2c27874,jn3qjpiyvp,Ex2A_Prolific,1,199,2024-02-28T00:00:08+00:00,30.49101805687,3,Stim_A.csv,Global.csv,Global,A,,,,,,0,FreeRecall,30,1.25,"Please type as many words as you can that begin with the letter ""N"". The computer will automatically advance to the next screen in 30 seconds.",,FILLER,30006,"not nail nape new now nasty nill null ",0,1467,26984,0,0,,,1
6509ced499369f98b2c27874,jn3qjpiyvp,Ex2A_Prolific,1,200,2024-02-28T00:00:14+00:00,5.5704779624939,3,Stim_A.csv,Global.csv,Global,A,,,,,,0,Instruct,User,4,"You have completed this section. Please click next.",,Instruct166,5082,,,-1,-1,,,,,1
6509ced499369f98b2c27874,jn3qjpiyvp,Ex2A_Prolific,1,201,2024-02-28T00:00:20+00:00,5.8970010280609,3,Stim_A.csv,Global.csv,Global,A,,,,,,0,Instruct,User,4,"You will now complete a memory test for the words you just studied. Please type as many words from the previous list as you can seperated by a comma. Spelling will not count against you and you can recall the words in any order. This test will be timed for one minute, and the computer will automatically advance once time is up. Click next when you are ready to begin.",,Instruct1666,5439,,,-1,-1,,,,,1
6509ced499369f98b2c27874,jn3qjpiyvp,Ex2A_Prolific,1,202,2024-02-28T00:01:20+00:00,60.51008105278,3,Stim_A.csv,Global.csv,Global,A,,,,,,0,FreeRecall,60,60,"Please type as many words as you can from the previous study list in any order. Please separate each word with a comma. Spelling will not count against you. This screen will automatically advance in one minute.",,RECALL_Test,60015,"blouse, jersey, vest, tie, shorts, polo, pants, button, sleeves, cuff, pocket, collar",0,465,47601,0,0,,,1
6509ced499369f98b2c27874,jn3qjpiyvp,Ex2A_Prolific,1,203,2024-02-28T00:01:23+00:00,2.7174859046936,3,Stim_A.csv,Global.csv,Global,A,,,,,,0,Instruct,User,-,"You have completed this section. Please click next.",,Instruct7,2197,,,-1,-1,,,,,1
6509ced499369f98b2c27874,jn3qjpiyvp,Ex2A_Prolific,1,204,2024-02-28T00:01:26+00:00,3.3227880001068,3,Stim_A.csv,Global.csv,Global,A,,,,,,0,Instruct,User,-,"The following screen will ask you a few questions abour your experience today. You must complete these questions to receive credit.",,Instruct8,2875,,,-1,-1,,,,,1
