Username,ID,ExperimentName,Session,Trial,Date,TimeDif,"Condition Number","Stimuli File","Order File","Condition Description","Condition Notes",Stimuli*Cue,Stimuli*Answer,Stimuli*Shuffle,"Stimuli*Stimuli Notes",Stimuli*Value,Procedure*Item,"Procedure*Trial Type","Procedure*Max Time","Procedure*Min Time",Procedure*Text,"Procedure*Procedure Notes",Procedure*Shuffle,Response*RT,Response*Response,Response*Accuracy,Response*RTfirst,Response*RTlast,Response*strictAcc,Response*lenientAcc,Response*focus,Response*Focus
65cc041f70b1949ced29d0dc,ia8i29dc5o,Ex2A_Prolific,1,1,2024-02-28T22:15:16+00:00,7.4508948326111,2,Stim_B.csv,Read.csv,Read,B,,,,,,0,Instruct,-,5,"In this section, you will be presented with a series of words. Please study each word carefully. Your memory will be tested! Click next when you are ready to begin.",Initial_Instruct,Instruct1,7301,,,-1,-1,,,,1
65cc041f70b1949ced29d0dc,ia8i29dc5o,Ex2A_Prolific,1,2,2024-02-28T22:15:19+00:00,3.1923410892487,2,Stim_B.csv,Read.csv,Read,B,,,,,,0,Instruct,User,-,"You will now begin the study. Click next when you are ready to begin.",,Instruct16,3035,,,-1,-1,,,,1
65cc041f70b1949ced29d0dc,ia8i29dc5o,Ex2A_Prolific,1,3,2024-02-28T22:15:22+00:00,2.3404409885406,2,Stim_B.csv,Read.csv,Read,B,aroma,,Win_1,,,2,Study,User,1.25,,Window,Win_1,2178,,,-1,-1,,,,1
65cc041f70b1949ced29d0dc,ia8i29dc5o,Ex2A_Prolific,1,4,2024-02-28T22:15:23+00:00,1.6526310443878,2,Stim_B.csv,Read.csv,Read,B,scent,,Win_2,,,3,Study,User,1.25,,Window,Win_2,1497,,,-1,-1,,,,1
65cc041f70b1949ced29d0dc,ia8i29dc5o,Ex2A_Prolific,1,5,2024-02-28T22:15:26+00:00,2.5513620376587,2,Stim_B.csv,Read.csv,Read,B,whiff,,Win_3,,,4,Study,User,1.25,,Window,Win_3,2411,,,-1,-1,,,,1
65cc041f70b1949ced29d0dc,ia8i29dc5o,Ex2A_Prolific,1,6,2024-02-28T22:15:28+00:00,2.2713258266449,2,Stim_B.csv,Read.csv,Read,B,stench,,Win_4,,,5,Study,User,1.25,,Window,Win_4,2105,,,-1,-1,,,,1
65cc041f70b1949ced29d0dc,ia8i29dc5o,Ex2A_Prolific,1,7,2024-02-28T22:15:30+00:00,1.545627117157,2,Stim_B.csv,Read.csv,Read,B,reek,,Win_5,,,6,Study,User,1.25,,Window,Win_5,1388,,,-1,-1,,,,1
65cc041f70b1949ced29d0dc,ia8i29dc5o,Ex2A_Prolific,1,8,2024-02-28T22:15:31+00:00,1.7358009815216,2,Stim_B.csv,Read.csv,Read,B,sniff,,Win_6,,,7,Study,User,1.25,,Window,Win_6,1575,,,-1,-1,,,,1
65cc041f70b1949ced29d0dc,ia8i29dc5o,Ex2A_Prolific,1,9,2024-02-28T22:15:34+00:00,2.1357438564301,2,Stim_B.csv,Read.csv,Read,B,perfume,,Win_7,,,8,Study,User,1.25,,Window,Win_7,1978,,,-1,-1,,,,1
65cc041f70b1949ced29d0dc,ia8i29dc5o,Ex2A_Prolific,1,10,2024-02-28T22:15:35+00:00,1.65274310112,2,Stim_B.csv,Read.csv,Read,B,fragrance,,Win_8,,,9,Study,User,1.25,,Window,Win_8,1493,,,-1,-1,,,,1
65cc041f70b1949ced29d0dc,ia8i29dc5o,Ex2A_Prolific,1,11,2024-02-28T22:15:39+00:00,3.8700420856476,2,Stim_B.csv,Read.csv,Read,B,nose,,Win_9,,,10,Study,User,1.25,,Window,Win_9,3711,,,-1,-1,,,,1
65cc041f70b1949ced29d0dc,ia8i29dc5o,Ex2A_Prolific,1,12,2024-02-28T22:15:41+00:00,2.3948349952698,2,Stim_B.csv,Read.csv,Read,B,rose,,Win_10,,,11,Study,User,1.25,,Window,Win_10,2243,,,-1,-1,,,,1
65cc041f70b1949ced29d0dc,ia8i29dc5o,Ex2A_Prolific,1,13,2024-02-28T22:15:44+00:00,2.2909429073334,2,Stim_B.csv,Read.csv,Read,B,salts,,Win_11,,,12,Study,User,1.25,,Window,Win_11,2127,,,-1,-1,,,,1
65cc041f70b1949ced29d0dc,ia8i29dc5o,Ex2A_Prolific,1,14,2024-02-28T22:15:46+00:00,2.407210111618,2,Stim_B.csv,Read.csv,Read,B,breathe,,Win_12,,,13,Study,User,1.25,,Window,Win_12,2248,,,-1,-1,,,,1
65cc041f70b1949ced29d0dc,ia8i29dc5o,Ex2A_Prolific,1,15,2024-02-28T22:15:51+00:00,5.2269530296326,2,Stim_B.csv,Read.csv,Read,B,,,,,,0,Instruct,User,4,"You have completed this section. Please click next.",,Instruct166,5067,,,-1,-1,,,,1
65cc041f70b1949ced29d0dc,ia8i29dc5o,Ex2A_Prolific,1,16,2024-02-28T22:16:22+00:00,30.173395872116,2,Stim_B.csv,Read.csv,Read,B,,,,,,0,FreeRecall,30,30,"Please type as many words as you can that begin with the letter ""K"". The computer will automatically advance to the next screen in 30 seconds.",,FILLER,30004,,0,-1,-1,0,0,,1
65cc041f70b1949ced29d0dc,ia8i29dc5o,Ex2A_Prolific,1,17,2024-02-28T22:16:24+00:00,2.3568830490112,2,Stim_B.csv,Read.csv,Read,B,,,,,,0,Instruct,User,-,"You have completed this section. Please click next.",,Instruct166,2201,,,-1,-1,,,,1
65cc041f70b1949ced29d0dc,ia8i29dc5o,Ex2A_Prolific,1,18,2024-02-28T22:16:39+00:00,15.208422899246,2,Stim_B.csv,Read.csv,Read,B,,,,,,0,Instruct,User,4,"You will now complete a memory test for the words you just studied. Please type as many words from the previous list as you can seperated by a comma. Spelling will not count against you and you can recall the words in any order. This test will be timed for one minute, and the computer will automatically advance once time is up. Click next when you are ready to begin.",,Instruct1666,15055,,,-1,-1,,,,1
65cc041f70b1949ced29d0dc,ia8i29dc5o,Ex2A_Prolific,1,19,2024-02-28T22:17:39+00:00,60.168184995651,2,Stim_B.csv,Read.csv,Read,B,,,,,,0,FreeRecall,60,60,"Please type as many words as you can from the previous study list in any order. Please separate each word with a comma. Spelling will not count against you. This screen will automatically advance in one minute.",,RECALL_Test,60005,"aroma, scent, perfume, fragrance, nose, rose, sniff, whiff",0,1997,18116,0,0,,1
65cc041f70b1949ced29d0dc,ia8i29dc5o,Ex2A_Prolific,1,20,2024-02-28T22:17:44+00:00,4.3973031044006,2,Stim_B.csv,Read.csv,Read,B,,,,,,0,Instruct,User,3,"You will now be presented with a new study list. Click next when you are ready to begin.",,NEXT_LIST,4231,,,-1,-1,,,,1
65cc041f70b1949ced29d0dc,ia8i29dc5o,Ex2A_Prolific,1,21,2024-02-28T22:17:58+00:00,13.804986000061,2,Stim_B.csv,Read.csv,Read,B,hard,,R1,,,14,Study,User,1.25,,Rough,R1,13643,,,-1,-1,,,,1
65cc041f70b1949ced29d0dc,ia8i29dc5o,Ex2A_Prolific,1,22,2024-02-28T22:18:00+00:00,2.389456987381,2,Stim_B.csv,Read.csv,Read,B,loud,,R2,,,15,Study,User,1.25,,Rough,R2,2239,,,-1,-1,,,,1
65cc041f70b1949ced29d0dc,ia8i29dc5o,Ex2A_Prolific,1,23,2024-02-28T22:18:03+00:00,2.6399319171906,2,Stim_B.csv,Read.csv,Read,B,tender,,R3,,,16,Study,User,1.25,,Rough,R3,2482,,,-1,-1,,,,1
65cc041f70b1949ced29d0dc,ia8i29dc5o,Ex2A_Prolific,1,24,2024-02-28T22:18:05+00:00,2.339723110199,2,Stim_B.csv,Read.csv,Read,B,fluffy,,R4,,,17,Study,User,1.25,,Rough,R4,2173,,,-1,-1,,,,1
65cc041f70b1949ced29d0dc,ia8i29dc5o,Ex2A_Prolific,1,25,2024-02-28T22:18:07+00:00,2.376935005188,2,Stim_B.csv,Read.csv,Read,B,pillow,,R5,,,18,Study,User,1.25,,Rough,R5,2220,,,-1,-1,,,,1
65cc041f70b1949ced29d0dc,ia8i29dc5o,Ex2A_Prolific,1,26,2024-02-28T22:18:10+00:00,2.8601548671722,2,Stim_B.csv,Read.csv,Read,B,downy,,R6,,,19,Study,User,1.25,,Rough,R6,2705,,,-1,-1,,,,1
65cc041f70b1949ced29d0dc,ia8i29dc5o,Ex2A_Prolific,1,27,2024-02-28T22:18:13+00:00,2.5248951911926,2,Stim_B.csv,Read.csv,Read,B,plush,,R7,,,20,Study,User,1.25,,Rough,R7,2362,,,-1,-1,,,,1
65cc041f70b1949ced29d0dc,ia8i29dc5o,Ex2A_Prolific,1,28,2024-02-28T22:18:15+00:00,2.3911437988281,2,Stim_B.csv,Read.csv,Read,B,cotton,,R8,,,21,Study,User,1.25,,Rough,R8,2234,,,-1,-1,,,,1
65cc041f70b1949ced29d0dc,ia8i29dc5o,Ex2A_Prolific,1,29,2024-02-28T22:18:17+00:00,2.3815610408783,2,Stim_B.csv,Read.csv,Read,B,skin,,R9,,,22,Study,User,1.25,,Rough,R9,2227,,,-1,-1,,,,1
65cc041f70b1949ced29d0dc,ia8i29dc5o,Ex2A_Prolific,1,30,2024-02-28T22:18:20+00:00,2.8830330371857,2,Stim_B.csv,Read.csv,Read,B,fur,,R10,,,23,Study,User,1.25,,Rough,R10,2723,,,-1,-1,,,,1
65cc041f70b1949ced29d0dc,ia8i29dc5o,Ex2A_Prolific,1,31,2024-02-28T22:18:23+00:00,2.6333250999451,2,Stim_B.csv,Read.csv,Read,B,touch,,R11,,,24,Study,User,1.25,,Rough,R11,2469,,,-1,-1,,,,1
65cc041f70b1949ced29d0dc,ia8i29dc5o,Ex2A_Prolific,1,32,2024-02-28T22:18:26+00:00,2.7958488464355,2,Stim_B.csv,Read.csv,Read,B,furry,,R12,,,25,Study,User,1.25,,Rough,R12,2639,,,-1,-1,,,,1
65cc041f70b1949ced29d0dc,ia8i29dc5o,Ex2A_Prolific,1,33,2024-02-28T22:18:30+00:00,4.1420760154724,2,Stim_B.csv,Read.csv,Read,B,,,,,,0,Instruct,User,-,"You have completed this section. Please click next.",,Instruct166,3978,,,-1,-1,,,,1
65cc041f70b1949ced29d0dc,ia8i29dc5o,Ex2A_Prolific,1,34,2024-02-28T22:19:00+00:00,30.161740064621,2,Stim_B.csv,Read.csv,Read,B,,,,,,0,FreeRecall,30,30,"Please type as many words as you can that begin with the letter ""K"". The computer will automatically advance to the next screen in 30 seconds.",,FILLER,30002,,0,-1,-1,0,0,,1
65cc041f70b1949ced29d0dc,ia8i29dc5o,Ex2A_Prolific,1,35,2024-02-28T22:19:05+00:00,5.464457988739,2,Stim_B.csv,Read.csv,Read,B,,,,,,0,Instruct,User,4,"You have completed this section. Please click next.",,Instruct166,5305,,,-1,-1,,,,1
65cc041f70b1949ced29d0dc,ia8i29dc5o,Ex2A_Prolific,1,36,2024-02-28T22:19:13+00:00,7.8435480594635,2,Stim_B.csv,Read.csv,Read,B,,,,,,0,Instruct,User,4,"You will now complete a memory test for the words you just studied. Please type as many words from the previous list as you can seperated by a comma. Spelling will not count against you and you can recall the words in any order. This test will be timed for one minute, and the computer will automatically advance once time is up. Click next when you are ready to begin.",,Instruct1666,7679,,,-1,-1,,,,1
65cc041f70b1949ced29d0dc,ia8i29dc5o,Ex2A_Prolific,1,37,2024-02-28T22:20:13+00:00,60.162763834,2,Stim_B.csv,Read.csv,Read,B,,,,,,0,FreeRecall,60,60,"Please type as many words as you can from the previous study list in any order. Please separate each word with a comma. Spelling will not count against you. This screen will automatically advance in one minute.",,RECALL_Test,60001,"fluffy, skin, hard, furry, touch, loud, pillow, plush, cotton, fur",0,4848,53985,0,0,,1
65cc041f70b1949ced29d0dc,ia8i29dc5o,Ex2A_Prolific,1,38,2024-02-28T22:20:17+00:00,3.8136641979218,2,Stim_B.csv,Read.csv,Read,B,,,,,,0,Instruct,User,3,"You will now be presented with a new study list. Click next when you are ready to begin.",,NEXT_LIST,3621,,,-1,-1,,,,1
65cc041f70b1949ced29d0dc,ia8i29dc5o,Ex2A_Prolific,1,39,2024-02-28T22:20:30+00:00,12.98717880249,2,Stim_B.csv,Read.csv,Read,B,honey,,A1,,,26,Study,User,1.25,,Anger,A1,12820,,,-1,-1,,,,1
65cc041f70b1949ced29d0dc,ia8i29dc5o,Ex2A_Prolific,1,40,2024-02-28T22:20:33+00:00,2.4990711212158,2,Stim_B.csv,Read.csv,Read,B,bitter,,A2,,,27,Study,User,1.25,,Anger,A2,2341,,,-1,-1,,,,1
65cc041f70b1949ced29d0dc,ia8i29dc5o,Ex2A_Prolific,1,41,2024-02-28T22:20:35+00:00,2.194561958313,2,Stim_B.csv,Read.csv,Read,B,sugar,,A3,,,28,Study,User,1.25,,Anger,A3,2030,,,-1,-1,,,,1
65cc041f70b1949ced29d0dc,ia8i29dc5o,Ex2A_Prolific,1,42,2024-02-28T22:20:37+00:00,2.0909299850464,2,Stim_B.csv,Read.csv,Read,B,sour,,A4,,,29,Study,User,1.25,,Anger,A4,1935,,,-1,-1,,,,1
65cc041f70b1949ced29d0dc,ia8i29dc5o,Ex2A_Prolific,1,43,2024-02-28T22:20:40+00:00,2.6289939880371,2,Stim_B.csv,Read.csv,Read,B,candy,,A5,,,30,Study,User,1.25,,Anger,A5,2467,,,-1,-1,,,,1
65cc041f70b1949ced29d0dc,ia8i29dc5o,Ex2A_Prolific,1,44,2024-02-28T22:20:42+00:00,2.6015720367432,2,Stim_B.csv,Read.csv,Read,B,tart,,A6,,,31,Study,User,1.25,,Anger,A6,2432,,,-1,-1,,,,1
65cc041f70b1949ced29d0dc,ia8i29dc5o,Ex2A_Prolific,1,45,2024-02-28T22:20:45+00:00,2.4578349590302,2,Stim_B.csv,Read.csv,Read,B,chocolate,,A7,,,32,Study,User,1.25,,Anger,A7,2294,,,-1,-1,,,,1
65cc041f70b1949ced29d0dc,ia8i29dc5o,Ex2A_Prolific,1,46,2024-02-28T22:20:47+00:00,2.3914940357208,2,Stim_B.csv,Read.csv,Read,B,nice,,A8,,,33,Study,User,1.25,,Anger,A8,2232,,,-1,-1,,,,1
65cc041f70b1949ced29d0dc,ia8i29dc5o,Ex2A_Prolific,1,47,2024-02-28T22:20:50+00:00,2.7937150001526,2,Stim_B.csv,Read.csv,Read,B,taste,,A9,,,34,Study,User,1.25,,Anger,A9,2632,,,-1,-1,,,,1
65cc041f70b1949ced29d0dc,ia8i29dc5o,Ex2A_Prolific,1,48,2024-02-28T22:20:53+00:00,3.0849981307983,2,Stim_B.csv,Read.csv,Read,B,cake,,A10,,,35,Study,User,1.25,,Anger,A10,2928,,,-1,-1,,,,1
65cc041f70b1949ced29d0dc,ia8i29dc5o,Ex2A_Prolific,1,49,2024-02-28T22:20:56+00:00,2.6520988941193,2,Stim_B.csv,Read.csv,Read,B,good,,A11,,,36,Study,User,1.25,,Anger,A11,2499,,,-1,-1,,,,1
65cc041f70b1949ced29d0dc,ia8i29dc5o,Ex2A_Prolific,1,50,2024-02-28T22:20:59+00:00,3.0408639907837,2,Stim_B.csv,Read.csv,Read,B,tooth,,A12,,,37,Study,User,1.25,,Anger,A12,2885,,,-1,-1,,,,1
65cc041f70b1949ced29d0dc,ia8i29dc5o,Ex2A_Prolific,1,51,2024-02-28T22:21:00+00:00,1.6361429691315,2,Stim_B.csv,Read.csv,Read,B,,,,,,0,Instruct,User,-,"You have completed this section. Please click next.",,Instruct166,1471,,,-1,-1,,,,1
65cc041f70b1949ced29d0dc,ia8i29dc5o,Ex2A_Prolific,1,52,2024-02-28T22:21:31+00:00,30.168349981308,2,Stim_B.csv,Read.csv,Read,B,,,,,,0,FreeRecall,30,30,"Please type as many words as you can that begin with the letter ""K"". The computer will automatically advance to the next screen in 30 seconds.",,FILLER,30002,,0,-1,-1,0,0,,1
65cc041f70b1949ced29d0dc,ia8i29dc5o,Ex2A_Prolific,1,53,2024-02-28T22:21:32+00:00,1.3837630748749,2,Stim_B.csv,Read.csv,Read,B,,,,,,0,Instruct,User,-,"You have completed this section. Please click next.",,Instruct166,1220,,,-1,-1,,,,1
65cc041f70b1949ced29d0dc,ia8i29dc5o,Ex2A_Prolific,1,54,2024-02-28T22:21:37+00:00,5.5102200508118,2,Stim_B.csv,Read.csv,Read,B,,,,,,0,Instruct,User,4,"You will now complete a memory test for the words you just studied. Please type as many words from the previous list as you can seperated by a comma. Spelling will not count against you and you can recall the words in any order. This test will be timed for one minute, and the computer will automatically advance once time is up. Click next when you are ready to begin.",,Instruct1666,5353,,,-1,-1,,,,1
65cc041f70b1949ced29d0dc,ia8i29dc5o,Ex2A_Prolific,1,55,2024-02-28T22:22:38+00:00,60.168182849884,2,Stim_B.csv,Read.csv,Read,B,,,,,,0,FreeRecall,60,60,"Please type as many words as you can from the previous study list in any order. Please separate each word with a comma. Spelling will not count against you. This screen will automatically advance in one minute.",,RECALL_Test,60004,"honey, bitter, sugar, sour, chocolate, tart, candy, nice, taste",0,1565,28545,0,0,,1
65cc041f70b1949ced29d0dc,ia8i29dc5o,Ex2A_Prolific,1,56,2024-02-28T22:23:28+00:00,50.784342050552,2,Stim_B.csv,Read.csv,Read,B,,,,,,0,Instruct,User,3,"You will now be presented with a new study list. Click next when you are ready to begin.",,NEXT_LIST,50622,,,-1,-1,,,,1
65cc041f70b1949ced29d0dc,ia8i29dc5o,Ex2A_Prolific,1,57,2024-02-28T22:23:38+00:00,10.069637060165,2,Stim_B.csv,Read.csv,Read,B,table,,T1,,,38,Study,User,1.25,,Trash,T1,9905,,,-1,-1,,,,1
65cc041f70b1949ced29d0dc,ia8i29dc5o,Ex2A_Prolific,1,58,2024-02-28T22:23:41+00:00,2.2476010322571,2,Stim_B.csv,Read.csv,Read,B,swivel,,T2,,,39,Study,User,1.25,,Trash,T2,2114,,,-1,-1,,,,1
65cc041f70b1949ced29d0dc,ia8i29dc5o,Ex2A_Prolific,1,59,2024-02-28T22:23:43+00:00,2.3649139404297,2,Stim_B.csv,Read.csv,Read,B,rocking,,T3,,,40,Study,User,1.25,,Trash,T3,2244,,,-1,-1,,,,1
65cc041f70b1949ced29d0dc,ia8i29dc5o,Ex2A_Prolific,1,60,2024-02-28T22:23:45+00:00,2.3980510234833,2,Stim_B.csv,Read.csv,Read,B,recliner,,T4,,,41,Study,User,1.25,,Trash,T4,2271,,,-1,-1,,,,1
65cc041f70b1949ced29d0dc,ia8i29dc5o,Ex2A_Prolific,1,61,2024-02-28T22:23:48+00:00,2.2306849956512,2,Stim_B.csv,Read.csv,Read,B,seat,,T5,,,42,Study,User,1.25,,Trash,T5,2098,,,-1,-1,,,,1
65cc041f70b1949ced29d0dc,ia8i29dc5o,Ex2A_Prolific,1,62,2024-02-28T22:23:50+00:00,2.4366629123688,2,Stim_B.csv,Read.csv,Read,B,stool,,T6,,,43,Study,User,1.25,,Trash,T6,2307,,,-1,-1,,,,1
65cc041f70b1949ced29d0dc,ia8i29dc5o,Ex2A_Prolific,1,63,2024-02-28T22:23:52+00:00,2.2796790599823,2,Stim_B.csv,Read.csv,Read,B,desk,,T7,,,44,Study,User,1.25,,Trash,T7,2156,,,-1,-1,,,,1
65cc041f70b1949ced29d0dc,ia8i29dc5o,Ex2A_Prolific,1,64,2024-02-28T22:23:55+00:00,2.355082988739,2,Stim_B.csv,Read.csv,Read,B,couch,,T8,,,45,Study,User,1.25,,Trash,T8,2229,,,-1,-1,,,,1
65cc041f70b1949ced29d0dc,ia8i29dc5o,Ex2A_Prolific,1,65,2024-02-28T22:23:57+00:00,2.5451600551605,2,Stim_B.csv,Read.csv,Read,B,sit,,T9,,,46,Study,User,1.25,,Trash,T9,2422,,,-1,-1,,,,1
65cc041f70b1949ced29d0dc,ia8i29dc5o,Ex2A_Prolific,1,66,2024-02-28T22:24:00+00:00,2.699569940567,2,Stim_B.csv,Read.csv,Read,B,sofa,,T10,,,47,Study,User,1.25,,Trash,T10,2574,,,-1,-1,,,,1
65cc041f70b1949ced29d0dc,ia8i29dc5o,Ex2A_Prolific,1,67,2024-02-28T22:24:02+00:00,2.1892669200897,2,Stim_B.csv,Read.csv,Read,B,bench,,T11,,,48,Study,User,1.25,,Trash,T11,2059,,,-1,-1,,,,1
65cc041f70b1949ced29d0dc,ia8i29dc5o,Ex2A_Prolific,1,68,2024-02-28T22:24:05+00:00,2.4774429798126,2,Stim_B.csv,Read.csv,Read,B,sitting,,T12,,,49,Study,User,1.25,,Trash,T12,2355,,,-1,-1,,,,1
65cc041f70b1949ced29d0dc,ia8i29dc5o,Ex2A_Prolific,1,69,2024-02-28T22:24:10+00:00,5.1075642108917,2,Stim_B.csv,Read.csv,Read,B,,,,,,0,Instruct,User,4,"You have completed this section. Please click next.",,Instruct166,4978,,,-1,-1,,,,1
65cc041f70b1949ced29d0dc,ia8i29dc5o,Ex2A_Prolific,1,70,2024-02-28T22:24:40+00:00,30.141367912292,2,Stim_B.csv,Read.csv,Read,B,,,,,,0,FreeRecall,30,30,"Please type as many words as you can that begin with the letter ""K"". The computer will automatically advance to the next screen in 30 seconds.",,FILLER,30003,,0,-1,-1,0,0,,1
65cc041f70b1949ced29d0dc,ia8i29dc5o,Ex2A_Prolific,1,71,2024-02-28T22:24:42+00:00,1.9551730155945,2,Stim_B.csv,Read.csv,Read,B,,,,,,0,Instruct,User,-,"You have completed this section. Please click next.",,Instruct166,1826,,,-1,-1,,,,1
65cc041f70b1949ced29d0dc,ia8i29dc5o,Ex2A_Prolific,1,72,2024-02-28T22:24:47+00:00,4.7884509563446,2,Stim_B.csv,Read.csv,Read,B,,,,,,0,Instruct,User,4,"You will now complete a memory test for the words you just studied. Please type as many words from the previous list as you can seperated by a comma. Spelling will not count against you and you can recall the words in any order. This test will be timed for one minute, and the computer will automatically advance once time is up. Click next when you are ready to begin.",,Instruct1666,4661,,,-1,-1,,,,1
65cc041f70b1949ced29d0dc,ia8i29dc5o,Ex2A_Prolific,1,73,2024-02-28T22:25:47+00:00,60.142359018326,2,Stim_B.csv,Read.csv,Read,B,,,,,,0,FreeRecall,60,60,"Please type as many words as you can from the previous study list in any order. Please separate each word with a comma. Spelling will not count against you. This screen will automatically advance in one minute.",,RECALL_Test,60002,"table, rocking, chair, bench, sitting, sit, recliner, couch, sofa, stool, desk",0,1174,48545,0,0,,1
65cc041f70b1949ced29d0dc,ia8i29dc5o,Ex2A_Prolific,1,74,2024-02-28T22:25:59+00:00,12.579121112823,2,Stim_B.csv,Read.csv,Read,B,,,,,,0,Instruct,User,3,"You will now be presented with a new study list. Click next when you are ready to begin.",,NEXT_LIST,12408,,,-1,-1,,,,1
65cc041f70b1949ced29d0dc,ia8i29dc5o,Ex2A_Prolific,1,75,2024-02-28T22:26:09+00:00,9.7988739013672,2,Stim_B.csv,Read.csv,Read,B,climber,,D1,,,50,Study,User,1.25,,Doctor,D1,9634,,,-1,-1,,,,1
65cc041f70b1949ced29d0dc,ia8i29dc5o,Ex2A_Prolific,1,76,2024-02-28T22:26:12+00:00,2.5160539150238,2,Stim_B.csv,Read.csv,Read,B,hill,,D2,,,51,Study,User,1.25,,Doctor,D2,2358,,,-1,-1,,,,1
65cc041f70b1949ced29d0dc,ia8i29dc5o,Ex2A_Prolific,1,77,2024-02-28T22:26:14+00:00,2.5001001358032,2,Stim_B.csv,Read.csv,Read,B,climb,,D3,,,52,Study,User,1.25,,Doctor,D3,2339,,,-1,-1,,,,1
65cc041f70b1949ced29d0dc,ia8i29dc5o,Ex2A_Prolific,1,78,2024-02-28T22:26:17+00:00,2.5353729724884,2,Stim_B.csv,Read.csv,Read,B,molehill,,D4,,,53,Study,User,1.25,,Doctor,D4,2374,,,-1,-1,,,,1
65cc041f70b1949ced29d0dc,ia8i29dc5o,Ex2A_Prolific,1,79,2024-02-28T22:26:19+00:00,2.4037289619446,2,Stim_B.csv,Read.csv,Read,B,peak,,D5,,,54,Study,User,1.25,,Doctor,D5,2247,,,-1,-1,,,,1
65cc041f70b1949ced29d0dc,ia8i29dc5o,Ex2A_Prolific,1,80,2024-02-28T22:26:22+00:00,2.4818670749664,2,Stim_B.csv,Read.csv,Read,B,valley,,D6,,,55,Study,User,1.25,,Doctor,D6,2314,,,-1,-1,,,,1
65cc041f70b1949ced29d0dc,ia8i29dc5o,Ex2A_Prolific,1,81,2024-02-28T22:26:24+00:00,2.5081379413605,2,Stim_B.csv,Read.csv,Read,B,summit,,D7,,,56,Study,User,1.25,,Doctor,D7,2351,,,-1,-1,,,,1
65cc041f70b1949ced29d0dc,ia8i29dc5o,Ex2A_Prolific,1,82,2024-02-28T22:26:27+00:00,3.0237329006195,2,Stim_B.csv,Read.csv,Read,B,steep,,D8,,,57,Study,User,1.25,,Doctor,D8,2864,,,-1,-1,,,,1
65cc041f70b1949ced29d0dc,ia8i29dc5o,Ex2A_Prolific,1,83,2024-02-28T22:26:30+00:00,2.9243371486664,2,Stim_B.csv,Read.csv,Read,B,ski,,D9,,,58,Study,User,1.25,,Doctor,D9,2761,,,-1,-1,,,,1
65cc041f70b1949ced29d0dc,ia8i29dc5o,Ex2A_Prolific,1,84,2024-02-28T22:26:33+00:00,2.4991149902344,2,Stim_B.csv,Read.csv,Read,B,bike,,D10,,,59,Study,User,1.25,,Doctor,D10,2333,,,-1,-1,,,,1
65cc041f70b1949ced29d0dc,ia8i29dc5o,Ex2A_Prolific,1,85,2024-02-28T22:26:35+00:00,2.2408599853516,2,Stim_B.csv,Read.csv,Read,B,goat,,D11,,,60,Study,User,1.25,,Doctor,D11,2086,,,-1,-1,,,,1
65cc041f70b1949ced29d0dc,ia8i29dc5o,Ex2A_Prolific,1,86,2024-02-28T22:26:38+00:00,2.9489650726318,2,Stim_B.csv,Read.csv,Read,B,glacier,,D12,,,61,Study,User,1.25,,Doctor,D12,2781,,,-1,-1,,,,1
65cc041f70b1949ced29d0dc,ia8i29dc5o,Ex2A_Prolific,1,87,2024-02-28T22:26:39+00:00,1.7066748142242,2,Stim_B.csv,Read.csv,Read,B,,,,,,0,Instruct,User,-,"You have completed this section. Please click next.",,Instruct166,1549,,,-1,-1,,,,1
65cc041f70b1949ced29d0dc,ia8i29dc5o,Ex2A_Prolific,1,88,2024-02-28T22:27:10+00:00,30.165817022324,2,Stim_B.csv,Read.csv,Read,B,,,,,,0,FreeRecall,30,30,"Please type as many words as you can that begin with the letter ""K"". The computer will automatically advance to the next screen in 30 seconds.",,FILLER,30002,,0,-1,-1,0,0,,1
65cc041f70b1949ced29d0dc,ia8i29dc5o,Ex2A_Prolific,1,89,2024-02-28T22:27:15+00:00,4.9460489749908,2,Stim_B.csv,Read.csv,Read,B,,,,,,0,Instruct,User,4,"You have completed this section. Please click next.",,Instruct166,4784,,,-1,-1,,,,1
65cc041f70b1949ced29d0dc,ia8i29dc5o,Ex2A_Prolific,1,90,2024-02-28T22:27:19+00:00,4.8182220458984,2,Stim_B.csv,Read.csv,Read,B,,,,,,0,Instruct,User,4,"You will now complete a memory test for the words you just studied. Please type as many words from the previous list as you can seperated by a comma. Spelling will not count against you and you can recall the words in any order. This test will be timed for one minute, and the computer will automatically advance once time is up. Click next when you are ready to begin.",,Instruct1666,4659,,,-1,-1,,,,1
65cc041f70b1949ced29d0dc,ia8i29dc5o,Ex2A_Prolific,1,91,2024-02-28T22:28:20+00:00,60.183659076691,2,Stim_B.csv,Read.csv,Read,B,,,,,,0,FreeRecall,60,60,"Please type as many words as you can from the previous study list in any order. Please separate each word with a comma. Spelling will not count against you. This screen will automatically advance in one minute.",,RECALL_Test,60004,"climber, hill, climb, molehill, ski, bike, peak, valley, summit, goat",0,2525,53533,0,0,,1
65cc041f70b1949ced29d0dc,ia8i29dc5o,Ex2A_Prolific,1,92,2024-02-28T22:28:25+00:00,5.2568199634552,2,Stim_B.csv,Read.csv,Read,B,,,,,,0,Instruct,User,3,"You will now be presented with a new study list. Click next when you are ready to begin.",,NEXT_LIST,5093,,,-1,-1,,,,1
65cc041f70b1949ced29d0dc,ia8i29dc5o,Ex2A_Prolific,1,93,2024-02-28T22:28:32+00:00,7.6520330905914,2,Stim_B.csv,Read.csv,Read,B,band,,S1,,,62,Study,User,1.25,,Slow,S1,7486,,,-1,-1,,,,1
65cc041f70b1949ced29d0dc,ia8i29dc5o,Ex2A_Prolific,1,94,2024-02-28T22:28:35+00:00,2.7414298057556,2,Stim_B.csv,Read.csv,Read,B,concert,,S2,,,63,Study,User,1.25,,Slow,S2,2579,,,-1,-1,,,,1
65cc041f70b1949ced29d0dc,ia8i29dc5o,Ex2A_Prolific,1,95,2024-02-28T22:28:38+00:00,2.6205160617828,2,Stim_B.csv,Read.csv,Read,B,jazz,,S3,,,64,Study,User,1.25,,Slow,S3,2462,,,-1,-1,,,,1
65cc041f70b1949ced29d0dc,ia8i29dc5o,Ex2A_Prolific,1,96,2024-02-28T22:28:41+00:00,2.7691991329193,2,Stim_B.csv,Read.csv,Read,B,symphony,,S4,,,65,Study,User,1.25,,Slow,S4,2604,,,-1,-1,,,,1
65cc041f70b1949ced29d0dc,ia8i29dc5o,Ex2A_Prolific,1,97,2024-02-28T22:28:43+00:00,2.3729119300842,2,Stim_B.csv,Read.csv,Read,B,orchestra,,S5,,,66,Study,User,1.25,,Slow,S5,2216,,,-1,-1,,,,1
65cc041f70b1949ced29d0dc,ia8i29dc5o,Ex2A_Prolific,1,98,2024-02-28T22:28:45+00:00,2.3760340213776,2,Stim_B.csv,Read.csv,Read,B,rhythm,,S6,,,67,Study,User,1.25,,Slow,S6,2218,,,-1,-1,,,,1
65cc041f70b1949ced29d0dc,ia8i29dc5o,Ex2A_Prolific,1,99,2024-02-28T22:28:48+00:00,2.3638038635254,2,Stim_B.csv,Read.csv,Read,B,radio,,S7,,,68,Study,User,1.25,,Slow,S7,2198,,,-1,-1,,,,1
65cc041f70b1949ced29d0dc,ia8i29dc5o,Ex2A_Prolific,1,100,2024-02-28T22:28:51+00:00,3.4360830783844,2,Stim_B.csv,Read.csv,Read,B,melody,,S8,,,69,Study,User,1.25,,Slow,S8,3274,,,-1,-1,,,,1
65cc041f70b1949ced29d0dc,ia8i29dc5o,Ex2A_Prolific,1,101,2024-02-28T22:28:54+00:00,2.8952369689941,2,Stim_B.csv,Read.csv,Read,B,piano,,S9,,,70,Study,User,1.25,,Slow,S9,2737,,,-1,-1,,,,1
65cc041f70b1949ced29d0dc,ia8i29dc5o,Ex2A_Prolific,1,102,2024-02-28T22:28:57+00:00,2.9480690956116,2,Stim_B.csv,Read.csv,Read,B,sound,,S10,,,71,Study,User,1.25,,Slow,S10,2802,,,-1,-1,,,,1
65cc041f70b1949ced29d0dc,ia8i29dc5o,Ex2A_Prolific,1,103,2024-02-28T22:29:00+00:00,2.5914349555969,2,Stim_B.csv,Read.csv,Read,B,instrument,,S11,,,72,Study,User,1.25,,Slow,S11,2415,,,-1,-1,,,,1
65cc041f70b1949ced29d0dc,ia8i29dc5o,Ex2A_Prolific,1,104,2024-02-28T22:29:02+00:00,2.6824049949646,2,Stim_B.csv,Read.csv,Read,B,note,,S12,,,73,Study,User,1.25,,Slow,S12,2522,,,-1,-1,,,,1
65cc041f70b1949ced29d0dc,ia8i29dc5o,Ex2A_Prolific,1,105,2024-02-28T22:29:08+00:00,5.7041120529175,2,Stim_B.csv,Read.csv,Read,B,,,,,,0,Instruct,User,4,"You have completed this section. Please click next.",,Instruct166,5541,,,-1,-1,,,,1
65cc041f70b1949ced29d0dc,ia8i29dc5o,Ex2A_Prolific,1,106,2024-02-28T22:29:38+00:00,30.174511909485,2,Stim_B.csv,Read.csv,Read,B,,,,,,0,FreeRecall,30,30,"Please type as many words as you can that begin with the letter ""K"". The computer will automatically advance to the next screen in 30 seconds.",,FILLER,30003,,0,-1,-1,0,0,,1
65cc041f70b1949ced29d0dc,ia8i29dc5o,Ex2A_Prolific,1,107,2024-02-28T22:31:14+00:00,96.090100049973,2,Stim_B.csv,Read.csv,Read,B,,,,,,0,Instruct,User,-,"You have completed this section. Please click next.",,Instruct166,95845,,,-1,-1,,,,1
65cc041f70b1949ced29d0dc,ia8i29dc5o,Ex2A_Prolific,1,108,2024-02-28T22:31:25+00:00,11.004992008209,2,Stim_B.csv,Read.csv,Read,B,,,,,,0,Instruct,User,4,"You will now complete a memory test for the words you just studied. Please type as many words from the previous list as you can seperated by a comma. Spelling will not count against you and you can recall the words in any order. This test will be timed for one minute, and the computer will automatically advance once time is up. Click next when you are ready to begin.",,Instruct1666,10839,,,-1,-1,,,,1
65cc041f70b1949ced29d0dc,ia8i29dc5o,Ex2A_Prolific,1,109,2024-02-28T22:32:25+00:00,60.160594940186,2,Stim_B.csv,Read.csv,Read,B,,,,,,0,FreeRecall,60,60,"Please type as many words as you can from the previous study list in any order. Please separate each word with a comma. Spelling will not count against you. This screen will automatically advance in one minute.",,RECALL_Test,60003,"band, concert, sound, note, symphony, melody, orchestra, rhythm,",0,1296,31093,0,0,,1
65cc041f70b1949ced29d0dc,ia8i29dc5o,Ex2A_Prolific,1,110,2024-02-28T22:32:40+00:00,14.09197306633,2,Stim_B.csv,Read.csv,Read,B,,,,,,0,Instruct,User,3,"You will now be presented with a new study list. Click next when you are ready to begin.",,NEXT_LIST,13927,,,-1,-1,,,,1
65cc041f70b1949ced29d0dc,ia8i29dc5o,Ex2A_Prolific,1,111,2024-02-28T22:32:42+00:00,2.1665668487549,2,Stim_B.csv,Read.csv,Read,B,foam,,RR1,,,74,Study,User,1.25,,River,RR1,2016,,,-1,-1,,,,1
65cc041f70b1949ced29d0dc,ia8i29dc5o,Ex2A_Prolific,1,112,2024-02-28T22:32:44+00:00,1.9381430149078,2,Stim_B.csv,Read.csv,Read,B,latex,,RR2,,,75,Study,User,1.25,,River,RR2,1779,,,-1,-1,,,,1
65cc041f70b1949ced29d0dc,ia8i29dc5o,Ex2A_Prolific,1,113,2024-02-28T22:32:46+00:00,2.7712111473083,2,Stim_B.csv,Read.csv,Read,B,galoshes,,RR3,,,76,Study,User,1.25,,River,RR3,2620,,,-1,-1,,,,1
65cc041f70b1949ced29d0dc,ia8i29dc5o,Ex2A_Prolific,1,114,2024-02-28T22:32:49+00:00,2.6479549407959,2,Stim_B.csv,Read.csv,Read,B,tire,,RR4,,,77,Study,User,1.25,,River,RR4,2489,,,-1,-1,,,,1
65cc041f70b1949ced29d0dc,ia8i29dc5o,Ex2A_Prolific,1,115,2024-02-28T22:32:52+00:00,2.5993790626526,2,Stim_B.csv,Read.csv,Read,B,flexible,,RR5,,,78,Study,User,1.25,,River,RR5,2439,,,-1,-1,,,,1
65cc041f70b1949ced29d0dc,ia8i29dc5o,Ex2A_Prolific,1,116,2024-02-28T22:32:54+00:00,2.8292429447174,2,Stim_B.csv,Read.csv,Read,B,elastic,,RR6,,,79,Study,User,1.25,,River,RR6,2670,,,-1,-1,,,,1
65cc041f70b1949ced29d0dc,ia8i29dc5o,Ex2A_Prolific,1,117,2024-02-28T22:32:57+00:00,2.7744450569153,2,Stim_B.csv,Read.csv,Read,B,gloves,,RR7,,,80,Study,User,1.25,,River,RR7,2621,,,-1,-1,,,,1
65cc041f70b1949ced29d0dc,ia8i29dc5o,Ex2A_Prolific,1,118,2024-02-28T22:33:00+00:00,2.5272099971771,2,Stim_B.csv,Read.csv,Read,B,eraser,,RR8,,,81,Study,User,1.25,,River,RR8,2359,,,-1,-1,,,,1
65cc041f70b1949ced29d0dc,ia8i29dc5o,Ex2A_Prolific,1,119,2024-02-28T22:33:03+00:00,3.3438289165497,2,Stim_B.csv,Read.csv,Read,B,bounce,,RR9,,,82,Study,User,1.25,,River,RR9,3188,,,-1,-1,,,,1
65cc041f70b1949ced29d0dc,ia8i29dc5o,Ex2A_Prolific,1,120,2024-02-28T22:33:06+00:00,3.0248780250549,2,Stim_B.csv,Read.csv,Read,B,ball,,RR10,,,83,Study,User,1.25,,River,RR10,2869,,,-1,-1,,,,1
65cc041f70b1949ced29d0dc,ia8i29dc5o,Ex2A_Prolific,1,121,2024-02-28T22:33:09+00:00,2.5281310081482,2,Stim_B.csv,Read.csv,Read,B,soles,,RR11,,,84,Study,User,1.25,,River,RR11,2363,,,-1,-1,,,,1
65cc041f70b1949ced29d0dc,ia8i29dc5o,Ex2A_Prolific,1,122,2024-02-28T22:33:11+00:00,2.2713251113892,2,Stim_B.csv,Read.csv,Read,B,springy,,RR12,,,85,Study,User,1.25,,River,RR12,2111,,,-1,-1,,,,1
65cc041f70b1949ced29d0dc,ia8i29dc5o,Ex2A_Prolific,1,123,2024-02-28T22:33:14+00:00,2.8905658721924,2,Stim_B.csv,Read.csv,Read,B,,,,,,0,Instruct,User,-,"You have completed this section. Please click next.",,Instruct166,2742,,,-1,-1,,,,1
65cc041f70b1949ced29d0dc,ia8i29dc5o,Ex2A_Prolific,1,124,2024-02-28T22:33:44+00:00,30.162987947464,2,Stim_B.csv,Read.csv,Read,B,,,,,,0,FreeRecall,30,30,"Please type as many words as you can that begin with the letter ""K"". The computer will automatically advance to the next screen in 30 seconds.",,FILLER,30006,,0,-1,-1,0,0,,1
65cc041f70b1949ced29d0dc,ia8i29dc5o,Ex2A_Prolific,1,125,2024-02-28T22:33:50+00:00,5.6964499950409,2,Stim_B.csv,Read.csv,Read,B,,,,,,0,Instruct,User,4,"You have completed this section. Please click next.",,Instruct166,5533,,,-1,-1,,,,1
65cc041f70b1949ced29d0dc,ia8i29dc5o,Ex2A_Prolific,1,126,2024-02-28T22:33:55+00:00,4.9087359905243,2,Stim_B.csv,Read.csv,Read,B,,,,,,0,Instruct,User,4,"You will now complete a memory test for the words you just studied. Please type as many words from the previous list as you can seperated by a comma. Spelling will not count against you and you can recall the words in any order. This test will be timed for one minute, and the computer will automatically advance once time is up. Click next when you are ready to begin.",,Instruct1666,4752,,,-1,-1,,,,1
65cc041f70b1949ced29d0dc,ia8i29dc5o,Ex2A_Prolific,1,127,2024-02-28T22:34:55+00:00,60.162916183472,2,Stim_B.csv,Read.csv,Read,B,,,,,,0,FreeRecall,60,60,"Please type as many words as you can from the previous study list in any order. Please separate each word with a comma. Spelling will not count against you. This screen will automatically advance in one minute.",,RECALL_Test,60002,"foam, latex, galashes, bounce, ball",0,1250,12883,0,0,,1
65cc041f70b1949ced29d0dc,ia8i29dc5o,Ex2A_Prolific,1,128,2024-02-28T22:34:59+00:00,4.0618448257446,2,Stim_B.csv,Read.csv,Read,B,,,,,,0,Instruct,User,3,"You will now be presented with a new study list. Click next when you are ready to begin.",,NEXT_LIST,3900,,,-1,-1,,,,1
65cc041f70b1949ced29d0dc,ia8i29dc5o,Ex2A_Prolific,1,129,2024-02-28T22:35:01+00:00,2.2815780639648,2,Stim_B.csv,Read.csv,Read,B,toe,,B1,,,86,Study,User,1.25,,Bread,B1,2121,,,-1,-1,,,,1
65cc041f70b1949ced29d0dc,ia8i29dc5o,Ex2A_Prolific,1,130,2024-02-28T22:35:03+00:00,2.132425069809,2,Stim_B.csv,Read.csv,Read,B,inch,,B2,,,87,Study,User,1.25,,Bread,B2,1973,,,-1,-1,,,,1
65cc041f70b1949ced29d0dc,ia8i29dc5o,Ex2A_Prolific,1,131,2024-02-28T22:35:06+00:00,2.3910908699036,2,Stim_B.csv,Read.csv,Read,B,ankle,,B3,,,88,Study,User,1.25,,Bread,B3,2232,,,-1,-1,,,,1
65cc041f70b1949ced29d0dc,ia8i29dc5o,Ex2A_Prolific,1,132,2024-02-28T22:35:08+00:00,2.4023041725159,2,Stim_B.csv,Read.csv,Read,B,shoe,,B4,,,89,Study,User,1.25,,Bread,B4,2248,,,-1,-1,,,,1
65cc041f70b1949ced29d0dc,ia8i29dc5o,Ex2A_Prolific,1,133,2024-02-28T22:35:11+00:00,2.6541938781738,2,Stim_B.csv,Read.csv,Read,B,sandals,,B5,,,90,Study,User,1.25,,Bread,B5,2491,,,-1,-1,,,,1
65cc041f70b1949ced29d0dc,ia8i29dc5o,Ex2A_Prolific,1,134,2024-02-28T22:35:14+00:00,3.5741500854492,2,Stim_B.csv,Read.csv,Read,B,sock,,B6,,,91,Study,User,1.25,,Bread,B6,3417,,,-1,-1,,,,1
65cc041f70b1949ced29d0dc,ia8i29dc5o,Ex2A_Prolific,1,135,2024-02-28T22:35:19+00:00,4.2731800079346,2,Stim_B.csv,Read.csv,Read,B,hand,,B7,,,92,Study,User,1.25,,Bread,B7,4115,,,-1,-1,,,,1
65cc041f70b1949ced29d0dc,ia8i29dc5o,Ex2A_Prolific,1,136,2024-02-28T22:35:21+00:00,2.7179429531097,2,Stim_B.csv,Read.csv,Read,B,boot,,B8,,,93,Study,User,1.25,,Bread,B8,2556,,,-1,-1,,,,1
65cc041f70b1949ced29d0dc,ia8i29dc5o,Ex2A_Prolific,1,137,2024-02-28T22:35:24+00:00,2.4631979465485,2,Stim_B.csv,Read.csv,Read,B,yard,,B9,,,94,Study,User,1.25,,Bread,B9,2311,,,-1,-1,,,,1
65cc041f70b1949ced29d0dc,ia8i29dc5o,Ex2A_Prolific,1,138,2024-02-28T22:35:27+00:00,2.8206140995026,2,Stim_B.csv,Read.csv,Read,B,kick,,B10,,,95,Study,User,1.25,,Bread,B10,2661,,,-1,-1,,,,1
65cc041f70b1949ced29d0dc,ia8i29dc5o,Ex2A_Prolific,1,139,2024-02-28T22:35:29+00:00,2.3749239444733,2,Stim_B.csv,Read.csv,Read,B,knee,,B11,,,96,Study,User,1.25,,Bread,B11,2208,,,-1,-1,,,,1
65cc041f70b1949ced29d0dc,ia8i29dc5o,Ex2A_Prolific,1,140,2024-02-28T22:35:32+00:00,2.6203739643097,2,Stim_B.csv,Read.csv,Read,B,walk,,B12,,,97,Study,User,1.25,,Bread,B12,2462,,,-1,-1,,,,1
65cc041f70b1949ced29d0dc,ia8i29dc5o,Ex2A_Prolific,1,141,2024-02-28T22:35:36+00:00,4.9503879547119,2,Stim_B.csv,Read.csv,Read,B,,,,,,0,Instruct,User,4,"You have completed this section. Please click next.",,Instruct166,4795,,,-1,-1,,,,1
65cc041f70b1949ced29d0dc,ia8i29dc5o,Ex2A_Prolific,1,142,2024-02-28T22:36:07+00:00,30.163701057434,2,Stim_B.csv,Read.csv,Read,B,,,,,,0,FreeRecall,30,30,"Please type as many words as you can that begin with the letter ""K"". The computer will automatically advance to the next screen in 30 seconds.",,FILLER,30002,,0,-1,-1,0,0,,1
65cc041f70b1949ced29d0dc,ia8i29dc5o,Ex2A_Prolific,1,143,2024-02-28T22:36:12+00:00,5.0456829071045,2,Stim_B.csv,Read.csv,Read,B,,,,,,0,Instruct,User,4,"You have completed this section. Please click next.",,Instruct166,4889,,,-1,-1,,,,1
65cc041f70b1949ced29d0dc,ia8i29dc5o,Ex2A_Prolific,1,144,2024-02-28T22:36:17+00:00,5.1148300170898,2,Stim_B.csv,Read.csv,Read,B,,,,,,0,Instruct,User,4,"You will now complete a memory test for the words you just studied. Please type as many words from the previous list as you can seperated by a comma. Spelling will not count against you and you can recall the words in any order. This test will be timed for one minute, and the computer will automatically advance once time is up. Click next when you are ready to begin.",,Instruct1666,4960,,,-1,-1,,,,1
65cc041f70b1949ced29d0dc,ia8i29dc5o,Ex2A_Prolific,1,145,2024-02-28T22:37:17+00:00,60.341430187225,2,Stim_B.csv,Read.csv,Read,B,,,,,,0,FreeRecall,60,60,"Please type as many words as you can from the previous study list in any order. Please separate each word with a comma. Spelling will not count against you. This screen will automatically advance in one minute.",,RECALL_Test,60004,"toe, boot, kick, ankle, sock, yard, hand, ",0,1607,31015,0,0,,0.993
65cc041f70b1949ced29d0dc,ia8i29dc5o,Ex2A_Prolific,1,146,2024-02-28T22:47:03+00:00,585.37521600723,2,Stim_B.csv,Read.csv,Read,B,,,,,,0,Instruct,User,3,"You will now be presented with a new study list. Click next when you are ready to begin.",,NEXT_LIST,585092,,,-1,-1,,,,0.908
65cc041f70b1949ced29d0dc,ia8i29dc5o,Ex2A_Prolific,1,147,2024-02-28T22:47:05+00:00,2.131621837616,2,Stim_B.csv,Read.csv,Read,B,boy,,F1,,,98,Study,User,1.25,,Flag,F1,1960,,,-1,-1,,,,1
65cc041f70b1949ced29d0dc,ia8i29dc5o,Ex2A_Prolific,1,148,2024-02-28T22:47:07+00:00,2.3257901668549,2,Stim_B.csv,Read.csv,Read,B,dolls,,F2,,,99,Study,User,1.25,,Flag,F2,2143,,,-1,-1,,,,1
65cc041f70b1949ced29d0dc,ia8i29dc5o,Ex2A_Prolific,1,149,2024-02-28T22:47:09+00:00,2.4280669689178,2,Stim_B.csv,Read.csv,Read,B,pretty,,F3,,,100,Study,User,1.25,,Flag,F3,2285,,,-1,-1,,,,1
65cc041f70b1949ced29d0dc,ia8i29dc5o,Ex2A_Prolific,1,150,2024-02-28T22:47:12+00:00,2.3770639896393,2,Stim_B.csv,Read.csv,Read,B,female,,F4,,,101,Study,User,1.25,,Flag,F4,2195,,,-1,-1,,,,1
65cc041f70b1949ced29d0dc,ia8i29dc5o,Ex2A_Prolific,1,151,2024-02-28T22:47:15+00:00,2.7678940296173,2,Stim_B.csv,Read.csv,Read,B,dress,,F5,,,102,Study,User,1.25,,Flag,F5,2595,,,-1,-1,,,,1
65cc041f70b1949ced29d0dc,ia8i29dc5o,Ex2A_Prolific,1,152,2024-02-28T22:47:17+00:00,2.368980884552,2,Stim_B.csv,Read.csv,Read,B,date,,F6,,,103,Study,User,1.25,,Flag,F6,2207,,,-1,-1,,,,1
65cc041f70b1949ced29d0dc,ia8i29dc5o,Ex2A_Prolific,1,153,2024-02-28T22:47:20+00:00,2.6070439815521,2,Stim_B.csv,Read.csv,Read,B,beautiful,,F7,,,104,Study,User,1.25,,Flag,F7,2461,,,-1,-1,,,,1
65cc041f70b1949ced29d0dc,ia8i29dc5o,Ex2A_Prolific,1,154,2024-02-28T22:47:22+00:00,2.389358997345,2,Stim_B.csv,Read.csv,Read,B,daughter,,F8,,,105,Study,User,1.25,,Flag,F8,2225,,,-1,-1,,,,1
65cc041f70b1949ced29d0dc,ia8i29dc5o,Ex2A_Prolific,1,155,2024-02-28T22:47:25+00:00,2.6826651096344,2,Stim_B.csv,Read.csv,Read,B,sister,,F9,,,106,Study,User,1.25,,Flag,F9,2516,,,-1,-1,,,,1
65cc041f70b1949ced29d0dc,ia8i29dc5o,Ex2A_Prolific,1,156,2024-02-28T22:47:28+00:00,3.4880180358887,2,Stim_B.csv,Read.csv,Read,B,cute,,F10,,,107,Study,User,1.25,,Flag,F10,3318,,,-1,-1,,,,1
65cc041f70b1949ced29d0dc,ia8i29dc5o,Ex2A_Prolific,1,157,2024-02-28T22:47:31+00:00,2.5371198654175,2,Stim_B.csv,Read.csv,Read,B,niece,,F11,,,108,Study,User,1.25,,Flag,F11,2376,,,-1,-1,,,,1
65cc041f70b1949ced29d0dc,ia8i29dc5o,Ex2A_Prolific,1,158,2024-02-28T22:47:33+00:00,2.5301201343536,2,Stim_B.csv,Read.csv,Read,B,young,,F12,,,109,Study,User,1.25,,Flag,F12,2366,,,-1,-1,,,,1
65cc041f70b1949ced29d0dc,ia8i29dc5o,Ex2A_Prolific,1,159,2024-02-28T22:47:35+00:00,1.5537338256836,2,Stim_B.csv,Read.csv,Read,B,,,,,,0,Instruct,User,-,"You have completed this section. Please click next.",,Instruct166,1391,,,-1,-1,,,,1
65cc041f70b1949ced29d0dc,ia8i29dc5o,Ex2A_Prolific,1,160,2024-02-28T22:48:05+00:00,30.250411987305,2,Stim_B.csv,Read.csv,Read,B,,,,,,0,FreeRecall,30,30,"Please type as many words as you can that begin with the letter ""K"". The computer will automatically advance to the next screen in 30 seconds.",,FILLER,30005,"kangaroo, kite, koala, kwalalumpur, kiss, ",0,6104,27357,0,0,,1
65cc041f70b1949ced29d0dc,ia8i29dc5o,Ex2A_Prolific,1,161,2024-02-28T22:48:10+00:00,4.8227021694183,2,Stim_B.csv,Read.csv,Read,B,,,,,,0,Instruct,User,4,"You have completed this section. Please click next.",,Instruct166,4667,,,-1,-1,,,,1
65cc041f70b1949ced29d0dc,ia8i29dc5o,Ex2A_Prolific,1,162,2024-02-28T22:48:15+00:00,5.3782370090485,2,Stim_B.csv,Read.csv,Read,B,,,,,,0,Instruct,User,4,"You will now complete a memory test for the words you just studied. Please type as many words from the previous list as you can seperated by a comma. Spelling will not count against you and you can recall the words in any order. This test will be timed for one minute, and the computer will automatically advance once time is up. Click next when you are ready to begin.",,Instruct1666,5232,,,-1,-1,,,,1
65cc041f70b1949ced29d0dc,ia8i29dc5o,Ex2A_Prolific,1,163,2024-02-28T22:49:15+00:00,60.179469823837,2,Stim_B.csv,Read.csv,Read,B,,,,,,0,FreeRecall,60,60,"Please type as many words as you can from the previous study list in any order. Please separate each word with a comma. Spelling will not count against you. This screen will automatically advance in one minute.",,RECALL_Test,60003,"boy, doll, nice, cute, dress, female, niece",0,1279,20982,0,0,,0.536
65cc041f70b1949ced29d0dc,ia8i29dc5o,Ex2A_Prolific,1,164,2024-02-28T22:49:20+00:00,4.2924339771271,2,Stim_B.csv,Read.csv,Read,B,,,,,,0,Instruct,User,3,"You will now be presented with a new study list. Click next when you are ready to begin.",,NEXT_LIST,4147,,,-1,-1,,,,1
65cc041f70b1949ced29d0dc,ia8i29dc5o,Ex2A_Prolific,1,165,2024-02-28T22:49:22+00:00,2.2430100440979,2,Stim_B.csv,Read.csv,Read,B,white,,SS1,,,110,Study,User,1.25,,Shirt,SS1,2087,,,-1,-1,,,,1
65cc041f70b1949ced29d0dc,ia8i29dc5o,Ex2A_Prolific,1,166,2024-02-28T22:49:25+00:00,2.6420900821686,2,Stim_B.csv,Read.csv,Read,B,gray,,SS2,,,111,Study,User,1.25,,Shirt,SS2,2465,,,-1,-1,,,,1
65cc041f70b1949ced29d0dc,ia8i29dc5o,Ex2A_Prolific,1,167,2024-02-28T22:49:27+00:00,2.3927118778229,2,Stim_B.csv,Read.csv,Read,B,brown,,SS3,,,112,Study,User,1.25,,Shirt,SS3,2248,,,-1,-1,,,,1
65cc041f70b1949ced29d0dc,ia8i29dc5o,Ex2A_Prolific,1,168,2024-02-28T22:49:29+00:00,2.168044090271,2,Stim_B.csv,Read.csv,Read,B,coal,,SS4,,,113,Study,User,1.25,,Shirt,SS4,2020,,,-1,-1,,,,1
65cc041f70b1949ced29d0dc,ia8i29dc5o,Ex2A_Prolific,1,169,2024-02-28T22:49:32+00:00,2.4759769439697,2,Stim_B.csv,Read.csv,Read,B,dark,,SS5,,,114,Study,User,1.25,,Shirt,SS5,2318,,,-1,-1,,,,1
65cc041f70b1949ced29d0dc,ia8i29dc5o,Ex2A_Prolific,1,170,2024-02-28T22:49:34+00:00,2.7500860691071,2,Stim_B.csv,Read.csv,Read,B,color,,SS6,,,115,Study,User,1.25,,Shirt,SS6,2590,,,-1,-1,,,,1
65cc041f70b1949ced29d0dc,ia8i29dc5o,Ex2A_Prolific,1,171,2024-02-28T22:49:37+00:00,2.443990945816,2,Stim_B.csv,Read.csv,Read,B,funeral,,SS7,,,116,Study,User,1.25,,Shirt,SS7,2286,,,-1,-1,,,,1
65cc041f70b1949ced29d0dc,ia8i29dc5o,Ex2A_Prolific,1,172,2024-02-28T22:49:39+00:00,2.4550099372864,2,Stim_B.csv,Read.csv,Read,B,blue,,SS8,,,117,Study,User,1.25,,Shirt,SS8,2295,,,-1,-1,,,,1
65cc041f70b1949ced29d0dc,ia8i29dc5o,Ex2A_Prolific,1,173,2024-02-28T22:49:42+00:00,2.412899017334,2,Stim_B.csv,Read.csv,Read,B,charred,,SS9,,,118,Study,User,1.25,,Shirt,SS9,2257,,,-1,-1,,,,1
65cc041f70b1949ced29d0dc,ia8i29dc5o,Ex2A_Prolific,1,174,2024-02-28T22:49:44+00:00,2.3131401538849,2,Stim_B.csv,Read.csv,Read,B,ink,,SS10,,,119,Study,User,1.25,,Shirt,SS10,2160,,,-1,-1,,,,1
65cc041f70b1949ced29d0dc,ia8i29dc5o,Ex2A_Prolific,1,175,2024-02-28T22:49:46+00:00,2.1382348537445,2,Stim_B.csv,Read.csv,Read,B,death,,SS11,,,120,Study,User,1.25,,Shirt,SS11,1980,,,-1,-1,,,,1
65cc041f70b1949ced29d0dc,ia8i29dc5o,Ex2A_Prolific,1,176,2024-02-28T22:49:48+00:00,2.0726571083069,2,Stim_B.csv,Read.csv,Read,B,cat,,SS12,,,121,Study,User,1.25,,Shirt,SS12,1904,,,-1,-1,,,,1
65cc041f70b1949ced29d0dc,ia8i29dc5o,Ex2A_Prolific,1,177,2024-02-28T22:49:53+00:00,5.0264048576355,2,Stim_B.csv,Read.csv,Read,B,,,,,,0,Instruct,User,4,"You have completed this section. Please click next.",,Instruct166,4868,,,-1,-1,,,,1
65cc041f70b1949ced29d0dc,ia8i29dc5o,Ex2A_Prolific,1,178,2024-02-28T22:50:23+00:00,30.177853107452,2,Stim_B.csv,Read.csv,Read,B,,,,,,0,FreeRecall,30,30,"Please type as many words as you can that begin with the letter ""K"". The computer will automatically advance to the next screen in 30 seconds.",,FILLER,30003,"kite, kiss, kangaroo, koala, king, kate, k",0,2296,29936,0,0,,1
65cc041f70b1949ced29d0dc,ia8i29dc5o,Ex2A_Prolific,1,179,2024-02-28T22:50:27+00:00,3.7881391048431,2,Stim_B.csv,Read.csv,Read,B,,,,,,0,Instruct,User,-,"You have completed this section. Please click next.",,Instruct166,3635,,,-1,-1,,,,1
65cc041f70b1949ced29d0dc,ia8i29dc5o,Ex2A_Prolific,1,180,2024-02-28T22:50:32+00:00,5.34223985672,2,Stim_B.csv,Read.csv,Read,B,,,,,,0,Instruct,User,4,"You will now complete a memory test for the words you just studied. Please type as many words from the previous list as you can seperated by a comma. Spelling will not count against you and you can recall the words in any order. This test will be timed for one minute, and the computer will automatically advance once time is up. Click next when you are ready to begin.",,Instruct1666,5183,,,-1,-1,,,,1
65cc041f70b1949ced29d0dc,ia8i29dc5o,Ex2A_Prolific,1,181,2024-02-28T22:51:33+00:00,60.164124965668,2,Stim_B.csv,Read.csv,Read,B,,,,,,0,FreeRecall,60,60,"Please type as many words as you can from the previous study list in any order. Please separate each word with a comma. Spelling will not count against you. This screen will automatically advance in one minute.",,RECALL_Test,60003,"white, gray, brown, coal, blue, ink, ",0,4309,22929,0,0,,1
65cc041f70b1949ced29d0dc,ia8i29dc5o,Ex2A_Prolific,1,182,2024-02-28T22:51:35+00:00,2.4812290668488,2,Stim_B.csv,Read.csv,Read,B,,,,,,0,Instruct,User,-,"You have completed this section. Please click next.",,Instruct7,2328,,,-1,-1,,,,1
65cc041f70b1949ced29d0dc,ia8i29dc5o,Ex2A_Prolific,1,183,2024-02-28T22:51:40+00:00,4.6077239513397,2,Stim_B.csv,Read.csv,Read,B,,,,,,0,Instruct,User,-,"The following screen will ask you a few questions abour your experience today. You must complete these questions to receive credit.",,Instruct8,4451,,,-1,-1,,,,1
