Username,ID,ExperimentName,Session,Trial,Date,TimeDif,"Condition Number","Stimuli File","Order File","Condition Description","Condition Notes",Stimuli*Cue,Stimuli*Answer,Stimuli*Shuffle,"Stimuli*Stimuli Notes",Stimuli*Value,Procedure*Item,"Procedure*Trial Type","Procedure*Max Time","Procedure*Min Time",Procedure*Text,"Procedure*Procedure Notes",Procedure*Shuffle,Response*RT,Response*Response,Response*Accuracy,Response*RTfirst,Response*RTlast,Response*strictAcc,Response*lenientAcc,Response*focus,Response*Focus
65e0f00fbfd8ae75bf44c1ab,2nwqo5yvz0,Ex2A_Prolific,1,1,2024-03-01T19:59:40+00:00,6.1578600406647,2,Stim_B.csv,Read.csv,Read,B,,,,,,0,Instruct,-,5,"In this section, you will be presented with a series of words. Please study each word carefully. Your memory will be tested! Click next when you are ready to begin.",Initial_Instruct,Instruct1,5558,,,-1,-1,,,,1
65e0f00fbfd8ae75bf44c1ab,2nwqo5yvz0,Ex2A_Prolific,1,2,2024-03-01T19:59:44+00:00,4.2701950073242,2,Stim_B.csv,Read.csv,Read,B,,,,,,0,Instruct,User,-,"You will now begin the study. Click next when you are ready to begin.",,Instruct16,2754,,,-1,-1,,,,1
65e0f00fbfd8ae75bf44c1ab,2nwqo5yvz0,Ex2A_Prolific,1,3,2024-03-01T19:59:47+00:00,2.888571023941,2,Stim_B.csv,Read.csv,Read,B,aroma,,Win_1,,,2,Study,User,1.25,,Window,Win_1,2032,,,-1,-1,,,,1
65e0f00fbfd8ae75bf44c1ab,2nwqo5yvz0,Ex2A_Prolific,1,4,2024-03-01T19:59:51+00:00,4.2820739746094,2,Stim_B.csv,Read.csv,Read,B,scent,,Win_2,,,3,Study,User,1.25,,Window,Win_2,3226,,,-1,-1,,,,1
65e0f00fbfd8ae75bf44c1ab,2nwqo5yvz0,Ex2A_Prolific,1,5,2024-03-01T19:59:55+00:00,3.3786849975586,2,Stim_B.csv,Read.csv,Read,B,whiff,,Win_3,,,4,Study,User,1.25,,Window,Win_3,1804,,,-1,-1,,,,1
65e0f00fbfd8ae75bf44c1ab,2nwqo5yvz0,Ex2A_Prolific,1,6,2024-03-01T19:59:57+00:00,2.410854101181,2,Stim_B.csv,Read.csv,Read,B,stench,,Win_4,,,5,Study,User,1.25,,Window,Win_4,1574,,,-1,-1,,,,1
65e0f00fbfd8ae75bf44c1ab,2nwqo5yvz0,Ex2A_Prolific,1,7,2024-03-01T20:00:01+00:00,4.5015199184418,2,Stim_B.csv,Read.csv,Read,B,reek,,Win_5,,,6,Study,User,1.25,,Window,Win_5,3598,,,-1,-1,,,,1
65e0f00fbfd8ae75bf44c1ab,2nwqo5yvz0,Ex2A_Prolific,1,8,2024-03-01T20:00:07+00:00,5.705549955368,2,Stim_B.csv,Read.csv,Read,B,sniff,,Win_6,,,7,Study,User,1.25,,Window,Win_6,2499,,,-1,-1,,,,1
65e0f00fbfd8ae75bf44c1ab,2nwqo5yvz0,Ex2A_Prolific,1,9,2024-03-01T20:00:11+00:00,3.3023221492767,2,Stim_B.csv,Read.csv,Read,B,perfume,,Win_7,,,8,Study,User,1.25,,Window,Win_7,2461,,,-1,-1,,,,1
65e0f00fbfd8ae75bf44c1ab,2nwqo5yvz0,Ex2A_Prolific,1,10,2024-03-01T20:00:14+00:00,3.8604459762573,2,Stim_B.csv,Read.csv,Read,B,fragrance,,Win_8,,,9,Study,User,1.25,,Window,Win_8,1934,,,-1,-1,,,,1
65e0f00fbfd8ae75bf44c1ab,2nwqo5yvz0,Ex2A_Prolific,1,11,2024-03-01T20:00:17+00:00,3.0646328926086,2,Stim_B.csv,Read.csv,Read,B,nose,,Win_9,,,10,Study,User,1.25,,Window,Win_9,2232,,,-1,-1,,,,1
65e0f00fbfd8ae75bf44c1ab,2nwqo5yvz0,Ex2A_Prolific,1,12,2024-03-01T20:00:20+00:00,2.8048379421234,2,Stim_B.csv,Read.csv,Read,B,rose,,Win_10,,,11,Study,User,1.25,,Window,Win_10,1979,,,-1,-1,,,,1
65e0f00fbfd8ae75bf44c1ab,2nwqo5yvz0,Ex2A_Prolific,1,13,2024-03-01T20:00:23+00:00,2.9682021141052,2,Stim_B.csv,Read.csv,Read,B,salts,,Win_11,,,12,Study,User,1.25,,Window,Win_11,2050,,,-1,-1,,,,1
65e0f00fbfd8ae75bf44c1ab,2nwqo5yvz0,Ex2A_Prolific,1,14,2024-03-01T20:00:26+00:00,2.8634719848633,2,Stim_B.csv,Read.csv,Read,B,breathe,,Win_12,,,13,Study,User,1.25,,Window,Win_12,1975,,,-1,-1,,,,1
65e0f00fbfd8ae75bf44c1ab,2nwqo5yvz0,Ex2A_Prolific,1,15,2024-03-01T20:00:30+00:00,3.5397639274597,2,Stim_B.csv,Read.csv,Read,B,,,,,,0,Instruct,User,-,"You have completed this section. Please click next.",,Instruct166,2616,,,-1,-1,,,,1
65e0f00fbfd8ae75bf44c1ab,2nwqo5yvz0,Ex2A_Prolific,1,16,2024-03-01T20:01:01+00:00,31.542602062225,2,Stim_B.csv,Read.csv,Read,B,,,,,,0,FreeRecall,30,30,"Please type as many words as you can that begin with the letter ""R"". The computer will automatically advance to the next screen in 30 seconds.",,FILLER,30010,"aroma scent perfume nose reek rose perceive ",0,6524,26259,0,0,,1
65e0f00fbfd8ae75bf44c1ab,2nwqo5yvz0,Ex2A_Prolific,1,17,2024-03-01T20:01:08+00:00,6.5172071456909,2,Stim_B.csv,Read.csv,Read,B,,,,,,0,Instruct,User,4,"You have completed this section. Please click next.",,Instruct166,5007,,,-1,-1,,,,1
65e0f00fbfd8ae75bf44c1ab,2nwqo5yvz0,Ex2A_Prolific,1,18,2024-03-01T20:01:24+00:00,15.871794939041,2,Stim_B.csv,Read.csv,Read,B,,,,,,0,Instruct,User,4,"You will now complete a memory test for the words you just studied. Please type as many words from the previous list as you can seperated by a comma. Spelling will not count against you and you can recall the words in any order. This test will be timed for one minute, and the computer will automatically advance once time is up. Click next when you are ready to begin.",,Instruct1666,14292,,,-1,-1,,,,1
65e0f00fbfd8ae75bf44c1ab,2nwqo5yvz0,Ex2A_Prolific,1,19,2024-03-01T20:02:25+00:00,61.658717870712,2,Stim_B.csv,Read.csv,Read,B,,,,,,0,FreeRecall,60,60,"Please type as many words as you can from the previous study list in any order. Please separate each word with a comma. Spelling will not count against you. This screen will automatically advance in one minute.",,RECALL_Test,60003,"aroma, scent, reek, perfume, rose, perceive, stink, drench, nose, odour",0,2195,56456,0,0,,1
65e0f00fbfd8ae75bf44c1ab,2nwqo5yvz0,Ex2A_Prolific,1,20,2024-03-01T20:02:43+00:00,17.568868160248,2,Stim_B.csv,Read.csv,Read,B,,,,,,0,Instruct,User,3,"You will now be presented with a new study list. Click next when you are ready to begin.",,NEXT_LIST,15999,,,-1,-1,,,,1
65e0f00fbfd8ae75bf44c1ab,2nwqo5yvz0,Ex2A_Prolific,1,21,2024-03-01T20:02:47+00:00,4.1650559902191,2,Stim_B.csv,Read.csv,Read,B,hard,,R1,,,14,Study,User,1.25,,Rough,R1,2591,,,-1,-1,,,,1
65e0f00fbfd8ae75bf44c1ab,2nwqo5yvz0,Ex2A_Prolific,1,22,2024-03-01T20:02:51+00:00,3.6864469051361,2,Stim_B.csv,Read.csv,Read,B,loud,,R2,,,15,Study,User,1.25,,Rough,R2,2166,,,-1,-1,,,,1
65e0f00fbfd8ae75bf44c1ab,2nwqo5yvz0,Ex2A_Prolific,1,23,2024-03-01T20:02:54+00:00,3.7009119987488,2,Stim_B.csv,Read.csv,Read,B,tender,,R3,,,16,Study,User,1.25,,Rough,R3,2156,,,-1,-1,,,,1
65e0f00fbfd8ae75bf44c1ab,2nwqo5yvz0,Ex2A_Prolific,1,24,2024-03-01T20:02:57+00:00,2.6400439739227,2,Stim_B.csv,Read.csv,Read,B,fluffy,,R4,,,17,Study,User,1.25,,Rough,R4,1844,,,-1,-1,,,,1
65e0f00fbfd8ae75bf44c1ab,2nwqo5yvz0,Ex2A_Prolific,1,25,2024-03-01T20:03:00+00:00,3.0588531494141,2,Stim_B.csv,Read.csv,Read,B,pillow,,R5,,,18,Study,User,1.25,,Rough,R5,2208,,,-1,-1,,,,1
65e0f00fbfd8ae75bf44c1ab,2nwqo5yvz0,Ex2A_Prolific,1,26,2024-03-01T20:03:05+00:00,5.0098078250885,2,Stim_B.csv,Read.csv,Read,B,downy,,R6,,,19,Study,User,1.25,,Rough,R6,3507,,,-1,-1,,,,1
65e0f00fbfd8ae75bf44c1ab,2nwqo5yvz0,Ex2A_Prolific,1,27,2024-03-01T20:03:09+00:00,3.6798319816589,2,Stim_B.csv,Read.csv,Read,B,plush,,R7,,,20,Study,User,1.25,,Rough,R7,2852,,,-1,-1,,,,1
65e0f00fbfd8ae75bf44c1ab,2nwqo5yvz0,Ex2A_Prolific,1,28,2024-03-01T20:03:17+00:00,8.1393690109253,2,Stim_B.csv,Read.csv,Read,B,cotton,,R8,,,21,Study,User,1.25,,Rough,R8,6644,,,-1,-1,,,,1
65e0f00fbfd8ae75bf44c1ab,2nwqo5yvz0,Ex2A_Prolific,1,29,2024-03-01T20:03:20+00:00,3.5739390850067,2,Stim_B.csv,Read.csv,Read,B,skin,,R9,,,22,Study,User,1.25,,Rough,R9,2770,,,-1,-1,,,,1
65e0f00fbfd8ae75bf44c1ab,2nwqo5yvz0,Ex2A_Prolific,1,30,2024-03-01T20:03:24+00:00,4.0768320560455,2,Stim_B.csv,Read.csv,Read,B,fur,,R10,,,23,Study,User,1.25,,Rough,R10,2583,,,-1,-1,,,,1
65e0f00fbfd8ae75bf44c1ab,2nwqo5yvz0,Ex2A_Prolific,1,31,2024-03-01T20:03:28+00:00,3.2895238399506,2,Stim_B.csv,Read.csv,Read,B,touch,,R11,,,24,Study,User,1.25,,Rough,R11,2470,,,-1,-1,,,,1
65e0f00fbfd8ae75bf44c1ab,2nwqo5yvz0,Ex2A_Prolific,1,32,2024-03-01T20:03:31+00:00,3.6832489967346,2,Stim_B.csv,Read.csv,Read,B,furry,,R12,,,25,Study,User,1.25,,Rough,R12,2836,,,-1,-1,,,,1
65e0f00fbfd8ae75bf44c1ab,2nwqo5yvz0,Ex2A_Prolific,1,33,2024-03-01T20:03:56+00:00,24.419182062149,2,Stim_B.csv,Read.csv,Read,B,,,,,,0,Instruct,User,4,"You have completed this section. Please click next.",,Instruct166,22907,,,-1,-1,,,,1
65e0f00fbfd8ae75bf44c1ab,2nwqo5yvz0,Ex2A_Prolific,1,34,2024-03-01T20:04:27+00:00,31.519972085953,2,Stim_B.csv,Read.csv,Read,B,,,,,,0,FreeRecall,30,30,"Please type as many words as you can that begin with the letter ""N"". The computer will automatically advance to the next screen in 30 seconds.",,FILLER,30005,"hard, fluffy, downy loud tender ",0,2416,29987,0,0,,1
65e0f00fbfd8ae75bf44c1ab,2nwqo5yvz0,Ex2A_Prolific,1,35,2024-03-01T20:04:33+00:00,5.6491179466248,2,Stim_B.csv,Read.csv,Read,B,,,,,,0,Instruct,User,4,"You have completed this section. Please click next.",,Instruct166,4836,,,-1,-1,,,,1
65e0f00fbfd8ae75bf44c1ab,2nwqo5yvz0,Ex2A_Prolific,1,36,2024-03-01T20:04:41+00:00,7.4588749408722,2,Stim_B.csv,Read.csv,Read,B,,,,,,0,Instruct,User,4,"You will now complete a memory test for the words you just studied. Please type as many words from the previous list as you can seperated by a comma. Spelling will not count against you and you can recall the words in any order. This test will be timed for one minute, and the computer will automatically advance once time is up. Click next when you are ready to begin.",,Instruct1666,6660,,,-1,-1,,,,1
65e0f00fbfd8ae75bf44c1ab,2nwqo5yvz0,Ex2A_Prolific,1,37,2024-03-01T20:05:42+00:00,61.501590967178,2,Stim_B.csv,Read.csv,Read,B,,,,,,0,FreeRecall,60,60,"Please type as many words as you can from the previous study list in any order. Please separate each word with a comma. Spelling will not count against you. This screen will automatically advance in one minute.",,RECALL_Test,60003,"hard, fluffy, drowny, loud, tender, pillow, downy, cotton, skin, touc. fh",0,3605,59965,0,0,,1
65e0f00fbfd8ae75bf44c1ab,2nwqo5yvz0,Ex2A_Prolific,1,38,2024-03-01T20:06:04+00:00,21.649888038635,2,Stim_B.csv,Read.csv,Read,B,,,,,,0,Instruct,User,3,"You will now be presented with a new study list. Click next when you are ready to begin.",,NEXT_LIST,20130,,,-1,-1,,,,1
65e0f00fbfd8ae75bf44c1ab,2nwqo5yvz0,Ex2A_Prolific,1,39,2024-03-01T20:06:07+00:00,3.232565164566,2,Stim_B.csv,Read.csv,Read,B,honey,,A1,,,26,Study,User,1.25,,Anger,A1,2397,,,-1,-1,,,,1
65e0f00fbfd8ae75bf44c1ab,2nwqo5yvz0,Ex2A_Prolific,1,40,2024-03-01T20:06:10+00:00,2.8703730106354,2,Stim_B.csv,Read.csv,Read,B,bitter,,A2,,,27,Study,User,1.25,,Anger,A2,1980,,,-1,-1,,,,1
65e0f00fbfd8ae75bf44c1ab,2nwqo5yvz0,Ex2A_Prolific,1,41,2024-03-01T20:06:13+00:00,2.877888917923,2,Stim_B.csv,Read.csv,Read,B,sugar,,A3,,,28,Study,User,1.25,,Anger,A3,1899,,,-1,-1,,,,1
65e0f00fbfd8ae75bf44c1ab,2nwqo5yvz0,Ex2A_Prolific,1,42,2024-03-01T20:06:16+00:00,3.6089060306549,2,Stim_B.csv,Read.csv,Read,B,sour,,A4,,,29,Study,User,1.25,,Anger,A4,1915,,,-1,-1,,,,1
65e0f00fbfd8ae75bf44c1ab,2nwqo5yvz0,Ex2A_Prolific,1,43,2024-03-01T20:06:19+00:00,2.9902729988098,2,Stim_B.csv,Read.csv,Read,B,candy,,A5,,,30,Study,User,1.25,,Anger,A5,2108,,,-1,-1,,,,1
65e0f00fbfd8ae75bf44c1ab,2nwqo5yvz0,Ex2A_Prolific,1,44,2024-03-01T20:06:22+00:00,2.8995568752289,2,Stim_B.csv,Read.csv,Read,B,tart,,A6,,,31,Study,User,1.25,,Anger,A6,2008,,,-1,-1,,,,1
65e0f00fbfd8ae75bf44c1ab,2nwqo5yvz0,Ex2A_Prolific,1,45,2024-03-01T20:06:26+00:00,3.6399359703064,2,Stim_B.csv,Read.csv,Read,B,chocolate,,A7,,,32,Study,User,1.25,,Anger,A7,2094,,,-1,-1,,,,1
65e0f00fbfd8ae75bf44c1ab,2nwqo5yvz0,Ex2A_Prolific,1,46,2024-03-01T20:06:29+00:00,3.190957069397,2,Stim_B.csv,Read.csv,Read,B,nice,,A8,,,33,Study,User,1.25,,Anger,A8,2336,,,-1,-1,,,,1
65e0f00fbfd8ae75bf44c1ab,2nwqo5yvz0,Ex2A_Prolific,1,47,2024-03-01T20:06:32+00:00,3.2589550018311,2,Stim_B.csv,Read.csv,Read,B,taste,,A9,,,34,Study,User,1.25,,Anger,A9,2336,,,-1,-1,,,,1
65e0f00fbfd8ae75bf44c1ab,2nwqo5yvz0,Ex2A_Prolific,1,48,2024-03-01T20:06:36+00:00,3.7601280212402,2,Stim_B.csv,Read.csv,Read,B,cake,,A10,,,35,Study,User,1.25,,Anger,A10,2111,,,-1,-1,,,,1
65e0f00fbfd8ae75bf44c1ab,2nwqo5yvz0,Ex2A_Prolific,1,49,2024-03-01T20:06:39+00:00,3.3396420478821,2,Stim_B.csv,Read.csv,Read,B,good,,A11,,,36,Study,User,1.25,,Anger,A11,2429,,,-1,-1,,,,1
65e0f00fbfd8ae75bf44c1ab,2nwqo5yvz0,Ex2A_Prolific,1,50,2024-03-01T20:06:42+00:00,3.0197360515594,2,Stim_B.csv,Read.csv,Read,B,tooth,,A12,,,37,Study,User,1.25,,Anger,A12,2198,,,-1,-1,,,,1
65e0f00fbfd8ae75bf44c1ab,2nwqo5yvz0,Ex2A_Prolific,1,51,2024-03-01T20:06:49+00:00,6.8448469638824,2,Stim_B.csv,Read.csv,Read,B,,,,,,0,Instruct,User,4,"You have completed this section. Please click next.",,Instruct166,5321,,,-1,-1,,,,1
65e0f00fbfd8ae75bf44c1ab,2nwqo5yvz0,Ex2A_Prolific,1,52,2024-03-01T20:07:21+00:00,31.506227970123,2,Stim_B.csv,Read.csv,Read,B,,,,,,0,FreeRecall,30,30,"Please type as many words as you can that begin with the letter ""L"". The computer will automatically advance to the next screen in 30 seconds.",,FILLER,30004,"honey bitter sugar sour candy tart chocolate nice taste",0,1426,29922,0,0,,1
65e0f00fbfd8ae75bf44c1ab,2nwqo5yvz0,Ex2A_Prolific,1,53,2024-03-01T20:07:25+00:00,4.359766960144,2,Stim_B.csv,Read.csv,Read,B,,,,,,0,Instruct,User,-,"You have completed this section. Please click next.",,Instruct166,2869,,,-1,-1,,,,1
65e0f00fbfd8ae75bf44c1ab,2nwqo5yvz0,Ex2A_Prolific,1,54,2024-03-01T20:07:31+00:00,6.1699259281158,2,Stim_B.csv,Read.csv,Read,B,,,,,,0,Instruct,User,4,"You will now complete a memory test for the words you just studied. Please type as many words from the previous list as you can seperated by a comma. Spelling will not count against you and you can recall the words in any order. This test will be timed for one minute, and the computer will automatically advance once time is up. Click next when you are ready to begin.",,Instruct1666,5359,,,-1,-1,,,,1
65e0f00fbfd8ae75bf44c1ab,2nwqo5yvz0,Ex2A_Prolific,1,55,2024-03-01T20:08:33+00:00,61.621288061142,2,Stim_B.csv,Read.csv,Read,B,,,,,,0,FreeRecall,60,60,"Please type as many words as you can from the previous study list in any order. Please separate each word with a comma. Spelling will not count against you. This screen will automatically advance in one minute.",,RECALL_Test,60005,"honey, bitter, sugar, sour, candy, tart, chocolate, nice, taste, cake, good, tooth",0,882,59519,0,0,,1
65e0f00fbfd8ae75bf44c1ab,2nwqo5yvz0,Ex2A_Prolific,1,56,2024-03-01T20:08:45+00:00,12.08021402359,2,Stim_B.csv,Read.csv,Read,B,,,,,,0,Instruct,User,3,"You will now be presented with a new study list. Click next when you are ready to begin.",,NEXT_LIST,10571,,,-1,-1,,,,1
65e0f00fbfd8ae75bf44c1ab,2nwqo5yvz0,Ex2A_Prolific,1,57,2024-03-01T20:08:48+00:00,3.0396358966827,2,Stim_B.csv,Read.csv,Read,B,table,,T1,,,38,Study,User,1.25,,Trash,T1,2182,,,-1,-1,,,,1
65e0f00fbfd8ae75bf44c1ab,2nwqo5yvz0,Ex2A_Prolific,1,58,2024-03-01T20:08:51+00:00,2.7417531013489,2,Stim_B.csv,Read.csv,Read,B,swivel,,T2,,,39,Study,User,1.25,,Trash,T2,1898,,,-1,-1,,,,1
65e0f00fbfd8ae75bf44c1ab,2nwqo5yvz0,Ex2A_Prolific,1,59,2024-03-01T20:08:54+00:00,2.9355490207672,2,Stim_B.csv,Read.csv,Read,B,rocking,,T3,,,40,Study,User,1.25,,Trash,T3,2048,,,-1,-1,,,,1
65e0f00fbfd8ae75bf44c1ab,2nwqo5yvz0,Ex2A_Prolific,1,60,2024-03-01T20:08:57+00:00,2.8743839263916,2,Stim_B.csv,Read.csv,Read,B,recliner,,T4,,,41,Study,User,1.25,,Trash,T4,2035,,,-1,-1,,,,1
65e0f00fbfd8ae75bf44c1ab,2nwqo5yvz0,Ex2A_Prolific,1,61,2024-03-01T20:08:59+00:00,2.7583439350128,2,Stim_B.csv,Read.csv,Read,B,seat,,T5,,,42,Study,User,1.25,,Trash,T5,1916,,,-1,-1,,,,1
65e0f00fbfd8ae75bf44c1ab,2nwqo5yvz0,Ex2A_Prolific,1,62,2024-03-01T20:09:02+00:00,2.8006181716919,2,Stim_B.csv,Read.csv,Read,B,stool,,T6,,,43,Study,User,1.25,,Trash,T6,1937,,,-1,-1,,,,1
65e0f00fbfd8ae75bf44c1ab,2nwqo5yvz0,Ex2A_Prolific,1,63,2024-03-01T20:09:06+00:00,3.5299758911133,2,Stim_B.csv,Read.csv,Read,B,desk,,T7,,,44,Study,User,1.25,,Trash,T7,1969,,,-1,-1,,,,1
65e0f00fbfd8ae75bf44c1ab,2nwqo5yvz0,Ex2A_Prolific,1,64,2024-03-01T20:09:09+00:00,2.9316260814667,2,Stim_B.csv,Read.csv,Read,B,couch,,T8,,,45,Study,User,1.25,,Trash,T8,2072,,,-1,-1,,,,1
65e0f00fbfd8ae75bf44c1ab,2nwqo5yvz0,Ex2A_Prolific,1,65,2024-03-01T20:09:11+00:00,2.9077038764954,2,Stim_B.csv,Read.csv,Read,B,sit,,T9,,,46,Study,User,1.25,,Trash,T9,2055,,,-1,-1,,,,1
65e0f00fbfd8ae75bf44c1ab,2nwqo5yvz0,Ex2A_Prolific,1,66,2024-03-01T20:09:15+00:00,3.6646921634674,2,Stim_B.csv,Read.csv,Read,B,sofa,,T10,,,47,Study,User,1.25,,Trash,T10,2089,,,-1,-1,,,,1
65e0f00fbfd8ae75bf44c1ab,2nwqo5yvz0,Ex2A_Prolific,1,67,2024-03-01T20:09:18+00:00,2.9558548927307,2,Stim_B.csv,Read.csv,Read,B,bench,,T11,,,48,Study,User,1.25,,Trash,T11,2132,,,-1,-1,,,,1
65e0f00fbfd8ae75bf44c1ab,2nwqo5yvz0,Ex2A_Prolific,1,68,2024-03-01T20:09:21+00:00,2.7399590015411,2,Stim_B.csv,Read.csv,Read,B,sitting,,T12,,,49,Study,User,1.25,,Trash,T12,1884,,,-1,-1,,,,1
65e0f00fbfd8ae75bf44c1ab,2nwqo5yvz0,Ex2A_Prolific,1,69,2024-03-01T20:09:25+00:00,4.5773739814758,2,Stim_B.csv,Read.csv,Read,B,,,,,,0,Instruct,User,-,"You have completed this section. Please click next.",,Instruct166,3061,,,-1,-1,,,,1
65e0f00fbfd8ae75bf44c1ab,2nwqo5yvz0,Ex2A_Prolific,1,70,2024-03-01T20:09:57+00:00,31.54341006279,2,Stim_B.csv,Read.csv,Read,B,,,,,,0,FreeRecall,30,30,"Please type as many words as you can that begin with the letter ""S"". The computer will automatically advance to the next screen in 30 seconds.",,FILLER,30006,"table swivel rocking recliner seat stool desk couchj ",0,4099,28916,0,0,,1
65e0f00fbfd8ae75bf44c1ab,2nwqo5yvz0,Ex2A_Prolific,1,71,2024-03-01T20:10:05+00:00,7.8704569339752,2,Stim_B.csv,Read.csv,Read,B,,,,,,0,Instruct,User,-,"You have completed this section. Please click next.",,Instruct166,6355,,,-1,-1,,,,1
65e0f00fbfd8ae75bf44c1ab,2nwqo5yvz0,Ex2A_Prolific,1,72,2024-03-01T20:10:14+00:00,8.8045270442963,2,Stim_B.csv,Read.csv,Read,B,,,,,,0,Instruct,User,4,"You will now complete a memory test for the words you just studied. Please type as many words from the previous list as you can seperated by a comma. Spelling will not count against you and you can recall the words in any order. This test will be timed for one minute, and the computer will automatically advance once time is up. Click next when you are ready to begin.",,Instruct1666,7930,,,-1,-1,,,,1
65e0f00fbfd8ae75bf44c1ab,2nwqo5yvz0,Ex2A_Prolific,1,73,2024-03-01T20:11:15+00:00,61.550307035446,2,Stim_B.csv,Read.csv,Read,B,,,,,,0,FreeRecall,60,60,"Please type as many words as you can from the previous study list in any order. Please separate each word with a comma. Spelling will not count against you. This screen will automatically advance in one minute.",,RECALL_Test,60004,"table, swivel, rocking, recliner, seat, stool, desk, couch, sit, sofa, bench. sitting, ",0,1002,40530,0,0,,1
65e0f00fbfd8ae75bf44c1ab,2nwqo5yvz0,Ex2A_Prolific,1,74,2024-03-01T20:11:31+00:00,15.395140886307,2,Stim_B.csv,Read.csv,Read,B,,,,,,0,Instruct,User,3,"You will now be presented with a new study list. Click next when you are ready to begin.",,NEXT_LIST,13830,,,-1,-1,,,,1
65e0f00fbfd8ae75bf44c1ab,2nwqo5yvz0,Ex2A_Prolific,1,75,2024-03-01T20:11:34+00:00,3.2302420139313,2,Stim_B.csv,Read.csv,Read,B,climber,,D1,,,50,Study,User,1.25,,Doctor,D1,2405,,,-1,-1,,,,1
65e0f00fbfd8ae75bf44c1ab,2nwqo5yvz0,Ex2A_Prolific,1,76,2024-03-01T20:11:37+00:00,2.7595250606537,2,Stim_B.csv,Read.csv,Read,B,hill,,D2,,,51,Study,User,1.25,,Doctor,D2,1899,,,-1,-1,,,,1
65e0f00fbfd8ae75bf44c1ab,2nwqo5yvz0,Ex2A_Prolific,1,77,2024-03-01T20:11:39+00:00,2.7901360988617,2,Stim_B.csv,Read.csv,Read,B,climb,,D3,,,52,Study,User,1.25,,Doctor,D3,1918,,,-1,-1,,,,1
65e0f00fbfd8ae75bf44c1ab,2nwqo5yvz0,Ex2A_Prolific,1,78,2024-03-01T20:11:42+00:00,2.8614678382874,2,Stim_B.csv,Read.csv,Read,B,molehill,,D4,,,53,Study,User,1.25,,Doctor,D4,2028,,,-1,-1,,,,1
65e0f00fbfd8ae75bf44c1ab,2nwqo5yvz0,Ex2A_Prolific,1,79,2024-03-01T20:11:46+00:00,3.5374879837036,2,Stim_B.csv,Read.csv,Read,B,peak,,D5,,,54,Study,User,1.25,,Doctor,D5,2029,,,-1,-1,,,,1
65e0f00fbfd8ae75bf44c1ab,2nwqo5yvz0,Ex2A_Prolific,1,80,2024-03-01T20:11:49+00:00,2.9718000888824,2,Stim_B.csv,Read.csv,Read,B,valley,,D6,,,55,Study,User,1.25,,Doctor,D6,2134,,,-1,-1,,,,1
65e0f00fbfd8ae75bf44c1ab,2nwqo5yvz0,Ex2A_Prolific,1,81,2024-03-01T20:11:52+00:00,2.9194540977478,2,Stim_B.csv,Read.csv,Read,B,summit,,D7,,,56,Study,User,1.25,,Doctor,D7,2092,,,-1,-1,,,,1
65e0f00fbfd8ae75bf44c1ab,2nwqo5yvz0,Ex2A_Prolific,1,82,2024-03-01T20:11:55+00:00,3.7099368572235,2,Stim_B.csv,Read.csv,Read,B,steep,,D8,,,57,Study,User,1.25,,Doctor,D8,2112,,,-1,-1,,,,1
65e0f00fbfd8ae75bf44c1ab,2nwqo5yvz0,Ex2A_Prolific,1,83,2024-03-01T20:11:58+00:00,2.9405741691589,2,Stim_B.csv,Read.csv,Read,B,ski,,D9,,,58,Study,User,1.25,,Doctor,D9,2091,,,-1,-1,,,,1
65e0f00fbfd8ae75bf44c1ab,2nwqo5yvz0,Ex2A_Prolific,1,84,2024-03-01T20:12:01+00:00,2.8547809123993,2,Stim_B.csv,Read.csv,Read,B,bike,,D10,,,59,Study,User,1.25,,Doctor,D10,1859,,,-1,-1,,,,1
65e0f00fbfd8ae75bf44c1ab,2nwqo5yvz0,Ex2A_Prolific,1,85,2024-03-01T20:12:04+00:00,2.6587278842926,2,Stim_B.csv,Read.csv,Read,B,goat,,D11,,,60,Study,User,1.25,,Doctor,D11,1807,,,-1,-1,,,,1
65e0f00fbfd8ae75bf44c1ab,2nwqo5yvz0,Ex2A_Prolific,1,86,2024-03-01T20:12:07+00:00,2.8353660106659,2,Stim_B.csv,Read.csv,Read,B,glacier,,D12,,,61,Study,User,1.25,,Doctor,D12,1966,,,-1,-1,,,,1
65e0f00fbfd8ae75bf44c1ab,2nwqo5yvz0,Ex2A_Prolific,1,87,2024-03-01T20:12:10+00:00,3.4012379646301,2,Stim_B.csv,Read.csv,Read,B,,,,,,0,Instruct,User,-,"You have completed this section. Please click next.",,Instruct166,2536,,,-1,-1,,,,1
65e0f00fbfd8ae75bf44c1ab,2nwqo5yvz0,Ex2A_Prolific,1,88,2024-03-01T20:12:42+00:00,31.79248213768,2,Stim_B.csv,Read.csv,Read,B,,,,,,0,FreeRecall,30,30,"Please type as many words as you can that begin with the letter ""T"". The computer will automatically advance to the next screen in 30 seconds.",,FILLER,30004,"climber hill climb molehill peak valley summit steep ski ",0,4035,28961,0,0,,1
65e0f00fbfd8ae75bf44c1ab,2nwqo5yvz0,Ex2A_Prolific,1,89,2024-03-01T20:12:51+00:00,9.6497640609741,2,Stim_B.csv,Read.csv,Read,B,,,,,,0,Instruct,User,4,"You have completed this section. Please click next.",,Instruct166,7965,,,-1,-1,,,,1
65e0f00fbfd8ae75bf44c1ab,2nwqo5yvz0,Ex2A_Prolific,1,90,2024-03-01T20:12:58+00:00,6.9489028453827,2,Stim_B.csv,Read.csv,Read,B,,,,,,0,Instruct,User,4,"You will now complete a memory test for the words you just studied. Please type as many words from the previous list as you can seperated by a comma. Spelling will not count against you and you can recall the words in any order. This test will be timed for one minute, and the computer will automatically advance once time is up. Click next when you are ready to begin.",,Instruct1666,5418,,,-1,-1,,,,1
65e0f00fbfd8ae75bf44c1ab,2nwqo5yvz0,Ex2A_Prolific,1,91,2024-03-01T20:14:00+00:00,61.510104179382,2,Stim_B.csv,Read.csv,Read,B,,,,,,0,FreeRecall,60,60,"Please type as many words as you can from the previous study list in any order. Please separate each word with a comma. Spelling will not count against you. This screen will automatically advance in one minute.",,RECALL_Test,60003,"climber, hill, climb, molehill, peak, valley, summit, steep, ski, bike, goat, glacier, ",0,2299,44419,0,0,,1
65e0f00fbfd8ae75bf44c1ab,2nwqo5yvz0,Ex2A_Prolific,1,92,2024-03-01T20:14:15+00:00,15.230357885361,2,Stim_B.csv,Read.csv,Read,B,,,,,,0,Instruct,User,3,"You will now be presented with a new study list. Click next when you are ready to begin.",,NEXT_LIST,13684,,,-1,-1,,,,1
65e0f00fbfd8ae75bf44c1ab,2nwqo5yvz0,Ex2A_Prolific,1,93,2024-03-01T20:14:23+00:00,7.7895729541779,2,Stim_B.csv,Read.csv,Read,B,band,,S1,,,62,Study,User,1.25,,Slow,S1,6995,,,-1,-1,,,,1
65e0f00fbfd8ae75bf44c1ab,2nwqo5yvz0,Ex2A_Prolific,1,94,2024-03-01T20:14:27+00:00,3.9687170982361,2,Stim_B.csv,Read.csv,Read,B,concert,,S2,,,63,Study,User,1.25,,Slow,S2,2431,,,-1,-1,,,,1
65e0f00fbfd8ae75bf44c1ab,2nwqo5yvz0,Ex2A_Prolific,1,95,2024-03-01T20:14:30+00:00,2.8024699687958,2,Stim_B.csv,Read.csv,Read,B,jazz,,S3,,,64,Study,User,1.25,,Slow,S3,1965,,,-1,-1,,,,1
65e0f00fbfd8ae75bf44c1ab,2nwqo5yvz0,Ex2A_Prolific,1,96,2024-03-01T20:14:33+00:00,2.8493058681488,2,Stim_B.csv,Read.csv,Read,B,symphony,,S4,,,65,Study,User,1.25,,Slow,S4,1998,,,-1,-1,,,,1
65e0f00fbfd8ae75bf44c1ab,2nwqo5yvz0,Ex2A_Prolific,1,97,2024-03-01T20:14:36+00:00,3.4796571731567,2,Stim_B.csv,Read.csv,Read,B,orchestra,,S5,,,66,Study,User,1.25,,Slow,S5,1909,,,-1,-1,,,,1
65e0f00fbfd8ae75bf44c1ab,2nwqo5yvz0,Ex2A_Prolific,1,98,2024-03-01T20:14:39+00:00,2.7398788928986,2,Stim_B.csv,Read.csv,Read,B,rhythm,,S6,,,67,Study,User,1.25,,Slow,S6,1853,,,-1,-1,,,,1
65e0f00fbfd8ae75bf44c1ab,2nwqo5yvz0,Ex2A_Prolific,1,99,2024-03-01T20:14:42+00:00,2.9802961349487,2,Stim_B.csv,Read.csv,Read,B,radio,,S7,,,68,Study,User,1.25,,Slow,S7,2128,,,-1,-1,,,,1
65e0f00fbfd8ae75bf44c1ab,2nwqo5yvz0,Ex2A_Prolific,1,100,2024-03-01T20:14:46+00:00,3.8565089702606,2,Stim_B.csv,Read.csv,Read,B,melody,,S8,,,69,Study,User,1.25,,Slow,S8,2253,,,-1,-1,,,,1
65e0f00fbfd8ae75bf44c1ab,2nwqo5yvz0,Ex2A_Prolific,1,101,2024-03-01T20:14:49+00:00,3.3260760307312,2,Stim_B.csv,Read.csv,Read,B,piano,,S9,,,70,Study,User,1.25,,Slow,S9,2120,,,-1,-1,,,,1
65e0f00fbfd8ae75bf44c1ab,2nwqo5yvz0,Ex2A_Prolific,1,102,2024-03-01T20:14:52+00:00,2.8964729309082,2,Stim_B.csv,Read.csv,Read,B,sound,,S10,,,71,Study,User,1.25,,Slow,S10,1964,,,-1,-1,,,,1
65e0f00fbfd8ae75bf44c1ab,2nwqo5yvz0,Ex2A_Prolific,1,103,2024-03-01T20:14:56+00:00,3.7214200496674,2,Stim_B.csv,Read.csv,Read,B,instrument,,S11,,,72,Study,User,1.25,,Slow,S11,2110,,,-1,-1,,,,1
65e0f00fbfd8ae75bf44c1ab,2nwqo5yvz0,Ex2A_Prolific,1,104,2024-03-01T20:14:58+00:00,2.8490350246429,2,Stim_B.csv,Read.csv,Read,B,note,,S12,,,73,Study,User,1.25,,Slow,S12,1943,,,-1,-1,,,,1
65e0f00fbfd8ae75bf44c1ab,2nwqo5yvz0,Ex2A_Prolific,1,105,2024-03-01T20:15:08+00:00,10.004520893097,2,Stim_B.csv,Read.csv,Read,B,,,,,,0,Instruct,User,4,"You have completed this section. Please click next.",,Instruct166,7311,,,-1,-1,,,,1
65e0f00fbfd8ae75bf44c1ab,2nwqo5yvz0,Ex2A_Prolific,1,106,2024-03-01T20:15:40+00:00,31.557822942734,2,Stim_B.csv,Read.csv,Read,B,,,,,,0,FreeRecall,30,30,"Please type as many words as you can that begin with the letter ""K"". The computer will automatically advance to the next screen in 30 seconds.",,FILLER,30009,"band concert jazz symphony orcgestra rhthm radio melody pi",0,1279,29889,0,0,,1
65e0f00fbfd8ae75bf44c1ab,2nwqo5yvz0,Ex2A_Prolific,1,107,2024-03-01T20:15:44+00:00,3.6977620124817,2,Stim_B.csv,Read.csv,Read,B,,,,,,0,Instruct,User,-,"You have completed this section. Please click next.",,Instruct166,2877,,,-1,-1,,,,1
65e0f00fbfd8ae75bf44c1ab,2nwqo5yvz0,Ex2A_Prolific,1,108,2024-03-01T20:15:51+00:00,7.5887341499329,2,Stim_B.csv,Read.csv,Read,B,,,,,,0,Instruct,User,4,"You will now complete a memory test for the words you just studied. Please type as many words from the previous list as you can seperated by a comma. Spelling will not count against you and you can recall the words in any order. This test will be timed for one minute, and the computer will automatically advance once time is up. Click next when you are ready to begin.",,Instruct1666,6116,,,-1,-1,,,,1
65e0f00fbfd8ae75bf44c1ab,2nwqo5yvz0,Ex2A_Prolific,1,109,2024-03-01T20:16:53+00:00,61.512772798538,2,Stim_B.csv,Read.csv,Read,B,,,,,,0,FreeRecall,60,60,"Please type as many words as you can from the previous study list in any order. Please separate each word with a comma. Spelling will not count against you. This screen will automatically advance in one minute.",,RECALL_Test,60004,"band, orchestra, rhythm. concert, jazz, symphony, radio, melody, p",0,3788,59988,0,0,,1
65e0f00fbfd8ae75bf44c1ab,2nwqo5yvz0,Ex2A_Prolific,1,110,2024-03-01T20:17:05+00:00,12.529244184494,2,Stim_B.csv,Read.csv,Read,B,,,,,,0,Instruct,User,3,"You will now be presented with a new study list. Click next when you are ready to begin.",,NEXT_LIST,11006,,,-1,-1,,,,1
65e0f00fbfd8ae75bf44c1ab,2nwqo5yvz0,Ex2A_Prolific,1,111,2024-03-01T20:17:18+00:00,12.771147966385,2,Stim_B.csv,Read.csv,Read,B,foam,,RR1,,,74,Study,User,1.25,,River,RR1,11205,,,-1,-1,,,,1
65e0f00fbfd8ae75bf44c1ab,2nwqo5yvz0,Ex2A_Prolific,1,112,2024-03-01T20:17:22+00:00,4.1401710510254,2,Stim_B.csv,Read.csv,Read,B,latex,,RR2,,,75,Study,User,1.25,,River,RR2,3275,,,-1,-1,,,,1
65e0f00fbfd8ae75bf44c1ab,2nwqo5yvz0,Ex2A_Prolific,1,113,2024-03-01T20:17:27+00:00,4.34898686409,2,Stim_B.csv,Read.csv,Read,B,galoshes,,RR3,,,76,Study,User,1.25,,River,RR3,2781,,,-1,-1,,,,1
65e0f00fbfd8ae75bf44c1ab,2nwqo5yvz0,Ex2A_Prolific,1,114,2024-03-01T20:17:30+00:00,3.2012009620667,2,Stim_B.csv,Read.csv,Read,B,tire,,RR4,,,77,Study,User,1.25,,River,RR4,2190,,,-1,-1,,,,1
65e0f00fbfd8ae75bf44c1ab,2nwqo5yvz0,Ex2A_Prolific,1,115,2024-03-01T20:17:33+00:00,3.2599890232086,2,Stim_B.csv,Read.csv,Read,B,flexible,,RR5,,,78,Study,User,1.25,,River,RR5,2407,,,-1,-1,,,,1
65e0f00fbfd8ae75bf44c1ab,2nwqo5yvz0,Ex2A_Prolific,1,116,2024-03-01T20:17:37+00:00,3.9009070396423,2,Stim_B.csv,Read.csv,Read,B,elastic,,RR6,,,79,Study,User,1.25,,River,RR6,2291,,,-1,-1,,,,1
65e0f00fbfd8ae75bf44c1ab,2nwqo5yvz0,Ex2A_Prolific,1,117,2024-03-01T20:17:40+00:00,3.1698880195618,2,Stim_B.csv,Read.csv,Read,B,gloves,,RR7,,,80,Study,User,1.25,,River,RR7,2247,,,-1,-1,,,,1
65e0f00fbfd8ae75bf44c1ab,2nwqo5yvz0,Ex2A_Prolific,1,118,2024-03-01T20:17:43+00:00,3.3490509986877,2,Stim_B.csv,Read.csv,Read,B,eraser,,RR8,,,81,Study,User,1.25,,River,RR8,2479,,,-1,-1,,,,1
65e0f00fbfd8ae75bf44c1ab,2nwqo5yvz0,Ex2A_Prolific,1,119,2024-03-01T20:17:48+00:00,4.1495471000671,2,Stim_B.csv,Read.csv,Read,B,bounce,,RR9,,,82,Study,User,1.25,,River,RR9,2552,,,-1,-1,,,,1
65e0f00fbfd8ae75bf44c1ab,2nwqo5yvz0,Ex2A_Prolific,1,120,2024-03-01T20:17:51+00:00,3.0127139091492,2,Stim_B.csv,Read.csv,Read,B,ball,,RR10,,,83,Study,User,1.25,,River,RR10,2164,,,-1,-1,,,,1
65e0f00fbfd8ae75bf44c1ab,2nwqo5yvz0,Ex2A_Prolific,1,121,2024-03-01T20:17:54+00:00,3.1600329875946,2,Stim_B.csv,Read.csv,Read,B,soles,,RR11,,,84,Study,User,1.25,,River,RR11,2240,,,-1,-1,,,,1
65e0f00fbfd8ae75bf44c1ab,2nwqo5yvz0,Ex2A_Prolific,1,122,2024-03-01T20:17:58+00:00,3.7702510356903,2,Stim_B.csv,Read.csv,Read,B,springy,,RR12,,,85,Study,User,1.25,,River,RR12,2209,,,-1,-1,,,,1
65e0f00fbfd8ae75bf44c1ab,2nwqo5yvz0,Ex2A_Prolific,1,123,2024-03-01T20:18:03+00:00,5.7563638687134,2,Stim_B.csv,Read.csv,Read,B,,,,,,0,Instruct,User,4,"You have completed this section. Please click next.",,Instruct166,4915,,,-1,-1,,,,1
65e0f00fbfd8ae75bf44c1ab,2nwqo5yvz0,Ex2A_Prolific,1,124,2024-03-01T20:18:35+00:00,31.591227054596,2,Stim_B.csv,Read.csv,Read,B,,,,,,0,FreeRecall,30,30,"Please type as many words as you can that begin with the letter ""K"". The computer will automatically advance to the next screen in 30 seconds.",,FILLER,30004,"foam latex galoshes tire flexible elastic g",0,4563,29941,0,0,,1
65e0f00fbfd8ae75bf44c1ab,2nwqo5yvz0,Ex2A_Prolific,1,125,2024-03-01T20:18:43+00:00,7.7491021156311,2,Stim_B.csv,Read.csv,Read,B,,,,,,0,Instruct,User,4,"You have completed this section. Please click next.",,Instruct166,6855,,,-1,-1,,,,1
65e0f00fbfd8ae75bf44c1ab,2nwqo5yvz0,Ex2A_Prolific,1,126,2024-03-01T20:18:49+00:00,6.4105448722839,2,Stim_B.csv,Read.csv,Read,B,,,,,,0,Instruct,User,4,"You will now complete a memory test for the words you just studied. Please type as many words from the previous list as you can seperated by a comma. Spelling will not count against you and you can recall the words in any order. This test will be timed for one minute, and the computer will automatically advance once time is up. Click next when you are ready to begin.",,Instruct1666,4927,,,-1,-1,,,,1
65e0f00fbfd8ae75bf44c1ab,2nwqo5yvz0,Ex2A_Prolific,1,127,2024-03-01T20:19:51+00:00,61.522181034088,2,Stim_B.csv,Read.csv,Read,B,,,,,,0,FreeRecall,60,60,"Please type as many words as you can from the previous study list in any order. Please separate each word with a comma. Spelling will not count against you. This screen will automatically advance in one minute.",,RECALL_Test,60004,"foam, latex, galoshes, tire, flexible, elastic, gloves, eraser, bounce, ball, soles, springy, ",0,930,54404,0,0,,1
65e0f00fbfd8ae75bf44c1ab,2nwqo5yvz0,Ex2A_Prolific,1,128,2024-03-01T20:20:03+00:00,12.868297100067,2,Stim_B.csv,Read.csv,Read,B,,,,,,0,Instruct,User,3,"You will now be presented with a new study list. Click next when you are ready to begin.",,NEXT_LIST,11130,,,-1,-1,,,,1
65e0f00fbfd8ae75bf44c1ab,2nwqo5yvz0,Ex2A_Prolific,1,129,2024-03-01T20:20:10+00:00,6.5247349739075,2,Stim_B.csv,Read.csv,Read,B,toe,,B1,,,86,Study,User,1.25,,Bread,B1,4999,,,-1,-1,,,,1
65e0f00fbfd8ae75bf44c1ab,2nwqo5yvz0,Ex2A_Prolific,1,130,2024-03-01T20:20:13+00:00,3.1666338443756,2,Stim_B.csv,Read.csv,Read,B,inch,,B2,,,87,Study,User,1.25,,Bread,B2,2310,,,-1,-1,,,,1
65e0f00fbfd8ae75bf44c1ab,2nwqo5yvz0,Ex2A_Prolific,1,131,2024-03-01T20:20:17+00:00,3.949490070343,2,Stim_B.csv,Read.csv,Read,B,ankle,,B3,,,88,Study,User,1.25,,Bread,B3,2400,,,-1,-1,,,,1
65e0f00fbfd8ae75bf44c1ab,2nwqo5yvz0,Ex2A_Prolific,1,132,2024-03-01T20:20:20+00:00,2.8283760547638,2,Stim_B.csv,Read.csv,Read,B,shoe,,B4,,,89,Study,User,1.25,,Bread,B4,1990,,,-1,-1,,,,1
65e0f00fbfd8ae75bf44c1ab,2nwqo5yvz0,Ex2A_Prolific,1,133,2024-03-01T20:20:23+00:00,3.0701279640198,2,Stim_B.csv,Read.csv,Read,B,sandals,,B5,,,90,Study,User,1.25,,Bread,B5,2186,,,-1,-1,,,,1
65e0f00fbfd8ae75bf44c1ab,2nwqo5yvz0,Ex2A_Prolific,1,134,2024-03-01T20:20:27+00:00,3.6426570415497,2,Stim_B.csv,Read.csv,Read,B,sock,,B6,,,91,Study,User,1.25,,Bread,B6,2112,,,-1,-1,,,,1
65e0f00fbfd8ae75bf44c1ab,2nwqo5yvz0,Ex2A_Prolific,1,135,2024-03-01T20:20:29+00:00,2.7884929180145,2,Stim_B.csv,Read.csv,Read,B,hand,,B7,,,92,Study,User,1.25,,Bread,B7,1956,,,-1,-1,,,,1
65e0f00fbfd8ae75bf44c1ab,2nwqo5yvz0,Ex2A_Prolific,1,136,2024-03-01T20:20:32+00:00,2.7517490386963,2,Stim_B.csv,Read.csv,Read,B,boot,,B8,,,93,Study,User,1.25,,Bread,B8,1898,,,-1,-1,,,,1
65e0f00fbfd8ae75bf44c1ab,2nwqo5yvz0,Ex2A_Prolific,1,137,2024-03-01T20:20:36+00:00,3.4200570583344,2,Stim_B.csv,Read.csv,Read,B,yard,,B9,,,94,Study,User,1.25,,Bread,B9,1916,,,-1,-1,,,,1
65e0f00fbfd8ae75bf44c1ab,2nwqo5yvz0,Ex2A_Prolific,1,138,2024-03-01T20:20:38+00:00,2.3396859169006,2,Stim_B.csv,Read.csv,Read,B,kick,,B10,,,95,Study,User,1.25,,Bread,B10,1525,,,-1,-1,,,,1
65e0f00fbfd8ae75bf44c1ab,2nwqo5yvz0,Ex2A_Prolific,1,139,2024-03-01T20:20:41+00:00,2.6002140045166,2,Stim_B.csv,Read.csv,Read,B,knee,,B11,,,96,Study,User,1.25,,Bread,B11,1763,,,-1,-1,,,,1
65e0f00fbfd8ae75bf44c1ab,2nwqo5yvz0,Ex2A_Prolific,1,140,2024-03-01T20:20:43+00:00,2.6487259864807,2,Stim_B.csv,Read.csv,Read,B,walk,,B12,,,97,Study,User,1.25,,Bread,B12,1837,,,-1,-1,,,,1
65e0f00fbfd8ae75bf44c1ab,2nwqo5yvz0,Ex2A_Prolific,1,141,2024-03-01T20:20:49+00:00,6.3015260696411,2,Stim_B.csv,Read.csv,Read,B,,,,,,0,Instruct,User,4,"You have completed this section. Please click next.",,Instruct166,4787,,,-1,-1,,,,1
65e0f00fbfd8ae75bf44c1ab,2nwqo5yvz0,Ex2A_Prolific,1,142,2024-03-01T20:21:21+00:00,31.576982021332,2,Stim_B.csv,Read.csv,Read,B,,,,,,0,FreeRecall,30,30,"Please type as many words as you can that begin with the letter ""M"". The computer will automatically advance to the next screen in 30 seconds.",,FILLER,30006,"toe inch ankle shoe sandals sock ",0,10340,28293,0,0,,0.873
65e0f00fbfd8ae75bf44c1ab,2nwqo5yvz0,Ex2A_Prolific,1,143,2024-03-01T20:21:28+00:00,7.3424530029297,2,Stim_B.csv,Read.csv,Read,B,,,,,,0,Instruct,User,-,"You have completed this section. Please click next.",,Instruct166,5788,,,-1,-1,,,,1
65e0f00fbfd8ae75bf44c1ab,2nwqo5yvz0,Ex2A_Prolific,1,144,2024-03-01T20:21:34+00:00,6.099925994873,2,Stim_B.csv,Read.csv,Read,B,,,,,,0,Instruct,User,4,"You will now complete a memory test for the words you just studied. Please type as many words from the previous list as you can seperated by a comma. Spelling will not count against you and you can recall the words in any order. This test will be timed for one minute, and the computer will automatically advance once time is up. Click next when you are ready to begin.",,Instruct1666,5267,,,-1,-1,,,,1
65e0f00fbfd8ae75bf44c1ab,2nwqo5yvz0,Ex2A_Prolific,1,145,2024-03-01T20:22:36+00:00,61.489827871323,2,Stim_B.csv,Read.csv,Read,B,,,,,,0,FreeRecall,60,60,"Please type as many words as you can from the previous study list in any order. Please separate each word with a comma. Spelling will not count against you. This screen will automatically advance in one minute.",,RECALL_Test,60003,"toe, sandals, inch, ankle, shoe, sock, hand, boot, yard, kick, knee, walk, ",0,2260,41917,0,0,,1
65e0f00fbfd8ae75bf44c1ab,2nwqo5yvz0,Ex2A_Prolific,1,146,2024-03-01T20:22:47+00:00,11.456815004349,2,Stim_B.csv,Read.csv,Read,B,,,,,,0,Instruct,User,3,"You will now be presented with a new study list. Click next when you are ready to begin.",,NEXT_LIST,9932,,,-1,-1,,,,1
65e0f00fbfd8ae75bf44c1ab,2nwqo5yvz0,Ex2A_Prolific,1,147,2024-03-01T20:22:53+00:00,5.453320980072,2,Stim_B.csv,Read.csv,Read,B,boy,,F1,,,98,Study,User,1.25,,Flag,F1,4688,,,-1,-1,,,,1
65e0f00fbfd8ae75bf44c1ab,2nwqo5yvz0,Ex2A_Prolific,1,148,2024-03-01T20:22:57+00:00,3.6796791553497,2,Stim_B.csv,Read.csv,Read,B,dolls,,F2,,,99,Study,User,1.25,,Flag,F2,2204,,,-1,-1,,,,1
65e0f00fbfd8ae75bf44c1ab,2nwqo5yvz0,Ex2A_Prolific,1,149,2024-03-01T20:22:59+00:00,2.8896560668945,2,Stim_B.csv,Read.csv,Read,B,pretty,,F3,,,100,Study,User,1.25,,Flag,F3,2113,,,-1,-1,,,,1
65e0f00fbfd8ae75bf44c1ab,2nwqo5yvz0,Ex2A_Prolific,1,150,2024-03-01T20:23:02+00:00,2.8949978351593,2,Stim_B.csv,Read.csv,Read,B,female,,F4,,,101,Study,User,1.25,,Flag,F4,2124,,,-1,-1,,,,1
65e0f00fbfd8ae75bf44c1ab,2nwqo5yvz0,Ex2A_Prolific,1,151,2024-03-01T20:23:06+00:00,3.6266911029816,2,Stim_B.csv,Read.csv,Read,B,dress,,F5,,,102,Study,User,1.25,,Flag,F5,2113,,,-1,-1,,,,1
65e0f00fbfd8ae75bf44c1ab,2nwqo5yvz0,Ex2A_Prolific,1,152,2024-03-01T20:23:09+00:00,3.0282230377197,2,Stim_B.csv,Read.csv,Read,B,date,,F6,,,103,Study,User,1.25,,Flag,F6,2141,,,-1,-1,,,,1
65e0f00fbfd8ae75bf44c1ab,2nwqo5yvz0,Ex2A_Prolific,1,153,2024-03-01T20:23:12+00:00,2.9520258903503,2,Stim_B.csv,Read.csv,Read,B,beautiful,,F7,,,104,Study,User,1.25,,Flag,F7,2103,,,-1,-1,,,,1
65e0f00fbfd8ae75bf44c1ab,2nwqo5yvz0,Ex2A_Prolific,1,154,2024-03-01T20:23:16+00:00,3.6486489772797,2,Stim_B.csv,Read.csv,Read,B,daughter,,F8,,,105,Study,User,1.25,,Flag,F8,2111,,,-1,-1,,,,1
65e0f00fbfd8ae75bf44c1ab,2nwqo5yvz0,Ex2A_Prolific,1,155,2024-03-01T20:23:18+00:00,2.8825759887695,2,Stim_B.csv,Read.csv,Read,B,sister,,F9,,,106,Study,User,1.25,,Flag,F9,2026,,,-1,-1,,,,1
65e0f00fbfd8ae75bf44c1ab,2nwqo5yvz0,Ex2A_Prolific,1,156,2024-03-01T20:23:21+00:00,2.959144115448,2,Stim_B.csv,Read.csv,Read,B,cute,,F10,,,107,Study,User,1.25,,Flag,F10,2090,,,-1,-1,,,,1
65e0f00fbfd8ae75bf44c1ab,2nwqo5yvz0,Ex2A_Prolific,1,157,2024-03-01T20:23:24+00:00,2.7685949802399,2,Stim_B.csv,Read.csv,Read,B,niece,,F11,,,108,Study,User,1.25,,Flag,F11,1937,,,-1,-1,,,,1
65e0f00fbfd8ae75bf44c1ab,2nwqo5yvz0,Ex2A_Prolific,1,158,2024-03-01T20:23:28+00:00,3.6997900009155,2,Stim_B.csv,Read.csv,Read,B,young,,F12,,,109,Study,User,1.25,,Flag,F12,2038,,,-1,-1,,,,1
65e0f00fbfd8ae75bf44c1ab,2nwqo5yvz0,Ex2A_Prolific,1,159,2024-03-01T20:23:36+00:00,8.0718269348145,2,Stim_B.csv,Read.csv,Read,B,,,,,,0,Instruct,User,4,"You have completed this section. Please click next.",,Instruct166,6504,,,-1,-1,,,,1
65e0f00fbfd8ae75bf44c1ab,2nwqo5yvz0,Ex2A_Prolific,1,160,2024-03-01T20:24:08+00:00,31.620245933533,2,Stim_B.csv,Read.csv,Read,B,,,,,,0,FreeRecall,30,30,"Please type as many words as you can that begin with the letter ""K"". The computer will automatically advance to the next screen in 30 seconds.",,FILLER,30005,"boy dolls pretty female dress date beautiful daugfhter sister ",0,1109,29674,0,0,,1
65e0f00fbfd8ae75bf44c1ab,2nwqo5yvz0,Ex2A_Prolific,1,161,2024-03-01T20:24:13+00:00,5.2721040248871,2,Stim_B.csv,Read.csv,Read,B,,,,,,0,Instruct,User,-,"You have completed this section. Please click next.",,Instruct166,4383,,,-1,-1,,,,1
65e0f00fbfd8ae75bf44c1ab,2nwqo5yvz0,Ex2A_Prolific,1,162,2024-03-01T20:24:20+00:00,6.7083489894867,2,Stim_B.csv,Read.csv,Read,B,,,,,,0,Instruct,User,4,"You will now complete a memory test for the words you just studied. Please type as many words from the previous list as you can seperated by a comma. Spelling will not count against you and you can recall the words in any order. This test will be timed for one minute, and the computer will automatically advance once time is up. Click next when you are ready to begin.",,Instruct1666,5182,,,-1,-1,,,,1
65e0f00fbfd8ae75bf44c1ab,2nwqo5yvz0,Ex2A_Prolific,1,163,2024-03-01T20:25:21+00:00,61.549525976181,2,Stim_B.csv,Read.csv,Read,B,,,,,,0,FreeRecall,60,60,"Please type as many words as you can from the previous study list in any order. Please separate each word with a comma. Spelling will not count against you. This screen will automatically advance in one minute.",,RECALL_Test,60005,"boy, dolls, pretty, female, dress, date, beautiful, daughter, sister, niece, young, ",0,8431,47488,0,0,,1
65e0f00fbfd8ae75bf44c1ab,2nwqo5yvz0,Ex2A_Prolific,1,164,2024-03-01T20:26:02+00:00,41.184130191803,2,Stim_B.csv,Read.csv,Read,B,,,,,,0,Instruct,User,3,"You will now be presented with a new study list. Click next when you are ready to begin.",,NEXT_LIST,39658,,,-1,-1,,,,0.442
65e0f00fbfd8ae75bf44c1ab,2nwqo5yvz0,Ex2A_Prolific,1,165,2024-03-01T20:26:11+00:00,9.1185019016266,2,Stim_B.csv,Read.csv,Read,B,white,,SS1,,,110,Study,User,1.25,,Shirt,SS1,7606,,,-1,-1,,,,1
65e0f00fbfd8ae75bf44c1ab,2nwqo5yvz0,Ex2A_Prolific,1,166,2024-03-01T20:26:14+00:00,2.8685750961304,2,Stim_B.csv,Read.csv,Read,B,gray,,SS2,,,111,Study,User,1.25,,Shirt,SS2,2005,,,-1,-1,,,,1
65e0f00fbfd8ae75bf44c1ab,2nwqo5yvz0,Ex2A_Prolific,1,167,2024-03-01T20:26:18+00:00,3.5886809825897,2,Stim_B.csv,Read.csv,Read,B,brown,,SS3,,,112,Study,User,1.25,,Shirt,SS3,2051,,,-1,-1,,,,1
65e0f00fbfd8ae75bf44c1ab,2nwqo5yvz0,Ex2A_Prolific,1,168,2024-03-01T20:26:21+00:00,2.7395808696747,2,Stim_B.csv,Read.csv,Read,B,coal,,SS4,,,113,Study,User,1.25,,Shirt,SS4,1852,,,-1,-1,,,,1
65e0f00fbfd8ae75bf44c1ab,2nwqo5yvz0,Ex2A_Prolific,1,169,2024-03-01T20:26:24+00:00,2.9013421535492,2,Stim_B.csv,Read.csv,Read,B,dark,,SS5,,,114,Study,User,1.25,,Shirt,SS5,1984,,,-1,-1,,,,1
65e0f00fbfd8ae75bf44c1ab,2nwqo5yvz0,Ex2A_Prolific,1,170,2024-03-01T20:26:27+00:00,3.4811809062958,2,Stim_B.csv,Read.csv,Read,B,color,,SS6,,,115,Study,User,1.25,,Shirt,SS6,1992,,,-1,-1,,,,1
65e0f00fbfd8ae75bf44c1ab,2nwqo5yvz0,Ex2A_Prolific,1,171,2024-03-01T20:26:30+00:00,2.7082850933075,2,Stim_B.csv,Read.csv,Read,B,funeral,,SS7,,,116,Study,User,1.25,,Shirt,SS7,1868,,,-1,-1,,,,1
65e0f00fbfd8ae75bf44c1ab,2nwqo5yvz0,Ex2A_Prolific,1,172,2024-03-01T20:26:33+00:00,2.8310918807983,2,Stim_B.csv,Read.csv,Read,B,blue,,SS8,,,117,Study,User,1.25,,Shirt,SS8,2008,,,-1,-1,,,,1
65e0f00fbfd8ae75bf44c1ab,2nwqo5yvz0,Ex2A_Prolific,1,173,2024-03-01T20:26:36+00:00,3.519679069519,2,Stim_B.csv,Read.csv,Read,B,charred,,SS9,,,118,Study,User,1.25,,Shirt,SS9,2009,,,-1,-1,,,,1
65e0f00fbfd8ae75bf44c1ab,2nwqo5yvz0,Ex2A_Prolific,1,174,2024-03-01T20:26:39+00:00,3.1582880020142,2,Stim_B.csv,Read.csv,Read,B,ink,,SS10,,,119,Study,User,1.25,,Shirt,SS10,2251,,,-1,-1,,,,1
65e0f00fbfd8ae75bf44c1ab,2nwqo5yvz0,Ex2A_Prolific,1,175,2024-03-01T20:26:42+00:00,3.1208188533783,2,Stim_B.csv,Read.csv,Read,B,death,,SS11,,,120,Study,User,1.25,,Shirt,SS11,2270,,,-1,-1,,,,1
65e0f00fbfd8ae75bf44c1ab,2nwqo5yvz0,Ex2A_Prolific,1,176,2024-03-01T20:26:46+00:00,3.7593321800232,2,Stim_B.csv,Read.csv,Read,B,cat,,SS12,,,121,Study,User,1.25,,Shirt,SS12,2246,,,-1,-1,,,,1
65e0f00fbfd8ae75bf44c1ab,2nwqo5yvz0,Ex2A_Prolific,1,177,2024-03-01T20:26:50+00:00,3.4099009037018,2,Stim_B.csv,Read.csv,Read,B,,,,,,0,Instruct,User,-,"You have completed this section. Please click next.",,Instruct166,2578,,,-1,-1,,,,1
65e0f00fbfd8ae75bf44c1ab,2nwqo5yvz0,Ex2A_Prolific,1,178,2024-03-01T20:27:21+00:00,31.573647022247,2,Stim_B.csv,Read.csv,Read,B,,,,,,0,FreeRecall,30,30,"Please type as many words as you can that begin with the letter ""B"". The computer will automatically advance to the next screen in 30 seconds.",,FILLER,30004,"white, gray brown coal da",0,6002,29627,0,0,,1
65e0f00fbfd8ae75bf44c1ab,2nwqo5yvz0,Ex2A_Prolific,1,179,2024-03-01T20:27:25+00:00,4.0169959068298,2,Stim_B.csv,Read.csv,Read,B,,,,,,0,Instruct,User,-,"You have completed this section. Please click next.",,Instruct166,3145,,,277,1158,,,,1
65e0f00fbfd8ae75bf44c1ab,2nwqo5yvz0,Ex2A_Prolific,1,180,2024-03-01T20:27:31+00:00,6.0125720500946,2,Stim_B.csv,Read.csv,Read,B,,,,,,0,Instruct,User,4,"You will now complete a memory test for the words you just studied. Please type as many words from the previous list as you can seperated by a comma. Spelling will not count against you and you can recall the words in any order. This test will be timed for one minute, and the computer will automatically advance once time is up. Click next when you are ready to begin.",,Instruct1666,5123,,,-1,-1,,,,1
65e0f00fbfd8ae75bf44c1ab,2nwqo5yvz0,Ex2A_Prolific,1,181,2024-03-01T20:28:33+00:00,61.567013978958,2,Stim_B.csv,Read.csv,Read,B,,,,,,0,FreeRecall,60,60,"Please type as many words as you can from the previous study list in any order. Please separate each word with a comma. Spelling will not count against you. This screen will automatically advance in one minute.",,RECALL_Test,60006,"charred, ink, death, cat, white, gray, brown, coal, dark, color, funeral, blue ",0,1097,41253,0,0,,1
65e0f00fbfd8ae75bf44c1ab,2nwqo5yvz0,Ex2A_Prolific,1,182,2024-03-01T20:28:39+00:00,6.3701620101929,2,Stim_B.csv,Read.csv,Read,B,,,,,,0,Instruct,User,-,"You have completed this section. Please click next.",,Instruct7,4873,,,-1,-1,,,,1
65e0f00fbfd8ae75bf44c1ab,2nwqo5yvz0,Ex2A_Prolific,1,183,2024-03-01T20:29:00+00:00,21.154741048813,2,Stim_B.csv,Read.csv,Read,B,,,,,,0,Instruct,User,-,"The following screen will ask you a few questions abour your experience today. You must complete these questions to receive credit.",,Instruct8,19587,,,-1,-1,,,,1
