Username,ID,ExperimentName,Session,Trial,Date,TimeDif,"Condition Number","Stimuli File","Order File","Condition Description","Condition Notes",Stimuli*Cue,Stimuli*Answer,Stimuli*Shuffle,"Stimuli*Stimuli Notes",Stimuli*Value,Procedure*Item,"Procedure*Trial Type","Procedure*Max Time","Procedure*Min Time",Procedure*Text,"Procedure*Procedure Notes",Procedure*Shuffle,Response*RT,Response*Response,Response*Accuracy,Response*RTfirst,Response*RTlast,Response*strictAcc,Response*lenientAcc,Response*focus,Response*Focus
65de1d31c4db0e1398cdc3c9,yd5nbd33np,Ex2A_Prolific,1,1,2024-02-27T21:43:56+00:00,35.886173963547,1,Stim_A.csv,Read.csv,Read,A,,,,,,0,Instruct,-,5,"In this section, you will be presented with a series of words. Please study each word carefully. Your memory will be tested! Click next when you are ready to begin.",Initial_Instruct,Instruct1,35731,,,-1,-1,,,,1
65de1d31c4db0e1398cdc3c9,yd5nbd33np,Ex2A_Prolific,1,2,2024-02-27T22:01:37+00:00,1061.4380819798,1,Stim_A.csv,Read.csv,Read,A,,,,,,0,Instruct,User,-,"You will now begin the study. Click next when you are ready to begin.",,Instruct16,1061267,,,-1,-1,,,,1
65de1d31c4db0e1398cdc3c9,yd5nbd33np,Ex2A_Prolific,1,3,2024-02-27T22:01:40+00:00,2.9444968700409,1,Stim_A.csv,Read.csv,Read,A,pane,,Win_1,,,2,Study,User,1.25,,Window,Win_1,2763,,,-1,-1,,,,1
65de1d31c4db0e1398cdc3c9,yd5nbd33np,Ex2A_Prolific,1,4,2024-02-27T22:01:43+00:00,2.5253300666809,1,Stim_A.csv,Read.csv,Read,A,sill,,Win_2,,,3,Study,User,1.25,,Window,Win_2,2364,,,-1,-1,,,,1
65de1d31c4db0e1398cdc3c9,yd5nbd33np,Ex2A_Prolific,1,5,2024-02-27T22:01:46+00:00,3.2699921131134,1,Stim_A.csv,Read.csv,Read,A,shutter,,Win_3,,,4,Study,User,1.25,,Window,Win_3,3082,,,-1,-1,,,,1
65de1d31c4db0e1398cdc3c9,yd5nbd33np,Ex2A_Prolific,1,6,2024-02-27T22:01:49+00:00,2.6829710006714,1,Stim_A.csv,Read.csv,Read,A,curtain,,Win_4,,,5,Study,User,1.25,,Window,Win_4,2501,,,-1,-1,,,,1
65de1d31c4db0e1398cdc3c9,yd5nbd33np,Ex2A_Prolific,1,7,2024-02-27T22:01:51+00:00,2.2558569908142,1,Stim_A.csv,Read.csv,Read,A,door,,Win_5,,,6,Study,User,1.25,,Window,Win_5,2087,,,-1,-1,,,,1
65de1d31c4db0e1398cdc3c9,yd5nbd33np,Ex2A_Prolific,1,8,2024-02-27T22:01:53+00:00,1.8919768333435,1,Stim_A.csv,Read.csv,Read,A,ledge,,Win_6,,,7,Study,User,1.25,,Window,Win_6,1720,,,-1,-1,,,,1
65de1d31c4db0e1398cdc3c9,yd5nbd33np,Ex2A_Prolific,1,9,2024-02-27T22:01:54+00:00,1.7596480846405,1,Stim_A.csv,Read.csv,Read,A,glass,,Win_7,,,8,Study,User,1.25,,Window,Win_7,1588,,,-1,-1,,,,1
65de1d31c4db0e1398cdc3c9,yd5nbd33np,Ex2A_Prolific,1,10,2024-02-27T22:01:58+00:00,3.2572128772736,1,Stim_A.csv,Read.csv,Read,A,view,,Win_8,,,9,Study,User,1.25,,Window,Win_8,3044,,,-1,-1,,,,1
65de1d31c4db0e1398cdc3c9,yd5nbd33np,Ex2A_Prolific,1,11,2024-02-27T22:01:59+00:00,1.4708909988403,1,Stim_A.csv,Read.csv,Read,A,screen,,Win_9,,,10,Study,User,1.25,,Window,Win_9,1291,,,-1,-1,,,,1
65de1d31c4db0e1398cdc3c9,yd5nbd33np,Ex2A_Prolific,1,12,2024-02-27T22:02:01+00:00,1.5662631988525,1,Stim_A.csv,Read.csv,Read,A,shade,,Win_10,,,11,Study,User,1.25,,Window,Win_10,1359,,,-1,-1,,,,1
65de1d31c4db0e1398cdc3c9,yd5nbd33np,Ex2A_Prolific,1,13,2024-02-27T22:02:03+00:00,2.2754199504852,1,Stim_A.csv,Read.csv,Read,A,open,,Win_11,,,12,Study,User,1.25,,Window,Win_11,2107,,,-1,-1,,,,1
65de1d31c4db0e1398cdc3c9,yd5nbd33np,Ex2A_Prolific,1,14,2024-02-27T22:02:05+00:00,1.5011868476868,1,Stim_A.csv,Read.csv,Read,A,frame,,Win_12,,,13,Study,User,1.25,,Window,Win_12,1334,,,-1,-1,,,,1
65de1d31c4db0e1398cdc3c9,yd5nbd33np,Ex2A_Prolific,1,15,2024-02-27T22:02:09+00:00,4.9452300071716,1,Stim_A.csv,Read.csv,Read,A,,,,,,0,Instruct,User,4,"You have completed this section. Please click next.",,Instruct166,4735,,,-1,-1,,,,1
65de1d31c4db0e1398cdc3c9,yd5nbd33np,Ex2A_Prolific,1,16,2024-02-27T22:02:40+00:00,30.225505113602,1,Stim_A.csv,Read.csv,Read,A,,,,,,0,FreeRecall,30,30,"Please type as many words as you can that begin with the letter ""K"". The computer will automatically advance to the next screen in 30 seconds.",,FILLER,30003,"knight, kite, kelp, kretin, kill, ",0,7301,25771,0,0,,1
65de1d31c4db0e1398cdc3c9,yd5nbd33np,Ex2A_Prolific,1,17,2024-02-27T22:02:42+00:00,2.1971280574799,1,Stim_A.csv,Read.csv,Read,A,,,,,,0,Instruct,User,-,"You have completed this section. Please click next.",,Instruct166,1997,,,-1,-1,,,,1
65de1d31c4db0e1398cdc3c9,yd5nbd33np,Ex2A_Prolific,1,18,2024-02-27T22:02:52+00:00,10.229431867599,1,Stim_A.csv,Read.csv,Read,A,,,,,,0,Instruct,User,4,"You will now complete a memory test for the words you just studied. Please type as many words from the previous list as you can seperated by a comma. Spelling will not count against you and you can recall the words in any order. This test will be timed for one minute, and the computer will automatically advance once time is up. Click next when you are ready to begin.",,Instruct1666,9990,,,-1,-1,,,,1
65de1d31c4db0e1398cdc3c9,yd5nbd33np,Ex2A_Prolific,1,19,2024-02-27T22:03:52+00:00,60.221765995026,1,Stim_A.csv,Read.csv,Read,A,,,,,,0,FreeRecall,60,60,"Please type as many words as you can from the previous study list in any order. Please separate each word with a comma. Spelling will not count against you. This screen will automatically advance in one minute.",,RECALL_Test,60002,"pane, window, shutter, curtain, sill",0,1569,15472,0,0,,1
65de1d31c4db0e1398cdc3c9,yd5nbd33np,Ex2A_Prolific,1,20,2024-02-27T22:03:57+00:00,4.2546210289001,1,Stim_A.csv,Read.csv,Read,A,,,,,,0,Instruct,User,3,"You will now be presented with a new study list. Click next when you are ready to begin.",,NEXT_LIST,4048,,,-1,-1,,,,1
65de1d31c4db0e1398cdc3c9,yd5nbd33np,Ex2A_Prolific,1,21,2024-02-27T22:04:00+00:00,3.0275590419769,1,Stim_A.csv,Read.csv,Read,A,sandpaper,,R1,,,14,Study,User,1.25,,Rough,R1,2868,,,-1,-1,,,,1
65de1d31c4db0e1398cdc3c9,yd5nbd33np,Ex2A_Prolific,1,22,2024-02-27T22:04:02+00:00,2.4081299304962,1,Stim_A.csv,Read.csv,Read,A,smooth,,R2,,,15,Study,User,1.25,,Rough,R2,2248,,,-1,-1,,,,1
65de1d31c4db0e1398cdc3c9,yd5nbd33np,Ex2A_Prolific,1,23,2024-02-27T22:04:04+00:00,1.7247250080109,1,Stim_A.csv,Read.csv,Read,A,coarse,,R3,,,16,Study,User,1.25,,Rough,R3,1547,,,-1,-1,,,,1
65de1d31c4db0e1398cdc3c9,yd5nbd33np,Ex2A_Prolific,1,24,2024-02-27T22:04:06+00:00,1.7732501029968,1,Stim_A.csv,Read.csv,Read,A,tough,,R4,,,17,Study,User,1.25,,Rough,R4,1613,,,-1,-1,,,,1
65de1d31c4db0e1398cdc3c9,yd5nbd33np,Ex2A_Prolific,1,25,2024-02-27T22:04:07+00:00,1.4575350284576,1,Stim_A.csv,Read.csv,Read,A,rugged,,R5,,,18,Study,User,1.25,,Rough,R5,1294,,,-1,-1,,,,1
65de1d31c4db0e1398cdc3c9,yd5nbd33np,Ex2A_Prolific,1,26,2024-02-27T22:04:08+00:00,1.4700858592987,1,Stim_A.csv,Read.csv,Read,A,bumpy,,R6,,,19,Study,User,1.25,,Rough,R6,1266,,,-1,-1,,,,1
65de1d31c4db0e1398cdc3c9,yd5nbd33np,Ex2A_Prolific,1,27,2024-02-27T22:04:11+00:00,2.5336780548096,1,Stim_A.csv,Read.csv,Read,A,jagged,,R7,,,20,Study,User,1.25,,Rough,R7,2373,,,-1,-1,,,,1
65de1d31c4db0e1398cdc3c9,yd5nbd33np,Ex2A_Prolific,1,28,2024-02-27T22:04:12+00:00,1.4334669113159,1,Stim_A.csv,Read.csv,Read,A,riders,,R8,,,21,Study,User,1.25,,Rough,R8,1260,,,-1,-1,,,,1
65de1d31c4db0e1398cdc3c9,yd5nbd33np,Ex2A_Prolific,1,29,2024-02-27T22:04:15+00:00,2.3821201324463,1,Stim_A.csv,Read.csv,Read,A,uneven,,R9,,,22,Study,User,1.25,,Rough,R9,2196,,,-1,-1,,,,1
65de1d31c4db0e1398cdc3c9,yd5nbd33np,Ex2A_Prolific,1,30,2024-02-27T22:04:17+00:00,1.7805099487305,1,Stim_A.csv,Read.csv,Read,A,road,,R10,,,23,Study,User,1.25,,Rough,R10,1620,,,-1,-1,,,,1
65de1d31c4db0e1398cdc3c9,yd5nbd33np,Ex2A_Prolific,1,31,2024-02-27T22:04:19+00:00,2.8806979656219,1,Stim_A.csv,Read.csv,Read,A,ready,,R11,,,24,Study,User,1.25,,Rough,R11,2717,,,-1,-1,,,,1
65de1d31c4db0e1398cdc3c9,yd5nbd33np,Ex2A_Prolific,1,32,2024-02-27T22:04:21+00:00,1.694286108017,1,Stim_A.csv,Read.csv,Read,A,sand,,R12,,,25,Study,User,1.25,,Rough,R12,1534,,,-1,-1,,,,1
65de1d31c4db0e1398cdc3c9,yd5nbd33np,Ex2A_Prolific,1,33,2024-02-27T22:04:23+00:00,1.4040620326996,1,Stim_A.csv,Read.csv,Read,A,,,,,,0,Instruct,User,-,"You have completed this section. Please click next.",,Instruct166,1245,,,-1,-1,,,,1
65de1d31c4db0e1398cdc3c9,yd5nbd33np,Ex2A_Prolific,1,34,2024-02-27T22:04:53+00:00,30.224637985229,1,Stim_A.csv,Read.csv,Read,A,,,,,,0,FreeRecall,30,30,"Please type as many words as you can that begin with the letter ""K"". The computer will automatically advance to the next screen in 30 seconds.",,FILLER,30002,"knight, kill, king, kings, kiss, kiln, ",0,4380,24787,0,0,,1
65de1d31c4db0e1398cdc3c9,yd5nbd33np,Ex2A_Prolific,1,35,2024-02-27T22:04:55+00:00,1.9509608745575,1,Stim_A.csv,Read.csv,Read,A,,,,,,0,Instruct,User,-,"You have completed this section. Please click next.",,Instruct166,1788,,,-1,-1,,,,1
65de1d31c4db0e1398cdc3c9,yd5nbd33np,Ex2A_Prolific,1,36,2024-02-27T22:04:59+00:00,4.6466569900513,1,Stim_A.csv,Read.csv,Read,A,,,,,,0,Instruct,User,4,"You will now complete a memory test for the words you just studied. Please type as many words from the previous list as you can seperated by a comma. Spelling will not count against you and you can recall the words in any order. This test will be timed for one minute, and the computer will automatically advance once time is up. Click next when you are ready to begin.",,Instruct1666,4449,,,-1,-1,,,,1
65de1d31c4db0e1398cdc3c9,yd5nbd33np,Ex2A_Prolific,1,37,2024-02-27T22:06:00+00:00,60.219799041748,1,Stim_A.csv,Read.csv,Read,A,,,,,,0,FreeRecall,60,60,"Please type as many words as you can from the previous study list in any order. Please separate each word with a comma. Spelling will not count against you. This screen will automatically advance in one minute.",,RECALL_Test,60002,"sandpaper, coarse, bumpy, uneven, road, rough, ",0,3104,14810,0,0,,1
65de1d31c4db0e1398cdc3c9,yd5nbd33np,Ex2A_Prolific,1,38,2024-02-27T22:06:48+00:00,48.856596946716,1,Stim_A.csv,Read.csv,Read,A,,,,,,0,Instruct,User,3,"You will now be presented with a new study list. Click next when you are ready to begin.",,NEXT_LIST,48641,,,-1,-1,,,,1
65de1d31c4db0e1398cdc3c9,yd5nbd33np,Ex2A_Prolific,1,39,2024-02-27T22:06:52+00:00,3.1784520149231,1,Stim_A.csv,Read.csv,Read,A,rage,,A1,,,26,Study,User,1.25,,Anger,A1,3014,,,-1,-1,,,,1
65de1d31c4db0e1398cdc3c9,yd5nbd33np,Ex2A_Prolific,1,40,2024-02-27T22:06:53+00:00,1.6058399677277,1,Stim_A.csv,Read.csv,Read,A,mad,,A2,,,27,Study,User,1.25,,Anger,A2,1443,,,-1,-1,,,,1
65de1d31c4db0e1398cdc3c9,yd5nbd33np,Ex2A_Prolific,1,41,2024-02-27T22:06:56+00:00,3.1116042137146,1,Stim_A.csv,Read.csv,Read,A,enrage,,A3,,,28,Study,User,1.25,,Anger,A3,2950,,,-1,-1,,,,1
65de1d31c4db0e1398cdc3c9,yd5nbd33np,Ex2A_Prolific,1,42,2024-02-27T22:06:59+00:00,2.3488998413086,1,Stim_A.csv,Read.csv,Read,A,fury,,A4,,,29,Study,User,1.25,,Anger,A4,2201,,,-1,-1,,,,1
65de1d31c4db0e1398cdc3c9,yd5nbd33np,Ex2A_Prolific,1,43,2024-02-27T22:07:03+00:00,4.389622926712,1,Stim_A.csv,Read.csv,Read,A,temper,,A5,,,30,Study,User,1.25,,Anger,A5,4178,,,-1,-1,,,,1
65de1d31c4db0e1398cdc3c9,yd5nbd33np,Ex2A_Prolific,1,44,2024-02-27T22:07:05+00:00,2.1871061325073,1,Stim_A.csv,Read.csv,Read,A,ire,,A6,,,31,Study,User,1.25,,Anger,A6,2022,,,-1,-1,,,,1
65de1d31c4db0e1398cdc3c9,yd5nbd33np,Ex2A_Prolific,1,45,2024-02-27T22:07:08+00:00,2.3090040683746,1,Stim_A.csv,Read.csv,Read,A,wrath,,A7,,,32,Study,User,1.25,,Anger,A7,2133,,,-1,-1,,,,1
65de1d31c4db0e1398cdc3c9,yd5nbd33np,Ex2A_Prolific,1,46,2024-02-27T22:07:11+00:00,3.0406358242035,1,Stim_A.csv,Read.csv,Read,A,mean,,A8,,,33,Study,User,1.25,,Anger,A8,2878,,,-1,-1,,,,1
65de1d31c4db0e1398cdc3c9,yd5nbd33np,Ex2A_Prolific,1,47,2024-02-27T22:07:13+00:00,2.0112249851227,1,Stim_A.csv,Read.csv,Read,A,hatred,,A9,,,34,Study,User,1.25,,Anger,A9,1819,,,-1,-1,,,,1
65de1d31c4db0e1398cdc3c9,yd5nbd33np,Ex2A_Prolific,1,48,2024-02-27T22:07:15+00:00,2.4072751998901,1,Stim_A.csv,Read.csv,Read,A,fight,,A10,,,35,Study,User,1.25,,Anger,A10,2245,,,-1,-1,,,,1
65de1d31c4db0e1398cdc3c9,yd5nbd33np,Ex2A_Prolific,1,49,2024-02-27T22:07:17+00:00,2.1889708042145,1,Stim_A.csv,Read.csv,Read,A,hate,,A11,,,36,Study,User,1.25,,Anger,A11,2022,,,-1,-1,,,,1
65de1d31c4db0e1398cdc3c9,yd5nbd33np,Ex2A_Prolific,1,50,2024-02-27T22:07:20+00:00,2.5948920249939,1,Stim_A.csv,Read.csv,Read,A,fear,,A12,,,37,Study,User,1.25,,Anger,A12,2427,,,-1,-1,,,,1
65de1d31c4db0e1398cdc3c9,yd5nbd33np,Ex2A_Prolific,1,51,2024-02-27T22:07:25+00:00,5.1826620101929,1,Stim_A.csv,Read.csv,Read,A,,,,,,0,Instruct,User,4,"You have completed this section. Please click next.",,Instruct166,4980,,,-1,-1,,,,1
65de1d31c4db0e1398cdc3c9,yd5nbd33np,Ex2A_Prolific,1,52,2024-02-27T22:07:55+00:00,30.23039317131,1,Stim_A.csv,Read.csv,Read,A,,,,,,0,FreeRecall,30,30,"Please type as many words as you can that begin with the letter ""K"". The computer will automatically advance to the next screen in 30 seconds.",,FILLER,30002,"knight, kill, knights, kiln, kiss, kindred, kid, kids, kelp, ",0,5558,22848,0,0,,1
65de1d31c4db0e1398cdc3c9,yd5nbd33np,Ex2A_Prolific,1,53,2024-02-27T22:07:57+00:00,2.1549179553986,1,Stim_A.csv,Read.csv,Read,A,,,,,,0,Instruct,User,-,"You have completed this section. Please click next.",,Instruct166,1992,,,-1,-1,,,,1
65de1d31c4db0e1398cdc3c9,yd5nbd33np,Ex2A_Prolific,1,54,2024-02-27T22:08:03+00:00,5.2105660438538,1,Stim_A.csv,Read.csv,Read,A,,,,,,0,Instruct,User,4,"You will now complete a memory test for the words you just studied. Please type as many words from the previous list as you can seperated by a comma. Spelling will not count against you and you can recall the words in any order. This test will be timed for one minute, and the computer will automatically advance once time is up. Click next when you are ready to begin.",,Instruct1666,4981,,,-1,-1,,,,1
65de1d31c4db0e1398cdc3c9,yd5nbd33np,Ex2A_Prolific,1,55,2024-02-27T22:09:03+00:00,60.240124940872,1,Stim_A.csv,Read.csv,Read,A,,,,,,0,FreeRecall,60,60,"Please type as many words as you can from the previous study list in any order. Please separate each word with a comma. Spelling will not count against you. This screen will automatically advance in one minute.",,RECALL_Test,60002,"anger, wrath, fury, rage, enrage, fear, mad, fire, angry",0,1946,46064,0,0,,1
65de1d31c4db0e1398cdc3c9,yd5nbd33np,Ex2A_Prolific,1,56,2024-02-27T22:09:09+00:00,6.4399979114532,1,Stim_A.csv,Read.csv,Read,A,,,,,,0,Instruct,User,3,"You will now be presented with a new study list. Click next when you are ready to begin.",,NEXT_LIST,6223,,,-1,-1,,,,1
65de1d31c4db0e1398cdc3c9,yd5nbd33np,Ex2A_Prolific,1,57,2024-02-27T22:09:11+00:00,2.0043289661407,1,Stim_A.csv,Read.csv,Read,A,garbage,,T1,,,38,Study,User,1.25,,Trash,T1,1835,,,-1,-1,,,,1
65de1d31c4db0e1398cdc3c9,yd5nbd33np,Ex2A_Prolific,1,58,2024-02-27T22:09:14+00:00,2.6878581047058,1,Stim_A.csv,Read.csv,Read,A,rubbish,,T2,,,39,Study,User,1.25,,Trash,T2,2518,,,-1,-1,,,,1
65de1d31c4db0e1398cdc3c9,yd5nbd33np,Ex2A_Prolific,1,59,2024-02-27T22:09:19+00:00,5.1142840385437,1,Stim_A.csv,Read.csv,Read,A,debris,,T3,,,40,Study,User,1.25,,Trash,T3,4906,,,-1,-1,,,,1
65de1d31c4db0e1398cdc3c9,yd5nbd33np,Ex2A_Prolific,1,60,2024-02-27T22:09:22+00:00,2.4285550117493,1,Stim_A.csv,Read.csv,Read,A,dump,,T4,,,41,Study,User,1.25,,Trash,T4,2266,,,-1,-1,,,,1
65de1d31c4db0e1398cdc3c9,yd5nbd33np,Ex2A_Prolific,1,61,2024-02-27T22:09:24+00:00,2.1719980239868,1,Stim_A.csv,Read.csv,Read,A,litter,,T5,,,42,Study,User,1.25,,Trash,T5,2007,,,-1,-1,,,,1
65de1d31c4db0e1398cdc3c9,yd5nbd33np,Ex2A_Prolific,1,62,2024-02-27T22:09:26+00:00,2.0840458869934,1,Stim_A.csv,Read.csv,Read,A,landfill,,T6,,,43,Study,User,1.25,,Trash,T6,1921,,,-1,-1,,,,1
65de1d31c4db0e1398cdc3c9,yd5nbd33np,Ex2A_Prolific,1,63,2024-02-27T22:09:30+00:00,3.8248519897461,1,Stim_A.csv,Read.csv,Read,A,junk,,T7,,,44,Study,User,1.25,,Trash,T7,3665,,,-1,-1,,,,1
65de1d31c4db0e1398cdc3c9,yd5nbd33np,Ex2A_Prolific,1,64,2024-02-27T22:09:32+00:00,2.2968721389771,1,Stim_A.csv,Read.csv,Read,A,waste,,T8,,,45,Study,User,1.25,,Trash,T8,2117,,,-1,-1,,,,1
65de1d31c4db0e1398cdc3c9,yd5nbd33np,Ex2A_Prolific,1,65,2024-02-27T22:09:35+00:00,2.6049399375916,1,Stim_A.csv,Read.csv,Read,A,sewage,,T9,,,46,Study,User,1.25,,Trash,T9,2452,,,-1,-1,,,,1
65de1d31c4db0e1398cdc3c9,yd5nbd33np,Ex2A_Prolific,1,66,2024-02-27T22:09:37+00:00,2.536789894104,1,Stim_A.csv,Read.csv,Read,A,pile,,T10,,,47,Study,User,1.25,,Trash,T10,2347,,,-1,-1,,,,1
65de1d31c4db0e1398cdc3c9,yd5nbd33np,Ex2A_Prolific,1,67,2024-02-27T22:09:40+00:00,2.8876309394836,1,Stim_A.csv,Read.csv,Read,A,scraps,,T11,,,48,Study,User,1.25,,Trash,T11,2734,,,-1,-1,,,,1
65de1d31c4db0e1398cdc3c9,yd5nbd33np,Ex2A_Prolific,1,68,2024-02-27T22:09:43+00:00,2.6338801383972,1,Stim_A.csv,Read.csv,Read,A,refuse,,T12,,,49,Study,User,1.25,,Trash,T12,2467,,,-1,-1,,,,1
65de1d31c4db0e1398cdc3c9,yd5nbd33np,Ex2A_Prolific,1,69,2024-02-27T22:09:47+00:00,4.6544659137726,1,Stim_A.csv,Read.csv,Read,A,,,,,,0,Instruct,User,4,"You have completed this section. Please click next.",,Instruct166,4470,,,-1,-1,,,,1
65de1d31c4db0e1398cdc3c9,yd5nbd33np,Ex2A_Prolific,1,70,2024-02-27T22:10:17+00:00,30.216915130615,1,Stim_A.csv,Read.csv,Read,A,,,,,,0,FreeRecall,30,30,"Please type as many words as you can that begin with the letter ""K"". The computer will automatically advance to the next screen in 30 seconds.",,FILLER,30002,"kiss, kill, knight, kindred, kids, kid, kelp, kiln, ",0,2838,26103,0,0,,1
65de1d31c4db0e1398cdc3c9,yd5nbd33np,Ex2A_Prolific,1,71,2024-02-27T22:10:24+00:00,6.7170829772949,1,Stim_A.csv,Read.csv,Read,A,,,,,,0,Instruct,User,4,"You have completed this section. Please click next.",,Instruct166,6516,,,-1,-1,,,,1
65de1d31c4db0e1398cdc3c9,yd5nbd33np,Ex2A_Prolific,1,72,2024-02-27T22:10:29+00:00,4.8485898971558,1,Stim_A.csv,Read.csv,Read,A,,,,,,0,Instruct,User,4,"You will now complete a memory test for the words you just studied. Please type as many words from the previous list as you can seperated by a comma. Spelling will not count against you and you can recall the words in any order. This test will be timed for one minute, and the computer will automatically advance once time is up. Click next when you are ready to begin.",,Instruct1666,4644,,,-1,-1,,,,1
65de1d31c4db0e1398cdc3c9,yd5nbd33np,Ex2A_Prolific,1,73,2024-02-27T22:11:29+00:00,60.226428031921,1,Stim_A.csv,Read.csv,Read,A,,,,,,0,FreeRecall,60,60,"Please type as many words as you can from the previous study list in any order. Please separate each word with a comma. Spelling will not count against you. This screen will automatically advance in one minute.",,RECALL_Test,60003,"trash, garbage, rubbish, pile, litter, scraps ",0,7502,43239,0,0,,1
65de1d31c4db0e1398cdc3c9,yd5nbd33np,Ex2A_Prolific,1,74,2024-02-27T22:11:33+00:00,3.9195170402527,1,Stim_A.csv,Read.csv,Read,A,,,,,,0,Instruct,User,3,"You will now be presented with a new study list. Click next when you are ready to begin.",,NEXT_LIST,3742,,,-1,-1,,,,1
65de1d31c4db0e1398cdc3c9,yd5nbd33np,Ex2A_Prolific,1,75,2024-02-27T22:11:36+00:00,2.9358339309692,1,Stim_A.csv,Read.csv,Read,A,physician,,D1,,,50,Study,User,1.25,,Doctor,D1,2773,,,-1,-1,,,,1
65de1d31c4db0e1398cdc3c9,yd5nbd33np,Ex2A_Prolific,1,76,2024-02-27T22:11:38+00:00,2.3226320743561,1,Stim_A.csv,Read.csv,Read,A,nurse,,D2,,,51,Study,User,1.25,,Doctor,D2,2166,,,-1,-1,,,,1
65de1d31c4db0e1398cdc3c9,yd5nbd33np,Ex2A_Prolific,1,77,2024-02-27T22:11:40+00:00,1.5598680973053,1,Stim_A.csv,Read.csv,Read,A,stethoscope,,D3,,,52,Study,User,1.25,,Doctor,D3,1400,,,-1,-1,,,,1
65de1d31c4db0e1398cdc3c9,yd5nbd33np,Ex2A_Prolific,1,78,2024-02-27T22:11:42+00:00,2.010666847229,1,Stim_A.csv,Read.csv,Read,A,surgeon,,D4,,,53,Study,User,1.25,,Doctor,D4,1833,,,-1,-1,,,,1
65de1d31c4db0e1398cdc3c9,yd5nbd33np,Ex2A_Prolific,1,79,2024-02-27T22:11:47+00:00,5.1415169239044,1,Stim_A.csv,Read.csv,Read,A,patient,,D5,,,54,Study,User,1.25,,Doctor,D5,4911,,,-1,-1,,,,1
65de1d31c4db0e1398cdc3c9,yd5nbd33np,Ex2A_Prolific,1,80,2024-02-27T22:11:49+00:00,2.2791180610657,1,Stim_A.csv,Read.csv,Read,A,clinic,,D6,,,55,Study,User,1.25,,Doctor,D6,2096,,,-1,-1,,,,1
65de1d31c4db0e1398cdc3c9,yd5nbd33np,Ex2A_Prolific,1,81,2024-02-27T22:11:53+00:00,3.3901851177216,1,Stim_A.csv,Read.csv,Read,A,dentist,,D7,,,56,Study,User,1.25,,Doctor,D7,3216,,,-1,-1,,,,1
65de1d31c4db0e1398cdc3c9,yd5nbd33np,Ex2A_Prolific,1,82,2024-02-27T22:11:55+00:00,2.4066598415375,1,Stim_A.csv,Read.csv,Read,A,medicine,,D8,,,57,Study,User,1.25,,Doctor,D8,2231,,,-1,-1,,,,1
65de1d31c4db0e1398cdc3c9,yd5nbd33np,Ex2A_Prolific,1,83,2024-02-27T22:11:58+00:00,2.3350300788879,1,Stim_A.csv,Read.csv,Read,A,lawyer,,D9,,,58,Study,User,1.25,,Doctor,D9,2168,,,-1,-1,,,,1
65de1d31c4db0e1398cdc3c9,yd5nbd33np,Ex2A_Prolific,1,84,2024-02-27T22:12:00+00:00,2.0915439128876,1,Stim_A.csv,Read.csv,Read,A,health,,D10,,,59,Study,User,1.25,,Doctor,D10,1900,,,-1,-1,,,,1
65de1d31c4db0e1398cdc3c9,yd5nbd33np,Ex2A_Prolific,1,85,2024-02-27T22:12:01+00:00,1.8226861953735,1,Stim_A.csv,Read.csv,Read,A,sick,,D11,,,60,Study,User,1.25,,Doctor,D11,1654,,,-1,-1,,,,1
65de1d31c4db0e1398cdc3c9,yd5nbd33np,Ex2A_Prolific,1,86,2024-02-27T22:12:03+00:00,1.9432349205017,1,Stim_A.csv,Read.csv,Read,A,cure,,D12,,,61,Study,User,1.25,,Doctor,D12,1768,,,-1,-1,,,,1
65de1d31c4db0e1398cdc3c9,yd5nbd33np,Ex2A_Prolific,1,87,2024-02-27T22:12:08+00:00,4.7024040222168,1,Stim_A.csv,Read.csv,Read,A,,,,,,0,Instruct,User,4,"You have completed this section. Please click next.",,Instruct166,4488,,,-1,-1,,,,1
65de1d31c4db0e1398cdc3c9,yd5nbd33np,Ex2A_Prolific,1,88,2024-02-27T22:12:38+00:00,30.235059022903,1,Stim_A.csv,Read.csv,Read,A,,,,,,0,FreeRecall,30,30,"Please type as many words as you can that begin with the letter ""K"". The computer will automatically advance to the next screen in 30 seconds.",,FILLER,30002,"knight, kill, kiss, kid, kids, kindred, kiln, keepsake, keep, ",0,2147,20183,0,0,,1
65de1d31c4db0e1398cdc3c9,yd5nbd33np,Ex2A_Prolific,1,89,2024-02-27T22:12:40+00:00,2.1347088813782,1,Stim_A.csv,Read.csv,Read,A,,,,,,0,Instruct,User,-,"You have completed this section. Please click next.",,Instruct166,2065,,,-1,-1,,,,1
65de1d31c4db0e1398cdc3c9,yd5nbd33np,Ex2A_Prolific,1,90,2024-02-27T22:12:45+00:00,4.9523150920868,1,Stim_A.csv,Read.csv,Read,A,,,,,,0,Instruct,User,4,"You will now complete a memory test for the words you just studied. Please type as many words from the previous list as you can seperated by a comma. Spelling will not count against you and you can recall the words in any order. This test will be timed for one minute, and the computer will automatically advance once time is up. Click next when you are ready to begin.",,Instruct1666,4748,,,-1,-1,,,,1
65de1d31c4db0e1398cdc3c9,yd5nbd33np,Ex2A_Prolific,1,91,2024-02-27T22:13:46+00:00,60.231219053268,1,Stim_A.csv,Read.csv,Read,A,,,,,,0,FreeRecall,60,60,"Please type as many words as you can from the previous study list in any order. Please separate each word with a comma. Spelling will not count against you. This screen will automatically advance in one minute.",,RECALL_Test,60001,"physician, lawyer, dentist, nurse, stethoscope, clinic, medicine, syringe ",0,2348,38274,0,0,,1
65de1d31c4db0e1398cdc3c9,yd5nbd33np,Ex2A_Prolific,1,92,2024-02-27T22:13:55+00:00,9.0476658344269,1,Stim_A.csv,Read.csv,Read,A,,,,,,0,Instruct,User,3,"You will now be presented with a new study list. Click next when you are ready to begin.",,NEXT_LIST,8833,,,-1,-1,,,,1
65de1d31c4db0e1398cdc3c9,yd5nbd33np,Ex2A_Prolific,1,93,2024-02-27T22:13:59+00:00,3.8480570316315,1,Stim_A.csv,Read.csv,Read,A,fast,,S1,,,62,Study,User,1.25,,Slow,S1,3681,,,-1,-1,,,,1
65de1d31c4db0e1398cdc3c9,yd5nbd33np,Ex2A_Prolific,1,94,2024-02-27T22:14:02+00:00,3.1353340148926,1,Stim_A.csv,Read.csv,Read,A,snail,,S2,,,63,Study,User,1.25,,Slow,S2,2972,,,-1,-1,,,,1
65de1d31c4db0e1398cdc3c9,yd5nbd33np,Ex2A_Prolific,1,95,2024-02-27T22:14:04+00:00,2.6481659412384,1,Stim_A.csv,Read.csv,Read,A,turtle,,S3,,,64,Study,User,1.25,,Slow,S3,2444,,,-1,-1,,,,1
65de1d31c4db0e1398cdc3c9,yd5nbd33np,Ex2A_Prolific,1,96,2024-02-27T22:14:07+00:00,2.7713801860809,1,Stim_A.csv,Read.csv,Read,A,sluggish,,S4,,,65,Study,User,1.25,,Slow,S4,2598,,,-1,-1,,,,1
65de1d31c4db0e1398cdc3c9,yd5nbd33np,Ex2A_Prolific,1,97,2024-02-27T22:14:10+00:00,2.8004128932953,1,Stim_A.csv,Read.csv,Read,A,quick,,S5,,,66,Study,User,1.25,,Slow,S5,2627,,,-1,-1,,,,1
65de1d31c4db0e1398cdc3c9,yd5nbd33np,Ex2A_Prolific,1,98,2024-02-27T22:14:13+00:00,2.8728919029236,1,Stim_A.csv,Read.csv,Read,A,molasses,,S6,,,67,Study,User,1.25,,Slow,S6,2672,,,-1,-1,,,,1
65de1d31c4db0e1398cdc3c9,yd5nbd33np,Ex2A_Prolific,1,99,2024-02-27T22:14:15+00:00,2.5777962207794,1,Stim_A.csv,Read.csv,Read,A,lethargic,,S7,,,68,Study,User,1.25,,Slow,S7,2419,,,-1,-1,,,,1
65de1d31c4db0e1398cdc3c9,yd5nbd33np,Ex2A_Prolific,1,100,2024-02-27T22:14:18+00:00,2.2429378032684,1,Stim_A.csv,Read.csv,Read,A,speed,,S8,,,69,Study,User,1.25,,Slow,S8,2075,,,-1,-1,,,,1
65de1d31c4db0e1398cdc3c9,yd5nbd33np,Ex2A_Prolific,1,101,2024-02-27T22:14:20+00:00,2.196809053421,1,Stim_A.csv,Read.csv,Read,A,delay,,S9,,,70,Study,User,1.25,,Slow,S9,2009,,,-1,-1,,,,1
65de1d31c4db0e1398cdc3c9,yd5nbd33np,Ex2A_Prolific,1,102,2024-02-27T22:14:22+00:00,2.1137089729309,1,Stim_A.csv,Read.csv,Read,A,hesitant,,S10,,,71,Study,User,1.25,,Slow,S10,1926,,,-1,-1,,,,1
65de1d31c4db0e1398cdc3c9,yd5nbd33np,Ex2A_Prolific,1,103,2024-02-27T22:14:24+00:00,2.0506300926208,1,Stim_A.csv,Read.csv,Read,A,cautious,,S11,,,72,Study,User,1.25,,Slow,S11,1876,,,-1,-1,,,,1
65de1d31c4db0e1398cdc3c9,yd5nbd33np,Ex2A_Prolific,1,104,2024-02-27T22:14:26+00:00,1.7299768924713,1,Stim_A.csv,Read.csv,Read,A,traffic,,S12,,,73,Study,User,1.25,,Slow,S12,1556,,,-1,-1,,,,1
65de1d31c4db0e1398cdc3c9,yd5nbd33np,Ex2A_Prolific,1,105,2024-02-27T22:14:27+00:00,1.6288940906525,1,Stim_A.csv,Read.csv,Read,A,,,,,,0,Instruct,User,-,"You have completed this section. Please click next.",,Instruct166,1451,,,-1,-1,,,,1
65de1d31c4db0e1398cdc3c9,yd5nbd33np,Ex2A_Prolific,1,106,2024-02-27T22:14:58+00:00,30.22843503952,1,Stim_A.csv,Read.csv,Read,A,,,,,,0,FreeRecall,30,30,"Please type as many words as you can that begin with the letter ""K"". The computer will automatically advance to the next screen in 30 seconds.",,FILLER,30002,"keep, keepsake, kid, kids, kiss, kill, knight, knights, kiln, kindred, ",0,2654,16502,0,0,,1
65de1d31c4db0e1398cdc3c9,yd5nbd33np,Ex2A_Prolific,1,107,2024-02-27T22:15:02+00:00,4.6694929599762,1,Stim_A.csv,Read.csv,Read,A,,,,,,0,Instruct,User,4,"You have completed this section. Please click next.",,Instruct166,4437,,,-1,-1,,,,1
65de1d31c4db0e1398cdc3c9,yd5nbd33np,Ex2A_Prolific,1,108,2024-02-27T22:15:07+00:00,4.887542963028,1,Stim_A.csv,Read.csv,Read,A,,,,,,0,Instruct,User,4,"You will now complete a memory test for the words you just studied. Please type as many words from the previous list as you can seperated by a comma. Spelling will not count against you and you can recall the words in any order. This test will be timed for one minute, and the computer will automatically advance once time is up. Click next when you are ready to begin.",,Instruct1666,4668,,,-1,-1,,,,1
65de1d31c4db0e1398cdc3c9,yd5nbd33np,Ex2A_Prolific,1,109,2024-02-27T22:16:07+00:00,60.22310090065,1,Stim_A.csv,Read.csv,Read,A,,,,,,0,FreeRecall,60,60,"Please type as many words as you can from the previous study list in any order. Please separate each word with a comma. Spelling will not count against you. This screen will automatically advance in one minute.",,RECALL_Test,60001," fast, snail, molasses, turtle, hesitant ",0,8964,56300,0,0,,1
65de1d31c4db0e1398cdc3c9,yd5nbd33np,Ex2A_Prolific,1,110,2024-02-27T22:16:23+00:00,15.892009019852,1,Stim_A.csv,Read.csv,Read,A,,,,,,0,Instruct,User,3,"You will now be presented with a new study list. Click next when you are ready to begin.",,NEXT_LIST,15678,,,-1,-1,,,,0.761
65de1d31c4db0e1398cdc3c9,yd5nbd33np,Ex2A_Prolific,1,111,2024-02-27T22:16:25+00:00,2.2258131504059,1,Stim_A.csv,Read.csv,Read,A,mississippi,,RR1,,,74,Study,User,1.25,,River,RR1,2062,,,-1,-1,,,,1
65de1d31c4db0e1398cdc3c9,yd5nbd33np,Ex2A_Prolific,1,112,2024-02-27T22:16:28+00:00,2.1628229618073,1,Stim_A.csv,Read.csv,Read,A,creek,,RR2,,,75,Study,User,1.25,,River,RR2,1957,,,-1,-1,,,,1
65de1d31c4db0e1398cdc3c9,yd5nbd33np,Ex2A_Prolific,1,113,2024-02-27T22:16:31+00:00,2.8809199333191,1,Stim_A.csv,Read.csv,Read,A,stream,,RR3,,,76,Study,User,1.25,,River,RR3,2724,,,-1,-1,,,,1
65de1d31c4db0e1398cdc3c9,yd5nbd33np,Ex2A_Prolific,1,114,2024-02-27T22:16:33+00:00,2.1027870178223,1,Stim_A.csv,Read.csv,Read,A,flow,,RR4,,,77,Study,User,1.25,,River,RR4,1932,,,-1,-1,,,,1
65de1d31c4db0e1398cdc3c9,yd5nbd33np,Ex2A_Prolific,1,115,2024-02-27T22:16:34+00:00,1.8442060947418,1,Stim_A.csv,Read.csv,Read,A,bridge,,RR5,,,78,Study,User,1.25,,River,RR5,1684,,,-1,-1,,,,1
65de1d31c4db0e1398cdc3c9,yd5nbd33np,Ex2A_Prolific,1,116,2024-02-27T22:16:36+00:00,1.4740059375763,1,Stim_A.csv,Read.csv,Read,A,brook,,RR6,,,79,Study,User,1.25,,River,RR6,1306,,,-1,-1,,,,1
65de1d31c4db0e1398cdc3c9,yd5nbd33np,Ex2A_Prolific,1,117,2024-02-27T22:16:37+00:00,1.5002551078796,1,Stim_A.csv,Read.csv,Read,A,lake,,RR7,,,80,Study,User,1.25,,River,RR7,1340,,,-1,-1,,,,1
65de1d31c4db0e1398cdc3c9,yd5nbd33np,Ex2A_Prolific,1,118,2024-02-27T22:16:40+00:00,2.1530067920685,1,Stim_A.csv,Read.csv,Read,A,barge,,RR8,,,81,Study,User,1.25,,River,RR8,1997,,,-1,-1,,,,1
65de1d31c4db0e1398cdc3c9,yd5nbd33np,Ex2A_Prolific,1,119,2024-02-27T22:16:42+00:00,2.3147261142731,1,Stim_A.csv,Read.csv,Read,A,water,,RR9,,,82,Study,User,1.25,,River,RR9,2162,,,-1,-1,,,,1
65de1d31c4db0e1398cdc3c9,yd5nbd33np,Ex2A_Prolific,1,120,2024-02-27T22:16:45+00:00,3.096314907074,1,Stim_A.csv,Read.csv,Read,A,boat,,RR10,,,83,Study,User,1.25,,River,RR10,2933,,,-1,-1,,,,1
65de1d31c4db0e1398cdc3c9,yd5nbd33np,Ex2A_Prolific,1,121,2024-02-27T22:16:47+00:00,2.2242670059204,1,Stim_A.csv,Read.csv,Read,A,tide,,RR11,,,84,Study,User,1.25,,River,RR11,2057,,,-1,-1,,,,1
65de1d31c4db0e1398cdc3c9,yd5nbd33np,Ex2A_Prolific,1,122,2024-02-27T22:16:49+00:00,2.0876929759979,1,Stim_A.csv,Read.csv,Read,A,swim,,RR12,,,85,Study,User,1.25,,River,RR12,1926,,,-1,-1,,,,1
65de1d31c4db0e1398cdc3c9,yd5nbd33np,Ex2A_Prolific,1,123,2024-02-27T22:16:50+00:00,1.1793022155762,1,Stim_A.csv,Read.csv,Read,A,,,,,,0,Instruct,User,-,"You have completed this section. Please click next.",,Instruct166,1012,,,-1,-1,,,,1
65de1d31c4db0e1398cdc3c9,yd5nbd33np,Ex2A_Prolific,1,124,2024-02-27T22:17:21+00:00,30.215553998947,1,Stim_A.csv,Read.csv,Read,A,,,,,,0,FreeRecall,30,30,"Please type as many words as you can that begin with the letter ""K"". The computer will automatically advance to the next screen in 30 seconds.",,FILLER,30003,"knight, kid, kiln, kids, kiss, kill, kindred, keep, keepsake, k ",0,1415,28982,0,0,,1
65de1d31c4db0e1398cdc3c9,yd5nbd33np,Ex2A_Prolific,1,125,2024-02-27T22:17:26+00:00,4.9186728000641,1,Stim_A.csv,Read.csv,Read,A,,,,,,0,Instruct,User,4,"You have completed this section. Please click next.",,Instruct166,4714,,,-1,-1,,,,1
65de1d31c4db0e1398cdc3c9,yd5nbd33np,Ex2A_Prolific,1,126,2024-02-27T22:17:30+00:00,4.3522181510925,1,Stim_A.csv,Read.csv,Read,A,,,,,,0,Instruct,User,4,"You will now complete a memory test for the words you just studied. Please type as many words from the previous list as you can seperated by a comma. Spelling will not count against you and you can recall the words in any order. This test will be timed for one minute, and the computer will automatically advance once time is up. Click next when you are ready to begin.",,Instruct1666,4146,,,-1,-1,,,,1
65de1d31c4db0e1398cdc3c9,yd5nbd33np,Ex2A_Prolific,1,127,2024-02-27T22:18:31+00:00,61.440656900406,1,Stim_A.csv,Read.csv,Read,A,,,,,,0,FreeRecall,60,60,"Please type as many words as you can from the previous study list in any order. Please separate each word with a comma. Spelling will not count against you. This screen will automatically advance in one minute.",,RECALL_Test,61183,"river, lake, barge, water, stream, ",0,15191,46543,0,0,,0.986
65de1d31c4db0e1398cdc3c9,yd5nbd33np,Ex2A_Prolific,1,128,2024-02-27T22:18:51+00:00,19.852617025375,1,Stim_A.csv,Read.csv,Read,A,,,,,,0,Instruct,User,3,"You will now be presented with a new study list. Click next when you are ready to begin.",,NEXT_LIST,19624,,,-1,-1,,,,0.206
65de1d31c4db0e1398cdc3c9,yd5nbd33np,Ex2A_Prolific,1,129,2024-02-27T22:18:54+00:00,3.1086699962616,1,Stim_A.csv,Read.csv,Read,A,rye,,B1,,,86,Study,User,1.25,,Bread,B1,2914,,,-1,-1,,,,1
65de1d31c4db0e1398cdc3c9,yd5nbd33np,Ex2A_Prolific,1,130,2024-02-27T22:18:56+00:00,1.5785291194916,1,Stim_A.csv,Read.csv,Read,A,loaf,,B2,,,87,Study,User,1.25,,Bread,B2,1410,,,-1,-1,,,,1
65de1d31c4db0e1398cdc3c9,yd5nbd33np,Ex2A_Prolific,1,131,2024-02-27T22:18:58+00:00,2.360456943512,1,Stim_A.csv,Read.csv,Read,A,butter,,B3,,,88,Study,User,1.25,,Bread,B3,2190,,,-1,-1,,,,1
65de1d31c4db0e1398cdc3c9,yd5nbd33np,Ex2A_Prolific,1,132,2024-02-27T22:19:00+00:00,2.0781278610229,1,Stim_A.csv,Read.csv,Read,A,toast,,B4,,,89,Study,User,1.25,,Bread,B4,1903,,,-1,-1,,,,1
65de1d31c4db0e1398cdc3c9,yd5nbd33np,Ex2A_Prolific,1,133,2024-02-27T22:19:02+00:00,1.9365091323853,1,Stim_A.csv,Read.csv,Read,A,dough,,B5,,,90,Study,User,1.25,,Bread,B5,1763,,,-1,-1,,,,1
65de1d31c4db0e1398cdc3c9,yd5nbd33np,Ex2A_Prolific,1,134,2024-02-27T22:19:05+00:00,2.5134799480438,1,Stim_A.csv,Read.csv,Read,A,crust,,B6,,,91,Study,User,1.25,,Bread,B6,2344,,,-1,-1,,,,1
65de1d31c4db0e1398cdc3c9,yd5nbd33np,Ex2A_Prolific,1,135,2024-02-27T22:19:07+00:00,2.0875239372253,1,Stim_A.csv,Read.csv,Read,A,flour,,B7,,,92,Study,User,1.25,,Bread,B7,1927,,,-1,-1,,,,1
65de1d31c4db0e1398cdc3c9,yd5nbd33np,Ex2A_Prolific,1,136,2024-02-27T22:19:10+00:00,2.6946861743927,1,Stim_A.csv,Read.csv,Read,A,sandwich,,B8,,,93,Study,User,1.25,,Bread,B8,2509,,,-1,-1,,,,1
65de1d31c4db0e1398cdc3c9,yd5nbd33np,Ex2A_Prolific,1,137,2024-02-27T22:19:12+00:00,2.3131108283997,1,Stim_A.csv,Read.csv,Read,A,jam,,B9,,,94,Study,User,1.25,,Bread,B9,2105,,,-1,-1,,,,1
65de1d31c4db0e1398cdc3c9,yd5nbd33np,Ex2A_Prolific,1,138,2024-02-27T22:19:13+00:00,1.5515310764313,1,Stim_A.csv,Read.csv,Read,A,jelly,,B10,,,95,Study,User,1.25,,Bread,B10,1386,,,-1,-1,,,,1
65de1d31c4db0e1398cdc3c9,yd5nbd33np,Ex2A_Prolific,1,139,2024-02-27T22:19:15+00:00,1.5302090644836,1,Stim_A.csv,Read.csv,Read,A,slice,,B11,,,96,Study,User,1.25,,Bread,B11,1359,,,-1,-1,,,,1
65de1d31c4db0e1398cdc3c9,yd5nbd33np,Ex2A_Prolific,1,140,2024-02-27T22:19:17+00:00,1.7787539958954,1,Stim_A.csv,Read.csv,Read,A,milk,,B12,,,97,Study,User,1.25,,Bread,B12,1619,,,-1,-1,,,,1
65de1d31c4db0e1398cdc3c9,yd5nbd33np,Ex2A_Prolific,1,141,2024-02-27T22:19:18+00:00,1.2923538684845,1,Stim_A.csv,Read.csv,Read,A,,,,,,0,Instruct,User,-,"You have completed this section. Please click next.",,Instruct166,1126,,,-1,-1,,,,1
65de1d31c4db0e1398cdc3c9,yd5nbd33np,Ex2A_Prolific,1,142,2024-02-27T22:19:48+00:00,30.222696065903,1,Stim_A.csv,Read.csv,Read,A,,,,,,0,FreeRecall,30,30,"Please type as many words as you can that begin with the letter ""K"". The computer will automatically advance to the next screen in 30 seconds.",,FILLER,30003,"knight, kid, kill, kiss, kindred, keep, keepsake, kiln, ",0,2070,24392,0,0,,1
65de1d31c4db0e1398cdc3c9,yd5nbd33np,Ex2A_Prolific,1,143,2024-02-27T22:19:50+00:00,2.0582129955292,1,Stim_A.csv,Read.csv,Read,A,,,,,,0,Instruct,User,-,"You have completed this section. Please click next.",,Instruct166,1881,,,-1,-1,,,,1
65de1d31c4db0e1398cdc3c9,yd5nbd33np,Ex2A_Prolific,1,144,2024-02-27T22:19:56+00:00,5.3759019374847,1,Stim_A.csv,Read.csv,Read,A,,,,,,0,Instruct,User,4,"You will now complete a memory test for the words you just studied. Please type as many words from the previous list as you can seperated by a comma. Spelling will not count against you and you can recall the words in any order. This test will be timed for one minute, and the computer will automatically advance once time is up. Click next when you are ready to begin.",,Instruct1666,5178,,,-1,-1,,,,1
65de1d31c4db0e1398cdc3c9,yd5nbd33np,Ex2A_Prolific,1,145,2024-02-27T22:20:56+00:00,60.227513074875,1,Stim_A.csv,Read.csv,Read,A,,,,,,0,FreeRecall,60,60,"Please type as many words as you can from the previous study list in any order. Please separate each word with a comma. Spelling will not count against you. This screen will automatically advance in one minute.",,RECALL_Test,60003,"jam, sandwich, butter, bread, rye, slice, ",0,3406,22746,0,0,,1
65de1d31c4db0e1398cdc3c9,yd5nbd33np,Ex2A_Prolific,1,146,2024-02-27T22:21:41+00:00,44.676241874695,1,Stim_A.csv,Read.csv,Read,A,,,,,,0,Instruct,User,3,"You will now be presented with a new study list. Click next when you are ready to begin.",,NEXT_LIST,44426,,,-1,-1,,,,0.625
65de1d31c4db0e1398cdc3c9,yd5nbd33np,Ex2A_Prolific,1,147,2024-02-27T22:21:45+00:00,3.9622452259064,1,Stim_A.csv,Read.csv,Read,A,banner,,F1,,,98,Study,User,1.25,,Flag,F1,3787,,,-1,-1,,,,1
65de1d31c4db0e1398cdc3c9,yd5nbd33np,Ex2A_Prolific,1,148,2024-02-27T22:21:46+00:00,1.8318078517914,1,Stim_A.csv,Read.csv,Read,A,checkered,,F2,,,99,Study,User,1.25,,Flag,F2,1657,,,-1,-1,,,,1
65de1d31c4db0e1398cdc3c9,yd5nbd33np,Ex2A_Prolific,1,149,2024-02-27T22:21:48+00:00,1.655522108078,1,Stim_A.csv,Read.csv,Read,A,american,,F3,,,100,Study,User,1.25,,Flag,F3,1474,,,-1,-1,,,,1
65de1d31c4db0e1398cdc3c9,yd5nbd33np,Ex2A_Prolific,1,150,2024-02-27T22:21:50+00:00,1.8857848644257,1,Stim_A.csv,Read.csv,Read,A,stripes,,F4,,,101,Study,User,1.25,,Flag,F4,1700,,,-1,-1,,,,1
65de1d31c4db0e1398cdc3c9,yd5nbd33np,Ex2A_Prolific,1,151,2024-02-27T22:21:52+00:00,1.9135789871216,1,Stim_A.csv,Read.csv,Read,A,pole,,F5,,,102,Study,User,1.25,,Flag,F5,1739,,,-1,-1,,,,1
65de1d31c4db0e1398cdc3c9,yd5nbd33np,Ex2A_Prolific,1,152,2024-02-27T22:21:54+00:00,1.8570110797882,1,Stim_A.csv,Read.csv,Read,A,anthem,,F6,,,103,Study,User,1.25,,Flag,F6,1676,,,-1,-1,,,,1
65de1d31c4db0e1398cdc3c9,yd5nbd33np,Ex2A_Prolific,1,153,2024-02-27T22:21:56+00:00,1.8315899372101,1,Stim_A.csv,Read.csv,Read,A,emblem,,F7,,,104,Study,User,1.25,,Flag,F7,1668,,,-1,-1,,,,1
65de1d31c4db0e1398cdc3c9,yd5nbd33np,Ex2A_Prolific,1,154,2024-02-27T22:21:57+00:00,1.8547050952911,1,Stim_A.csv,Read.csv,Read,A,national,,F8,,,105,Study,User,1.25,,Flag,F8,1688,,,-1,-1,,,,1
65de1d31c4db0e1398cdc3c9,yd5nbd33np,Ex2A_Prolific,1,155,2024-02-27T22:21:59+00:00,1.9144699573517,1,Stim_A.csv,Read.csv,Read,A,freedom,,F9,,,106,Study,User,1.25,,Flag,F9,1756,,,-1,-1,,,,1
65de1d31c4db0e1398cdc3c9,yd5nbd33np,Ex2A_Prolific,1,156,2024-02-27T22:22:01+00:00,1.9020230770111,1,Stim_A.csv,Read.csv,Read,A,symbol,,F10,,,107,Study,User,1.25,,Flag,F10,1733,,,-1,-1,,,,1
65de1d31c4db0e1398cdc3c9,yd5nbd33np,Ex2A_Prolific,1,157,2024-02-27T22:22:03+00:00,1.5709829330444,1,Stim_A.csv,Read.csv,Read,A,wave,,F11,,,108,Study,User,1.25,,Flag,F11,1400,,,-1,-1,,,,1
65de1d31c4db0e1398cdc3c9,yd5nbd33np,Ex2A_Prolific,1,158,2024-02-27T22:22:05+00:00,1.8518650531769,1,Stim_A.csv,Read.csv,Read,A,stars,,F12,,,109,Study,User,1.25,,Flag,F12,1679,,,-1,-1,,,,1
65de1d31c4db0e1398cdc3c9,yd5nbd33np,Ex2A_Prolific,1,159,2024-02-27T22:22:09+00:00,4.765172958374,1,Stim_A.csv,Read.csv,Read,A,,,,,,0,Instruct,User,4,"You have completed this section. Please click next.",,Instruct166,4559,,,-1,-1,,,,1
65de1d31c4db0e1398cdc3c9,yd5nbd33np,Ex2A_Prolific,1,160,2024-02-27T22:22:40+00:00,30.226962089539,1,Stim_A.csv,Read.csv,Read,A,,,,,,0,FreeRecall,30,30,"Please type as many words as you can that begin with the letter ""K"". The computer will automatically advance to the next screen in 30 seconds.",,FILLER,30005,"knight, kiss, kiln, kid, keep, keepsake, kids, ",0,1927,25822,0,0,,1
65de1d31c4db0e1398cdc3c9,yd5nbd33np,Ex2A_Prolific,1,161,2024-02-27T22:22:43+00:00,3.3253819942474,1,Stim_A.csv,Read.csv,Read,A,,,,,,0,Instruct,User,-,"You have completed this section. Please click next.",,Instruct166,3121,,,-1,-1,,,,1
65de1d31c4db0e1398cdc3c9,yd5nbd33np,Ex2A_Prolific,1,162,2024-02-27T22:22:48+00:00,4.9279229640961,1,Stim_A.csv,Read.csv,Read,A,,,,,,0,Instruct,User,4,"You will now complete a memory test for the words you just studied. Please type as many words from the previous list as you can seperated by a comma. Spelling will not count against you and you can recall the words in any order. This test will be timed for one minute, and the computer will automatically advance once time is up. Click next when you are ready to begin.",,Instruct1666,4720,,,-1,-1,,,,1
65de1d31c4db0e1398cdc3c9,yd5nbd33np,Ex2A_Prolific,1,163,2024-02-27T22:23:48+00:00,60.233942985535,1,Stim_A.csv,Read.csv,Read,A,,,,,,0,FreeRecall,60,60,"Please type as many words as you can from the previous study list in any order. Please separate each word with a comma. Spelling will not count against you. This screen will automatically advance in one minute.",,RECALL_Test,60003,"flag, America, stripe, pole, stars, ",0,21558,38401,0,0,,1
65de1d31c4db0e1398cdc3c9,yd5nbd33np,Ex2A_Prolific,1,164,2024-02-27T22:24:04+00:00,15.446470022202,1,Stim_A.csv,Read.csv,Read,A,,,,,,0,Instruct,User,3,"You will now be presented with a new study list. Click next when you are ready to begin.",,NEXT_LIST,15230,,,-1,-1,,,,1
65de1d31c4db0e1398cdc3c9,yd5nbd33np,Ex2A_Prolific,1,165,2024-02-27T22:24:07+00:00,2.9104828834534,1,Stim_A.csv,Read.csv,Read,A,blouse,,SS1,,,110,Study,User,1.25,,Shirt,SS1,2731,,,-1,-1,,,,1
65de1d31c4db0e1398cdc3c9,yd5nbd33np,Ex2A_Prolific,1,166,2024-02-27T22:24:09+00:00,2.2852430343628,1,Stim_A.csv,Read.csv,Read,A,sleeves,,SS2,,,111,Study,User,1.25,,Shirt,SS2,2075,,,-1,-1,,,,1
65de1d31c4db0e1398cdc3c9,yd5nbd33np,Ex2A_Prolific,1,167,2024-02-27T22:24:12+00:00,2.9946200847626,1,Stim_A.csv,Read.csv,Read,A,collar,,SS3,,,112,Study,User,1.25,,Shirt,SS3,2823,,,-1,-1,,,,1
65de1d31c4db0e1398cdc3c9,yd5nbd33np,Ex2A_Prolific,1,168,2024-02-27T22:24:16+00:00,3.8002958297729,1,Stim_A.csv,Read.csv,Read,A,shorts,,SS4,,,113,Study,User,1.25,,Shirt,SS4,3633,,,-1,-1,,,,1
65de1d31c4db0e1398cdc3c9,yd5nbd33np,Ex2A_Prolific,1,169,2024-02-27T22:24:19+00:00,3.0277960300446,1,Stim_A.csv,Read.csv,Read,A,button,,SS5,,,114,Study,User,1.25,,Shirt,SS5,2849,,,-1,-1,,,,1
65de1d31c4db0e1398cdc3c9,yd5nbd33np,Ex2A_Prolific,1,170,2024-02-27T22:24:21+00:00,2.2458319664001,1,Stim_A.csv,Read.csv,Read,A,pants,,SS6,,,115,Study,User,1.25,,Shirt,SS6,2074,,,-1,-1,,,,1
65de1d31c4db0e1398cdc3c9,yd5nbd33np,Ex2A_Prolific,1,171,2024-02-27T22:24:23+00:00,2.1175961494446,1,Stim_A.csv,Read.csv,Read,A,polo,,SS7,,,116,Study,User,1.25,,Shirt,SS7,1943,,,-1,-1,,,,1
65de1d31c4db0e1398cdc3c9,yd5nbd33np,Ex2A_Prolific,1,172,2024-02-27T22:24:25+00:00,1.8536260128021,1,Stim_A.csv,Read.csv,Read,A,jersey,,SS8,,,117,Study,User,1.25,,Shirt,SS8,1543,,,-1,-1,,,,1
65de1d31c4db0e1398cdc3c9,yd5nbd33np,Ex2A_Prolific,1,173,2024-02-27T22:24:27+00:00,1.9105949401855,1,Stim_A.csv,Read.csv,Read,A,vest,,SS9,,,118,Study,User,1.25,,Shirt,SS9,1750,,,-1,-1,,,,1
65de1d31c4db0e1398cdc3c9,yd5nbd33np,Ex2A_Prolific,1,174,2024-02-27T22:24:29+00:00,1.9885160923004,1,Stim_A.csv,Read.csv,Read,A,cuffs,,SS10,,,119,Study,User,1.25,,Shirt,SS10,1822,,,-1,-1,,,,1
65de1d31c4db0e1398cdc3c9,yd5nbd33np,Ex2A_Prolific,1,175,2024-02-27T22:24:31+00:00,1.9505670070648,1,Stim_A.csv,Read.csv,Read,A,tie,,SS11,,,120,Study,User,1.25,,Shirt,SS11,1786,,,-1,-1,,,,1
65de1d31c4db0e1398cdc3c9,yd5nbd33np,Ex2A_Prolific,1,176,2024-02-27T22:24:33+00:00,1.9585440158844,1,Stim_A.csv,Read.csv,Read,A,pocket,,SS12,,,121,Study,User,1.25,,Shirt,SS12,1803,,,-1,-1,,,,1
65de1d31c4db0e1398cdc3c9,yd5nbd33np,Ex2A_Prolific,1,177,2024-02-27T22:24:37+00:00,4.7159547805786,1,Stim_A.csv,Read.csv,Read,A,,,,,,0,Instruct,User,4,"You have completed this section. Please click next.",,Instruct166,4500,,,-1,-1,,,,1
65de1d31c4db0e1398cdc3c9,yd5nbd33np,Ex2A_Prolific,1,178,2024-02-27T22:25:08+00:00,30.23171710968,1,Stim_A.csv,Read.csv,Read,A,,,,,,0,FreeRecall,30,30,"Please type as many words as you can that begin with the letter ""K"". The computer will automatically advance to the next screen in 30 seconds.",,FILLER,30001,"knight, kiss, kill, kid, kids, kindred, keep, keepsake, ",0,2185,12534,0,0,,1
65de1d31c4db0e1398cdc3c9,yd5nbd33np,Ex2A_Prolific,1,179,2024-02-27T22:25:31+00:00,22.958482027054,1,Stim_A.csv,Read.csv,Read,A,,,,,,0,Instruct,User,4,"You have completed this section. Please click next.",,Instruct166,22744,,,-1,-1,,,,1
65de1d31c4db0e1398cdc3c9,yd5nbd33np,Ex2A_Prolific,1,180,2024-02-27T22:25:35+00:00,4.7524888515472,1,Stim_A.csv,Read.csv,Read,A,,,,,,0,Instruct,User,4,"You will now complete a memory test for the words you just studied. Please type as many words from the previous list as you can seperated by a comma. Spelling will not count against you and you can recall the words in any order. This test will be timed for one minute, and the computer will automatically advance once time is up. Click next when you are ready to begin.",,Instruct1666,4540,,,-1,-1,,,,1
65de1d31c4db0e1398cdc3c9,yd5nbd33np,Ex2A_Prolific,1,181,2024-02-27T22:26:36+00:00,60.234896183014,1,Stim_A.csv,Read.csv,Read,A,,,,,,0,FreeRecall,60,60,"Please type as many words as you can from the previous study list in any order. Please separate each word with a comma. Spelling will not count against you. This screen will automatically advance in one minute.",,RECALL_Test,60001,"I can't remember any more words! ",0,11052,15337,0,0,,1
65de1d31c4db0e1398cdc3c9,yd5nbd33np,Ex2A_Prolific,1,182,2024-02-27T22:26:38+00:00,2.1094279289246,1,Stim_A.csv,Read.csv,Read,A,,,,,,0,Instruct,User,-,"You have completed this section. Please click next.",,Instruct7,1922,,,-1,-1,,,,1
65de1d31c4db0e1398cdc3c9,yd5nbd33np,Ex2A_Prolific,1,183,2024-02-27T22:26:42+00:00,4.3958148956299,1,Stim_A.csv,Read.csv,Read,A,,,,,,0,Instruct,User,-,"The following screen will ask you a few questions abour your experience today. You must complete these questions to receive credit.",,Instruct8,4192,,,-1,-1,,,,1
