Username,ID,ExperimentName,Session,Trial,Date,TimeDif,"Condition Number","Stimuli File","Order File","Condition Description","Condition Notes",Stimuli*Cue,Stimuli*Answer,Stimuli*Shuffle,"Stimuli*Stimuli Notes",Stimuli*Value,Procedure*Item,"Procedure*Trial Type","Procedure*Max Time","Procedure*Min Time",Procedure*Text,"Procedure*Procedure Notes",Procedure*Shuffle,Response*RT,Response*Response,Response*Accuracy,Response*RTfirst,Response*RTlast,Response*strictAcc,Response*lenientAcc,Response*focus,Response*Focus
5fde8fc3c0e40a651914c261,3zc9jp0oeq,Ex2A_Prolific,1,1,2024-02-28T20:04:39+00:00,6.3179018497467,1,Stim_A.csv,Read.csv,Read,A,,,,,,0,Instruct,-,5,"In this section, you will be presented with a series of words. Please study each word carefully. Your memory will be tested! Click next when you are ready to begin.",Initial_Instruct,Instruct1,6116,,,-1,-1,,,,1
5fde8fc3c0e40a651914c261,3zc9jp0oeq,Ex2A_Prolific,1,2,2024-02-28T20:04:42+00:00,3.4437971115112,1,Stim_A.csv,Read.csv,Read,A,,,,,,0,Instruct,User,-,"You will now begin the study. Click next when you are ready to begin.",,Instruct16,3059,,,-1,-1,,,,1
5fde8fc3c0e40a651914c261,3zc9jp0oeq,Ex2A_Prolific,1,3,2024-02-28T20:04:45+00:00,2.9096400737762,1,Stim_A.csv,Read.csv,Read,A,pane,,Win_1,,,2,Study,User,1.25,,Window,Win_1,2559,,,-1,-1,,,,1
5fde8fc3c0e40a651914c261,3zc9jp0oeq,Ex2A_Prolific,1,4,2024-02-28T20:04:48+00:00,2.3467538356781,1,Stim_A.csv,Read.csv,Read,A,sill,,Win_2,,,3,Study,User,1.25,,Window,Win_2,2015,,,-1,-1,,,,1
5fde8fc3c0e40a651914c261,3zc9jp0oeq,Ex2A_Prolific,1,5,2024-02-28T20:04:50+00:00,2.4528160095215,1,Stim_A.csv,Read.csv,Read,A,shutter,,Win_3,,,4,Study,User,1.25,,Window,Win_3,2023,,,-1,-1,,,,1
5fde8fc3c0e40a651914c261,3zc9jp0oeq,Ex2A_Prolific,1,6,2024-02-28T20:04:52+00:00,1.6140241622925,1,Stim_A.csv,Read.csv,Read,A,curtain,,Win_4,,,5,Study,User,1.25,,Window,Win_4,1264,,,-1,-1,,,,1
5fde8fc3c0e40a651914c261,3zc9jp0oeq,Ex2A_Prolific,1,7,2024-02-28T20:04:54+00:00,2.4764339923859,1,Stim_A.csv,Read.csv,Read,A,door,,Win_5,,,6,Study,User,1.25,,Window,Win_5,1975,,,-1,-1,,,,1
5fde8fc3c0e40a651914c261,3zc9jp0oeq,Ex2A_Prolific,1,8,2024-02-28T20:04:56+00:00,2.0728199481964,1,Stim_A.csv,Read.csv,Read,A,ledge,,Win_6,,,7,Study,User,1.25,,Window,Win_6,1622,,,-1,-1,,,,1
5fde8fc3c0e40a651914c261,3zc9jp0oeq,Ex2A_Prolific,1,9,2024-02-28T20:04:58+00:00,2.0926768779755,1,Stim_A.csv,Read.csv,Read,A,glass,,Win_7,,,8,Study,User,1.25,,Window,Win_7,1670,,,-1,-1,,,,1
5fde8fc3c0e40a651914c261,3zc9jp0oeq,Ex2A_Prolific,1,10,2024-02-28T20:05:00+00:00,2.1376991271973,1,Stim_A.csv,Read.csv,Read,A,view,,Win_8,,,9,Study,User,1.25,,Window,Win_8,1642,,,-1,-1,,,,1
5fde8fc3c0e40a651914c261,3zc9jp0oeq,Ex2A_Prolific,1,11,2024-02-28T20:05:02+00:00,2.063915014267,1,Stim_A.csv,Read.csv,Read,A,screen,,Win_9,,,10,Study,User,1.25,,Window,Win_9,1713,,,-1,-1,,,,1
5fde8fc3c0e40a651914c261,3zc9jp0oeq,Ex2A_Prolific,1,12,2024-02-28T20:05:04+00:00,1.8015539646149,1,Stim_A.csv,Read.csv,Read,A,shade,,Win_10,,,11,Study,User,1.25,,Window,Win_10,1412,,,-1,-1,,,,1
5fde8fc3c0e40a651914c261,3zc9jp0oeq,Ex2A_Prolific,1,13,2024-02-28T20:05:06+00:00,2.0798940658569,1,Stim_A.csv,Read.csv,Read,A,open,,Win_11,,,12,Study,User,1.25,,Window,Win_11,1686,,,-1,-1,,,,1
5fde8fc3c0e40a651914c261,3zc9jp0oeq,Ex2A_Prolific,1,14,2024-02-28T20:05:08+00:00,1.9505200386047,1,Stim_A.csv,Read.csv,Read,A,frame,,Win_12,,,13,Study,User,1.25,,Window,Win_12,1606,,,-1,-1,,,,1
5fde8fc3c0e40a651914c261,3zc9jp0oeq,Ex2A_Prolific,1,15,2024-02-28T20:05:11+00:00,2.8326768875122,1,Stim_A.csv,Read.csv,Read,A,,,,,,0,Instruct,User,-,"You have completed this section. Please click next.",,Instruct166,2348,,,-1,-1,,,,1
5fde8fc3c0e40a651914c261,3zc9jp0oeq,Ex2A_Prolific,1,16,2024-02-28T20:05:42+00:00,30.438327074051,1,Stim_A.csv,Read.csv,Read,A,,,,,,0,FreeRecall,30,30,"Please type as many words as you can that begin with the letter ""K"". The computer will automatically advance to the next screen in 30 seconds.",,FILLER,30004,"kick, kit, kangaroo, kajole, kahki, kack, kack-handed, k",0,1494,29820,0,0,,1
5fde8fc3c0e40a651914c261,3zc9jp0oeq,Ex2A_Prolific,1,17,2024-02-28T20:05:45+00:00,2.9477999210358,1,Stim_A.csv,Read.csv,Read,A,,,,,,0,Instruct,User,-,"You have completed this section. Please click next.",,Instruct166,2558,,,-1,-1,,,,1
5fde8fc3c0e40a651914c261,3zc9jp0oeq,Ex2A_Prolific,1,18,2024-02-28T20:06:00+00:00,15.742876052856,1,Stim_A.csv,Read.csv,Read,A,,,,,,0,Instruct,User,4,"You will now complete a memory test for the words you just studied. Please type as many words from the previous list as you can seperated by a comma. Spelling will not count against you and you can recall the words in any order. This test will be timed for one minute, and the computer will automatically advance once time is up. Click next when you are ready to begin.",,Instruct1666,15380,,,-1,-1,,,,1
5fde8fc3c0e40a651914c261,3zc9jp0oeq,Ex2A_Prolific,1,19,2024-02-28T20:07:01+00:00,60.360200881958,1,Stim_A.csv,Read.csv,Read,A,,,,,,0,FreeRecall,60,60,"Please type as many words as you can from the previous study list in any order. Please separate each word with a comma. Spelling will not count against you. This screen will automatically advance in one minute.",,RECALL_Test,60002,"glass, pane, sill, ledge, screen, window, shutter, ",0,2499,38773,0,0,,1
5fde8fc3c0e40a651914c261,3zc9jp0oeq,Ex2A_Prolific,1,20,2024-02-28T20:07:04+00:00,3.557904958725,1,Stim_A.csv,Read.csv,Read,A,,,,,,0,Instruct,User,3,"You will now be presented with a new study list. Click next when you are ready to begin.",,NEXT_LIST,3206,,,-1,-1,,,,1
5fde8fc3c0e40a651914c261,3zc9jp0oeq,Ex2A_Prolific,1,21,2024-02-28T20:07:06+00:00,2.1839361190796,1,Stim_A.csv,Read.csv,Read,A,sandpaper,,R1,,,14,Study,User,1.25,,Rough,R1,1837,,,-1,-1,,,,1
5fde8fc3c0e40a651914c261,3zc9jp0oeq,Ex2A_Prolific,1,22,2024-02-28T20:07:08+00:00,1.9325020313263,1,Stim_A.csv,Read.csv,Read,A,smooth,,R2,,,15,Study,User,1.25,,Rough,R2,1541,,,-1,-1,,,,1
5fde8fc3c0e40a651914c261,3zc9jp0oeq,Ex2A_Prolific,1,23,2024-02-28T20:07:10+00:00,1.9161338806152,1,Stim_A.csv,Read.csv,Read,A,coarse,,R3,,,16,Study,User,1.25,,Rough,R3,1370,,,-1,-1,,,,1
5fde8fc3c0e40a651914c261,3zc9jp0oeq,Ex2A_Prolific,1,24,2024-02-28T20:07:13+00:00,2.4427151679993,1,Stim_A.csv,Read.csv,Read,A,tough,,R4,,,17,Study,User,1.25,,Rough,R4,2055,,,-1,-1,,,,1
5fde8fc3c0e40a651914c261,3zc9jp0oeq,Ex2A_Prolific,1,25,2024-02-28T20:07:15+00:00,2.3928308486938,1,Stim_A.csv,Read.csv,Read,A,rugged,,R5,,,18,Study,User,1.25,,Rough,R5,1951,,,-1,-1,,,,1
5fde8fc3c0e40a651914c261,3zc9jp0oeq,Ex2A_Prolific,1,26,2024-02-28T20:07:17+00:00,2.4127480983734,1,Stim_A.csv,Read.csv,Read,A,bumpy,,R6,,,19,Study,User,1.25,,Rough,R6,1972,,,-1,-1,,,,1
5fde8fc3c0e40a651914c261,3zc9jp0oeq,Ex2A_Prolific,1,27,2024-02-28T20:07:20+00:00,2.5586628913879,1,Stim_A.csv,Read.csv,Read,A,jagged,,R7,,,20,Study,User,1.25,,Rough,R7,2102,,,-1,-1,,,,1
5fde8fc3c0e40a651914c261,3zc9jp0oeq,Ex2A_Prolific,1,28,2024-02-28T20:07:23+00:00,2.5785930156708,1,Stim_A.csv,Read.csv,Read,A,riders,,R8,,,21,Study,User,1.25,,Rough,R8,2110,,,-1,-1,,,,1
5fde8fc3c0e40a651914c261,3zc9jp0oeq,Ex2A_Prolific,1,29,2024-02-28T20:07:25+00:00,2.2644050121307,1,Stim_A.csv,Read.csv,Read,A,uneven,,R9,,,22,Study,User,1.25,,Rough,R9,1838,,,-1,-1,,,,1
5fde8fc3c0e40a651914c261,3zc9jp0oeq,Ex2A_Prolific,1,30,2024-02-28T20:07:27+00:00,1.9078099727631,1,Stim_A.csv,Read.csv,Read,A,road,,R10,,,23,Study,User,1.25,,Rough,R10,1442,,,-1,-1,,,,1
5fde8fc3c0e40a651914c261,3zc9jp0oeq,Ex2A_Prolific,1,31,2024-02-28T20:07:28+00:00,1.700423002243,1,Stim_A.csv,Read.csv,Read,A,ready,,R11,,,24,Study,User,1.25,,Rough,R11,1285,,,-1,-1,,,,1
5fde8fc3c0e40a651914c261,3zc9jp0oeq,Ex2A_Prolific,1,32,2024-02-28T20:07:31+00:00,2.2877671718597,1,Stim_A.csv,Read.csv,Read,A,sand,,R12,,,25,Study,User,1.25,,Rough,R12,1849,,,-1,-1,,,,1
5fde8fc3c0e40a651914c261,3zc9jp0oeq,Ex2A_Prolific,1,33,2024-02-28T20:07:36+00:00,5.5099799633026,1,Stim_A.csv,Read.csv,Read,A,,,,,,0,Instruct,User,-,"You have completed this section. Please click next.",,Instruct166,5027,,,-1,-1,,,,1
5fde8fc3c0e40a651914c261,3zc9jp0oeq,Ex2A_Prolific,1,34,2024-02-28T20:08:07+00:00,30.363570928574,1,Stim_A.csv,Read.csv,Read,A,,,,,,0,FreeRecall,30,30,"Please type as many words as you can that begin with the letter ""K"". The computer will automatically advance to the next screen in 30 seconds.",,FILLER,30001,"knock, knight, king, kangaroo, kansas, ka",0,2385,25680,0,0,,1
5fde8fc3c0e40a651914c261,3zc9jp0oeq,Ex2A_Prolific,1,35,2024-02-28T20:08:09+00:00,2.4991550445557,1,Stim_A.csv,Read.csv,Read,A,,,,,,0,Instruct,User,-,"You have completed this section. Please click next.",,Instruct166,2082,,,-1,-1,,,,1
5fde8fc3c0e40a651914c261,3zc9jp0oeq,Ex2A_Prolific,1,36,2024-02-28T20:08:14+00:00,4.7029049396515,1,Stim_A.csv,Read.csv,Read,A,,,,,,0,Instruct,User,4,"You will now complete a memory test for the words you just studied. Please type as many words from the previous list as you can seperated by a comma. Spelling will not count against you and you can recall the words in any order. This test will be timed for one minute, and the computer will automatically advance once time is up. Click next when you are ready to begin.",,Instruct1666,4270,,,-1,-1,,,,1
5fde8fc3c0e40a651914c261,3zc9jp0oeq,Ex2A_Prolific,1,37,2024-02-28T20:09:14+00:00,60.655216932297,1,Stim_A.csv,Read.csv,Read,A,,,,,,0,FreeRecall,60,60,"Please type as many words as you can from the previous study list in any order. Please separate each word with a comma. Spelling will not count against you. This screen will automatically advance in one minute.",,RECALL_Test,60235,"rough, course, sandpaper, sand, jagged, ",0,1941,21232,0,0,,0.847
5fde8fc3c0e40a651914c261,3zc9jp0oeq,Ex2A_Prolific,1,38,2024-02-28T20:09:18+00:00,3.4529061317444,1,Stim_A.csv,Read.csv,Read,A,,,,,,0,Instruct,User,3,"You will now be presented with a new study list. Click next when you are ready to begin.",,NEXT_LIST,3083,,,-1,-1,,,,0.857
5fde8fc3c0e40a651914c261,3zc9jp0oeq,Ex2A_Prolific,1,39,2024-02-28T20:09:20+00:00,2.3018250465393,1,Stim_A.csv,Read.csv,Read,A,rage,,A1,,,26,Study,User,1.25,,Anger,A1,1918,,,-1,-1,,,,1
5fde8fc3c0e40a651914c261,3zc9jp0oeq,Ex2A_Prolific,1,40,2024-02-28T20:09:23+00:00,2.2821009159088,1,Stim_A.csv,Read.csv,Read,A,mad,,A2,,,27,Study,User,1.25,,Anger,A2,1940,,,-1,-1,,,,1
5fde8fc3c0e40a651914c261,3zc9jp0oeq,Ex2A_Prolific,1,41,2024-02-28T20:09:25+00:00,2.1115291118622,1,Stim_A.csv,Read.csv,Read,A,enrage,,A3,,,28,Study,User,1.25,,Anger,A3,1669,,,-1,-1,,,,1
5fde8fc3c0e40a651914c261,3zc9jp0oeq,Ex2A_Prolific,1,42,2024-02-28T20:09:27+00:00,2.0947659015656,1,Stim_A.csv,Read.csv,Read,A,fury,,A4,,,29,Study,User,1.25,,Anger,A4,1745,,,-1,-1,,,,1
5fde8fc3c0e40a651914c261,3zc9jp0oeq,Ex2A_Prolific,1,43,2024-02-28T20:09:29+00:00,2.2143220901489,1,Stim_A.csv,Read.csv,Read,A,temper,,A5,,,30,Study,User,1.25,,Anger,A5,1802,,,-1,-1,,,,1
5fde8fc3c0e40a651914c261,3zc9jp0oeq,Ex2A_Prolific,1,44,2024-02-28T20:09:31+00:00,2.0548298358917,1,Stim_A.csv,Read.csv,Read,A,ire,,A6,,,31,Study,User,1.25,,Anger,A6,1642,,,-1,-1,,,,1
5fde8fc3c0e40a651914c261,3zc9jp0oeq,Ex2A_Prolific,1,45,2024-02-28T20:09:33+00:00,1.9759621620178,1,Stim_A.csv,Read.csv,Read,A,wrath,,A7,,,32,Study,User,1.25,,Anger,A7,1525,,,-1,-1,,,,1
5fde8fc3c0e40a651914c261,3zc9jp0oeq,Ex2A_Prolific,1,46,2024-02-28T20:09:35+00:00,2.1037847995758,1,Stim_A.csv,Read.csv,Read,A,mean,,A8,,,33,Study,User,1.25,,Anger,A8,1756,,,-1,-1,,,,1
5fde8fc3c0e40a651914c261,3zc9jp0oeq,Ex2A_Prolific,1,47,2024-02-28T20:09:37+00:00,1.8805100917816,1,Stim_A.csv,Read.csv,Read,A,hatred,,A9,,,34,Study,User,1.25,,Anger,A9,1536,,,-1,-1,,,,1
5fde8fc3c0e40a651914c261,3zc9jp0oeq,Ex2A_Prolific,1,48,2024-02-28T20:09:39+00:00,1.8821179866791,1,Stim_A.csv,Read.csv,Read,A,fight,,A10,,,35,Study,User,1.25,,Anger,A10,1420,,,-1,-1,,,,1
5fde8fc3c0e40a651914c261,3zc9jp0oeq,Ex2A_Prolific,1,49,2024-02-28T20:09:41+00:00,2.0925900936127,1,Stim_A.csv,Read.csv,Read,A,hate,,A11,,,36,Study,User,1.25,,Anger,A11,1618,,,-1,-1,,,,1
5fde8fc3c0e40a651914c261,3zc9jp0oeq,Ex2A_Prolific,1,50,2024-02-28T20:09:43+00:00,2.0941498279572,1,Stim_A.csv,Read.csv,Read,A,fear,,A12,,,37,Study,User,1.25,,Anger,A12,1731,,,-1,-1,,,,1
5fde8fc3c0e40a651914c261,3zc9jp0oeq,Ex2A_Prolific,1,51,2024-02-28T20:09:45+00:00,2.2731990814209,1,Stim_A.csv,Read.csv,Read,A,,,,,,0,Instruct,User,-,"You have completed this section. Please click next.",,Instruct166,1931,,,-1,-1,,,,1
5fde8fc3c0e40a651914c261,3zc9jp0oeq,Ex2A_Prolific,1,52,2024-02-28T20:10:16+00:00,30.403043031693,1,Stim_A.csv,Read.csv,Read,A,,,,,,0,FreeRecall,30,30,"Please type as many words as you can that begin with the letter ""K"". The computer will automatically advance to the next screen in 30 seconds.",,FILLER,30002,"knock, king, kangaroo, kansas, krill, ko, koko, kack-",0,1581,29741,0,0,,1
5fde8fc3c0e40a651914c261,3zc9jp0oeq,Ex2A_Prolific,1,53,2024-02-28T20:10:21+00:00,5.5716209411621,1,Stim_A.csv,Read.csv,Read,A,,,,,,0,Instruct,User,4,"You have completed this section. Please click next.",,Instruct166,5085,,,-1,-1,,,,1
5fde8fc3c0e40a651914c261,3zc9jp0oeq,Ex2A_Prolific,1,54,2024-02-28T20:10:26+00:00,4.4518620967865,1,Stim_A.csv,Read.csv,Read,A,,,,,,0,Instruct,User,4,"You will now complete a memory test for the words you just studied. Please type as many words from the previous list as you can seperated by a comma. Spelling will not count against you and you can recall the words in any order. This test will be timed for one minute, and the computer will automatically advance once time is up. Click next when you are ready to begin.",,Instruct1666,4107,,,-1,-1,,,,1
5fde8fc3c0e40a651914c261,3zc9jp0oeq,Ex2A_Prolific,1,55,2024-02-28T20:11:26+00:00,60.737788915634,1,Stim_A.csv,Read.csv,Read,A,,,,,,0,FreeRecall,60,60,"Please type as many words as you can from the previous study list in any order. Please separate each word with a comma. Spelling will not count against you. This screen will automatically advance in one minute.",,RECALL_Test,60340,"rage, fury, anger, ire, enrage, mean, hate, hatred",0,1722,20913,0,0,,0.948
5fde8fc3c0e40a651914c261,3zc9jp0oeq,Ex2A_Prolific,1,56,2024-02-28T20:11:37+00:00,10.599725008011,1,Stim_A.csv,Read.csv,Read,A,,,,,,0,Instruct,User,3,"You will now be presented with a new study list. Click next when you are ready to begin.",,NEXT_LIST,10221,,,-1,-1,,,,0.55
5fde8fc3c0e40a651914c261,3zc9jp0oeq,Ex2A_Prolific,1,57,2024-02-28T20:11:39+00:00,2.1519269943237,1,Stim_A.csv,Read.csv,Read,A,garbage,,T1,,,38,Study,User,1.25,,Trash,T1,1817,,,-1,-1,,,,1
5fde8fc3c0e40a651914c261,3zc9jp0oeq,Ex2A_Prolific,1,58,2024-02-28T20:11:41+00:00,2.1910169124603,1,Stim_A.csv,Read.csv,Read,A,rubbish,,T2,,,39,Study,User,1.25,,Trash,T2,1855,,,-1,-1,,,,1
5fde8fc3c0e40a651914c261,3zc9jp0oeq,Ex2A_Prolific,1,59,2024-02-28T20:11:43+00:00,1.9995360374451,1,Stim_A.csv,Read.csv,Read,A,debris,,T3,,,40,Study,User,1.25,,Trash,T3,1538,,,-1,-1,,,,1
5fde8fc3c0e40a651914c261,3zc9jp0oeq,Ex2A_Prolific,1,60,2024-02-28T20:11:45+00:00,1.7009780406952,1,Stim_A.csv,Read.csv,Read,A,dump,,T4,,,41,Study,User,1.25,,Trash,T4,1272,,,-1,-1,,,,1
5fde8fc3c0e40a651914c261,3zc9jp0oeq,Ex2A_Prolific,1,61,2024-02-28T20:11:48+00:00,2.4836609363556,1,Stim_A.csv,Read.csv,Read,A,litter,,T5,,,42,Study,User,1.25,,Trash,T5,2081,,,-1,-1,,,,1
5fde8fc3c0e40a651914c261,3zc9jp0oeq,Ex2A_Prolific,1,62,2024-02-28T20:11:50+00:00,2.0782070159912,1,Stim_A.csv,Read.csv,Read,A,landfill,,T6,,,43,Study,User,1.25,,Trash,T6,1594,,,-1,-1,,,,1
5fde8fc3c0e40a651914c261,3zc9jp0oeq,Ex2A_Prolific,1,63,2024-02-28T20:11:52+00:00,2.2378900051117,1,Stim_A.csv,Read.csv,Read,A,junk,,T7,,,44,Study,User,1.25,,Trash,T7,1802,,,-1,-1,,,,1
5fde8fc3c0e40a651914c261,3zc9jp0oeq,Ex2A_Prolific,1,64,2024-02-28T20:11:54+00:00,2.2521340847015,1,Stim_A.csv,Read.csv,Read,A,waste,,T8,,,45,Study,User,1.25,,Trash,T8,1790,,,-1,-1,,,,1
5fde8fc3c0e40a651914c261,3zc9jp0oeq,Ex2A_Prolific,1,65,2024-02-28T20:11:56+00:00,2.1275489330292,1,Stim_A.csv,Read.csv,Read,A,sewage,,T9,,,46,Study,User,1.25,,Trash,T9,1662,,,-1,-1,,,,1
5fde8fc3c0e40a651914c261,3zc9jp0oeq,Ex2A_Prolific,1,66,2024-02-28T20:11:58+00:00,2.166088104248,1,Stim_A.csv,Read.csv,Read,A,pile,,T10,,,47,Study,User,1.25,,Trash,T10,1810,,,-1,-1,,,,1
5fde8fc3c0e40a651914c261,3zc9jp0oeq,Ex2A_Prolific,1,67,2024-02-28T20:12:01+00:00,2.3118948936462,1,Stim_A.csv,Read.csv,Read,A,scraps,,T11,,,48,Study,User,1.25,,Trash,T11,1855,,,-1,-1,,,,1
5fde8fc3c0e40a651914c261,3zc9jp0oeq,Ex2A_Prolific,1,68,2024-02-28T20:12:03+00:00,1.9410660266876,1,Stim_A.csv,Read.csv,Read,A,refuse,,T12,,,49,Study,User,1.25,,Trash,T12,1511,,,-1,-1,,,,1
5fde8fc3c0e40a651914c261,3zc9jp0oeq,Ex2A_Prolific,1,69,2024-02-28T20:12:08+00:00,5.395455121994,1,Stim_A.csv,Read.csv,Read,A,,,,,,0,Instruct,User,4,"You have completed this section. Please click next.",,Instruct166,5037,,,-1,-1,,,,1
5fde8fc3c0e40a651914c261,3zc9jp0oeq,Ex2A_Prolific,1,70,2024-02-28T20:12:39+00:00,31.364650011063,1,Stim_A.csv,Read.csv,Read,A,,,,,,0,FreeRecall,30,30,"Please type as many words as you can that begin with the letter ""K"". The computer will automatically advance to the next screen in 30 seconds.",,FILLER,30949,"knocker, knock, kook, kink",0,1414,11061,0,0,,0.903
5fde8fc3c0e40a651914c261,3zc9jp0oeq,Ex2A_Prolific,1,71,2024-02-28T20:12:46+00:00,6.933954000473,1,Stim_A.csv,Read.csv,Read,A,,,,,,0,Instruct,User,4,"You have completed this section. Please click next.",,Instruct166,6419,,,-1,-1,,,,0.6
5fde8fc3c0e40a651914c261,3zc9jp0oeq,Ex2A_Prolific,1,72,2024-02-28T20:12:51+00:00,4.3686559200287,1,Stim_A.csv,Read.csv,Read,A,,,,,,0,Instruct,User,4,"You will now complete a memory test for the words you just studied. Please type as many words from the previous list as you can seperated by a comma. Spelling will not count against you and you can recall the words in any order. This test will be timed for one minute, and the computer will automatically advance once time is up. Click next when you are ready to begin.",,Instruct1666,4037,,,-1,-1,,,,1
5fde8fc3c0e40a651914c261,3zc9jp0oeq,Ex2A_Prolific,1,73,2024-02-28T20:13:51+00:00,60.711791992188,1,Stim_A.csv,Read.csv,Read,A,,,,,,0,FreeRecall,60,60,"Please type as many words as you can from the previous study list in any order. Please separate each word with a comma. Spelling will not count against you. This screen will automatically advance in one minute.",,RECALL_Test,60366,"garbage, refuse, trash, landfill, waste, sewage, dump, tip, rubbish, ",0,2017,34763,0,0,,0.905
5fde8fc3c0e40a651914c261,3zc9jp0oeq,Ex2A_Prolific,1,74,2024-02-28T20:14:07+00:00,15.161540985107,1,Stim_A.csv,Read.csv,Read,A,,,,,,0,Instruct,User,3,"You will now be presented with a new study list. Click next when you are ready to begin.",,NEXT_LIST,14649,,,-1,-1,,,,0.364
5fde8fc3c0e40a651914c261,3zc9jp0oeq,Ex2A_Prolific,1,75,2024-02-28T20:14:09+00:00,1.9044749736786,1,Stim_A.csv,Read.csv,Read,A,physician,,D1,,,50,Study,User,1.25,,Doctor,D1,1447,,,-1,-1,,,,1
5fde8fc3c0e40a651914c261,3zc9jp0oeq,Ex2A_Prolific,1,76,2024-02-28T20:14:11+00:00,2.0577120780945,1,Stim_A.csv,Read.csv,Read,A,nurse,,D2,,,51,Study,User,1.25,,Doctor,D2,1715,,,-1,-1,,,,1
5fde8fc3c0e40a651914c261,3zc9jp0oeq,Ex2A_Prolific,1,77,2024-02-28T20:14:12+00:00,1.7023458480835,1,Stim_A.csv,Read.csv,Read,A,stethoscope,,D3,,,52,Study,User,1.25,,Doctor,D3,1324,,,-1,-1,,,,1
5fde8fc3c0e40a651914c261,3zc9jp0oeq,Ex2A_Prolific,1,78,2024-02-28T20:14:14+00:00,1.8481910228729,1,Stim_A.csv,Read.csv,Read,A,surgeon,,D4,,,53,Study,User,1.25,,Doctor,D4,1385,,,-1,-1,,,,1
5fde8fc3c0e40a651914c261,3zc9jp0oeq,Ex2A_Prolific,1,79,2024-02-28T20:14:16+00:00,1.7731161117554,1,Stim_A.csv,Read.csv,Read,A,patient,,D5,,,54,Study,User,1.25,,Doctor,D5,1340,,,-1,-1,,,,1
5fde8fc3c0e40a651914c261,3zc9jp0oeq,Ex2A_Prolific,1,80,2024-02-28T20:14:18+00:00,2.1847128868103,1,Stim_A.csv,Read.csv,Read,A,clinic,,D6,,,55,Study,User,1.25,,Doctor,D6,1829,,,-1,-1,,,,1
5fde8fc3c0e40a651914c261,3zc9jp0oeq,Ex2A_Prolific,1,81,2024-02-28T20:14:20+00:00,2.1837260723114,1,Stim_A.csv,Read.csv,Read,A,dentist,,D7,,,56,Study,User,1.25,,Doctor,D7,1834,,,-1,-1,,,,1
5fde8fc3c0e40a651914c261,3zc9jp0oeq,Ex2A_Prolific,1,82,2024-02-28T20:14:22+00:00,1.8861520290375,1,Stim_A.csv,Read.csv,Read,A,medicine,,D8,,,57,Study,User,1.25,,Doctor,D8,1412,,,-1,-1,,,,1
5fde8fc3c0e40a651914c261,3zc9jp0oeq,Ex2A_Prolific,1,83,2024-02-28T20:14:24+00:00,2.2843790054321,1,Stim_A.csv,Read.csv,Read,A,lawyer,,D9,,,58,Study,User,1.25,,Doctor,D9,1933,,,-1,-1,,,,1
5fde8fc3c0e40a651914c261,3zc9jp0oeq,Ex2A_Prolific,1,84,2024-02-28T20:14:27+00:00,2.4408860206604,1,Stim_A.csv,Read.csv,Read,A,health,,D10,,,59,Study,User,1.25,,Doctor,D10,1941,,,-1,-1,,,,1
5fde8fc3c0e40a651914c261,3zc9jp0oeq,Ex2A_Prolific,1,85,2024-02-28T20:14:29+00:00,1.8618459701538,1,Stim_A.csv,Read.csv,Read,A,sick,,D11,,,60,Study,User,1.25,,Doctor,D11,1488,,,-1,-1,,,,1
5fde8fc3c0e40a651914c261,3zc9jp0oeq,Ex2A_Prolific,1,86,2024-02-28T20:14:31+00:00,2.1567199230194,1,Stim_A.csv,Read.csv,Read,A,cure,,D12,,,61,Study,User,1.25,,Doctor,D12,1684,,,-1,-1,,,,1
5fde8fc3c0e40a651914c261,3zc9jp0oeq,Ex2A_Prolific,1,87,2024-02-28T20:14:35+00:00,4.5756320953369,1,Stim_A.csv,Read.csv,Read,A,,,,,,0,Instruct,User,4,"You have completed this section. Please click next.",,Instruct166,4132,,,-1,-1,,,,1
5fde8fc3c0e40a651914c261,3zc9jp0oeq,Ex2A_Prolific,1,88,2024-02-28T20:15:06+00:00,30.380254030228,1,Stim_A.csv,Read.csv,Read,A,,,,,,0,FreeRecall,30,30,"Please type as many words as you can that begin with the letter ""K"". The computer will automatically advance to the next screen in 30 seconds.",,FILLER,30003,"kook, krill, knock, knocker, kangaroo, kick, kack",0,2204,14744,0,0,,1
5fde8fc3c0e40a651914c261,3zc9jp0oeq,Ex2A_Prolific,1,89,2024-02-28T20:15:11+00:00,5.4729068279266,1,Stim_A.csv,Read.csv,Read,A,,,,,,0,Instruct,User,4,"You have completed this section. Please click next.",,Instruct166,4938,,,-1,-1,,,,1
5fde8fc3c0e40a651914c261,3zc9jp0oeq,Ex2A_Prolific,1,90,2024-02-28T20:15:16+00:00,4.7813901901245,1,Stim_A.csv,Read.csv,Read,A,,,,,,0,Instruct,User,4,"You will now complete a memory test for the words you just studied. Please type as many words from the previous list as you can seperated by a comma. Spelling will not count against you and you can recall the words in any order. This test will be timed for one minute, and the computer will automatically advance once time is up. Click next when you are ready to begin.",,Instruct1666,4423,,,-1,-1,,,,1
5fde8fc3c0e40a651914c261,3zc9jp0oeq,Ex2A_Prolific,1,91,2024-02-28T20:16:17+00:00,60.401383876801,1,Stim_A.csv,Read.csv,Read,A,,,,,,0,FreeRecall,60,60,"Please type as many words as you can from the previous study list in any order. Please separate each word with a comma. Spelling will not count against you. This screen will automatically advance in one minute.",,RECALL_Test,60001,"dentist, surgeon, nurse, doctor, medical",0,1454,33751,0,0,,1
5fde8fc3c0e40a651914c261,3zc9jp0oeq,Ex2A_Prolific,1,92,2024-02-28T20:16:20+00:00,3.5414979457855,1,Stim_A.csv,Read.csv,Read,A,,,,,,0,Instruct,User,3,"You will now be presented with a new study list. Click next when you are ready to begin.",,NEXT_LIST,3101,,,-1,-1,,,,1
5fde8fc3c0e40a651914c261,3zc9jp0oeq,Ex2A_Prolific,1,93,2024-02-28T20:16:22+00:00,1.8711590766907,1,Stim_A.csv,Read.csv,Read,A,fast,,S1,,,62,Study,User,1.25,,Slow,S1,1494,,,-1,-1,,,,1
5fde8fc3c0e40a651914c261,3zc9jp0oeq,Ex2A_Prolific,1,94,2024-02-28T20:16:24+00:00,2.326052904129,1,Stim_A.csv,Read.csv,Read,A,snail,,S2,,,63,Study,User,1.25,,Slow,S2,1897,,,-1,-1,,,,1
5fde8fc3c0e40a651914c261,3zc9jp0oeq,Ex2A_Prolific,1,95,2024-02-28T20:16:27+00:00,2.2524361610413,1,Stim_A.csv,Read.csv,Read,A,turtle,,S3,,,64,Study,User,1.25,,Slow,S3,1916,,,-1,-1,,,,1
5fde8fc3c0e40a651914c261,3zc9jp0oeq,Ex2A_Prolific,1,96,2024-02-28T20:16:29+00:00,2.0931189060211,1,Stim_A.csv,Read.csv,Read,A,sluggish,,S4,,,65,Study,User,1.25,,Slow,S4,1603,,,-1,-1,,,,1
5fde8fc3c0e40a651914c261,3zc9jp0oeq,Ex2A_Prolific,1,97,2024-02-28T20:16:31+00:00,1.8982930183411,1,Stim_A.csv,Read.csv,Read,A,quick,,S5,,,66,Study,User,1.25,,Slow,S5,1476,,,-1,-1,,,,1
5fde8fc3c0e40a651914c261,3zc9jp0oeq,Ex2A_Prolific,1,98,2024-02-28T20:16:33+00:00,2.1014449596405,1,Stim_A.csv,Read.csv,Read,A,molasses,,S6,,,67,Study,User,1.25,,Slow,S6,1751,,,-1,-1,,,,1
5fde8fc3c0e40a651914c261,3zc9jp0oeq,Ex2A_Prolific,1,99,2024-02-28T20:16:35+00:00,2.2309491634369,1,Stim_A.csv,Read.csv,Read,A,lethargic,,S7,,,68,Study,User,1.25,,Slow,S7,1787,,,-1,-1,,,,1
5fde8fc3c0e40a651914c261,3zc9jp0oeq,Ex2A_Prolific,1,100,2024-02-28T20:16:37+00:00,2.175628900528,1,Stim_A.csv,Read.csv,Read,A,speed,,S8,,,69,Study,User,1.25,,Slow,S8,1752,,,-1,-1,,,,1
5fde8fc3c0e40a651914c261,3zc9jp0oeq,Ex2A_Prolific,1,101,2024-02-28T20:16:39+00:00,1.9610159397125,1,Stim_A.csv,Read.csv,Read,A,delay,,S9,,,70,Study,User,1.25,,Slow,S9,1551,,,-1,-1,,,,1
5fde8fc3c0e40a651914c261,3zc9jp0oeq,Ex2A_Prolific,1,102,2024-02-28T20:16:41+00:00,1.8835830688477,1,Stim_A.csv,Read.csv,Read,A,hesitant,,S10,,,71,Study,User,1.25,,Slow,S10,1489,,,-1,-1,,,,1
5fde8fc3c0e40a651914c261,3zc9jp0oeq,Ex2A_Prolific,1,103,2024-02-28T20:16:43+00:00,2.1853249073029,1,Stim_A.csv,Read.csv,Read,A,cautious,,S11,,,72,Study,User,1.25,,Slow,S11,1702,,,-1,-1,,,,1
5fde8fc3c0e40a651914c261,3zc9jp0oeq,Ex2A_Prolific,1,104,2024-02-28T20:16:45+00:00,2.1437511444092,1,Stim_A.csv,Read.csv,Read,A,traffic,,S12,,,73,Study,User,1.25,,Slow,S12,1714,,,-1,-1,,,,1
5fde8fc3c0e40a651914c261,3zc9jp0oeq,Ex2A_Prolific,1,105,2024-02-28T20:16:50+00:00,4.6811249256134,1,Stim_A.csv,Read.csv,Read,A,,,,,,0,Instruct,User,4,"You have completed this section. Please click next.",,Instruct166,4330,,,-1,-1,,,,1
5fde8fc3c0e40a651914c261,3zc9jp0oeq,Ex2A_Prolific,1,106,2024-02-28T20:17:20+00:00,30.482620954514,1,Stim_A.csv,Read.csv,Read,A,,,,,,0,FreeRecall,30,30,"Please type as many words as you can that begin with the letter ""K"". The computer will automatically advance to the next screen in 30 seconds.",,FILLER,30002,"kook, krill, kack, knook, kansas, korfu",0,2292,29539,0,0,,1
5fde8fc3c0e40a651914c261,3zc9jp0oeq,Ex2A_Prolific,1,107,2024-02-28T20:17:25+00:00,4.6765611171722,1,Stim_A.csv,Read.csv,Read,A,,,,,,0,Instruct,User,4,"You have completed this section. Please click next.",,Instruct166,4320,,,-1,-1,,,,1
5fde8fc3c0e40a651914c261,3zc9jp0oeq,Ex2A_Prolific,1,108,2024-02-28T20:17:33+00:00,8.3317430019379,1,Stim_A.csv,Read.csv,Read,A,,,,,,0,Instruct,User,4,"You will now complete a memory test for the words you just studied. Please type as many words from the previous list as you can seperated by a comma. Spelling will not count against you and you can recall the words in any order. This test will be timed for one minute, and the computer will automatically advance once time is up. Click next when you are ready to begin.",,Instruct1666,7921,,,-1,-1,,,,1
5fde8fc3c0e40a651914c261,3zc9jp0oeq,Ex2A_Prolific,1,109,2024-02-28T20:18:34+00:00,60.389387845993,1,Stim_A.csv,Read.csv,Read,A,,,,,,0,FreeRecall,60,60,"Please type as many words as you can from the previous study list in any order. Please separate each word with a comma. Spelling will not count against you. This screen will automatically advance in one minute.",,RECALL_Test,60001,"fast, snail, sluggish, mollases, mollusc, speed, slug, quick, slow",0,1994,54588,0,0,,1
5fde8fc3c0e40a651914c261,3zc9jp0oeq,Ex2A_Prolific,1,110,2024-02-28T20:18:46+00:00,11.754149198532,1,Stim_A.csv,Read.csv,Read,A,,,,,,0,Instruct,User,3,"You will now be presented with a new study list. Click next when you are ready to begin.",,NEXT_LIST,11307,,,-1,-1,,,,1
5fde8fc3c0e40a651914c261,3zc9jp0oeq,Ex2A_Prolific,1,111,2024-02-28T20:18:47+00:00,1.7879428863525,1,Stim_A.csv,Read.csv,Read,A,mississippi,,RR1,,,74,Study,User,1.25,,River,RR1,1366,,,-1,-1,,,,1
5fde8fc3c0e40a651914c261,3zc9jp0oeq,Ex2A_Prolific,1,112,2024-02-28T20:18:49+00:00,1.8784930706024,1,Stim_A.csv,Read.csv,Read,A,creek,,RR2,,,75,Study,User,1.25,,River,RR2,1468,,,-1,-1,,,,1
5fde8fc3c0e40a651914c261,3zc9jp0oeq,Ex2A_Prolific,1,113,2024-02-28T20:18:51+00:00,2.2149429321289,1,Stim_A.csv,Read.csv,Read,A,stream,,RR3,,,76,Study,User,1.25,,River,RR3,1776,,,-1,-1,,,,1
5fde8fc3c0e40a651914c261,3zc9jp0oeq,Ex2A_Prolific,1,114,2024-02-28T20:18:53+00:00,2.0864930152893,1,Stim_A.csv,Read.csv,Read,A,flow,,RR4,,,77,Study,User,1.25,,River,RR4,1732,,,-1,-1,,,,1
5fde8fc3c0e40a651914c261,3zc9jp0oeq,Ex2A_Prolific,1,115,2024-02-28T20:18:56+00:00,2.1817100048065,1,Stim_A.csv,Read.csv,Read,A,bridge,,RR5,,,78,Study,User,1.25,,River,RR5,1740,,,-1,-1,,,,1
5fde8fc3c0e40a651914c261,3zc9jp0oeq,Ex2A_Prolific,1,116,2024-02-28T20:18:58+00:00,2.1312410831451,1,Stim_A.csv,Read.csv,Read,A,brook,,RR6,,,79,Study,User,1.25,,River,RR6,1692,,,-1,-1,,,,1
5fde8fc3c0e40a651914c261,3zc9jp0oeq,Ex2A_Prolific,1,117,2024-02-28T20:19:00+00:00,2.2307360172272,1,Stim_A.csv,Read.csv,Read,A,lake,,RR7,,,80,Study,User,1.25,,River,RR7,1808,,,-1,-1,,,,1
5fde8fc3c0e40a651914c261,3zc9jp0oeq,Ex2A_Prolific,1,118,2024-02-28T20:19:02+00:00,2.002671957016,1,Stim_A.csv,Read.csv,Read,A,barge,,RR8,,,81,Study,User,1.25,,River,RR8,1657,,,-1,-1,,,,1
5fde8fc3c0e40a651914c261,3zc9jp0oeq,Ex2A_Prolific,1,119,2024-02-28T20:19:04+00:00,2.3076238632202,1,Stim_A.csv,Read.csv,Read,A,water,,RR9,,,82,Study,User,1.25,,River,RR9,1859,,,-1,-1,,,,1
5fde8fc3c0e40a651914c261,3zc9jp0oeq,Ex2A_Prolific,1,120,2024-02-28T20:19:07+00:00,2.3956100940704,1,Stim_A.csv,Read.csv,Read,A,boat,,RR10,,,83,Study,User,1.25,,River,RR10,1958,,,-1,-1,,,,1
5fde8fc3c0e40a651914c261,3zc9jp0oeq,Ex2A_Prolific,1,121,2024-02-28T20:19:09+00:00,2.1662950515747,1,Stim_A.csv,Read.csv,Read,A,tide,,RR11,,,84,Study,User,1.25,,River,RR11,1757,,,-1,-1,,,,1
5fde8fc3c0e40a651914c261,3zc9jp0oeq,Ex2A_Prolific,1,122,2024-02-28T20:19:11+00:00,1.9763698577881,1,Stim_A.csv,Read.csv,Read,A,swim,,RR12,,,85,Study,User,1.25,,River,RR12,1573,,,-1,-1,,,,1
5fde8fc3c0e40a651914c261,3zc9jp0oeq,Ex2A_Prolific,1,123,2024-02-28T20:19:13+00:00,2.0934541225433,1,Stim_A.csv,Read.csv,Read,A,,,,,,0,Instruct,User,-,"You have completed this section. Please click next.",,Instruct166,1748,,,-1,-1,,,,1
5fde8fc3c0e40a651914c261,3zc9jp0oeq,Ex2A_Prolific,1,124,2024-02-28T20:19:43+00:00,30.441634893417,1,Stim_A.csv,Read.csv,Read,A,,,,,,0,FreeRecall,30,30,"Please type as many words as you can that begin with the letter ""K"". The computer will automatically advance to the next screen in 30 seconds.",,FILLER,30001,"knock, kansas, kangaroo, knocker, kook, krill, kneel, knee, k",0,2660,29961,0,0,,1
5fde8fc3c0e40a651914c261,3zc9jp0oeq,Ex2A_Prolific,1,125,2024-02-28T20:19:48+00:00,4.9050569534302,1,Stim_A.csv,Read.csv,Read,A,,,,,,0,Instruct,User,4,"You have completed this section. Please click next.",,Instruct166,4508,,,-1,-1,,,,1
5fde8fc3c0e40a651914c261,3zc9jp0oeq,Ex2A_Prolific,1,126,2024-02-28T20:19:53+00:00,4.6626009941101,1,Stim_A.csv,Read.csv,Read,A,,,,,,0,Instruct,User,4,"You will now complete a memory test for the words you just studied. Please type as many words from the previous list as you can seperated by a comma. Spelling will not count against you and you can recall the words in any order. This test will be timed for one minute, and the computer will automatically advance once time is up. Click next when you are ready to begin.",,Instruct1666,4249,,,-1,-1,,,,1
5fde8fc3c0e40a651914c261,3zc9jp0oeq,Ex2A_Prolific,1,127,2024-02-28T20:20:53+00:00,60.509452104568,1,Stim_A.csv,Read.csv,Read,A,,,,,,0,FreeRecall,60,60,"Please type as many words as you can from the previous study list in any order. Please separate each word with a comma. Spelling will not count against you. This screen will automatically advance in one minute.",,RECALL_Test,60071,"missisipi, river, lake, barge, ",0,3030,11380,0,0,,0.764
5fde8fc3c0e40a651914c261,3zc9jp0oeq,Ex2A_Prolific,1,128,2024-02-28T20:20:58+00:00,4.3378670215607,1,Stim_A.csv,Read.csv,Read,A,,,,,,0,Instruct,User,3,"You will now be presented with a new study list. Click next when you are ready to begin.",,NEXT_LIST,3834,,,-1,-1,,,,0.727
5fde8fc3c0e40a651914c261,3zc9jp0oeq,Ex2A_Prolific,1,129,2024-02-28T20:21:00+00:00,1.7928628921509,1,Stim_A.csv,Read.csv,Read,A,rye,,B1,,,86,Study,User,1.25,,Bread,B1,1440,,,-1,-1,,,,1
5fde8fc3c0e40a651914c261,3zc9jp0oeq,Ex2A_Prolific,1,130,2024-02-28T20:21:02+00:00,1.9761340618134,1,Stim_A.csv,Read.csv,Read,A,loaf,,B2,,,87,Study,User,1.25,,Bread,B2,1574,,,-1,-1,,,,1
5fde8fc3c0e40a651914c261,3zc9jp0oeq,Ex2A_Prolific,1,131,2024-02-28T20:21:04+00:00,2.3295381069183,1,Stim_A.csv,Read.csv,Read,A,butter,,B3,,,88,Study,User,1.25,,Bread,B3,1850,,,-1,-1,,,,1
5fde8fc3c0e40a651914c261,3zc9jp0oeq,Ex2A_Prolific,1,132,2024-02-28T20:21:06+00:00,1.921972990036,1,Stim_A.csv,Read.csv,Read,A,toast,,B4,,,89,Study,User,1.25,,Bread,B4,1533,,,-1,-1,,,,1
5fde8fc3c0e40a651914c261,3zc9jp0oeq,Ex2A_Prolific,1,133,2024-02-28T20:21:08+00:00,2.063304901123,1,Stim_A.csv,Read.csv,Read,A,dough,,B5,,,90,Study,User,1.25,,Bread,B5,1644,,,-1,-1,,,,1
5fde8fc3c0e40a651914c261,3zc9jp0oeq,Ex2A_Prolific,1,134,2024-02-28T20:21:10+00:00,1.7099299430847,1,Stim_A.csv,Read.csv,Read,A,crust,,B6,,,91,Study,User,1.25,,Bread,B6,1264,,,-1,-1,,,,1
5fde8fc3c0e40a651914c261,3zc9jp0oeq,Ex2A_Prolific,1,135,2024-02-28T20:21:12+00:00,1.9465460777283,1,Stim_A.csv,Read.csv,Read,A,flour,,B7,,,92,Study,User,1.25,,Bread,B7,1604,,,-1,-1,,,,1
5fde8fc3c0e40a651914c261,3zc9jp0oeq,Ex2A_Prolific,1,136,2024-02-28T20:21:13+00:00,1.8119881153107,1,Stim_A.csv,Read.csv,Read,A,sandwich,,B8,,,93,Study,User,1.25,,Bread,B8,1438,,,-1,-1,,,,1
5fde8fc3c0e40a651914c261,3zc9jp0oeq,Ex2A_Prolific,1,137,2024-02-28T20:21:15+00:00,2.0434429645538,1,Stim_A.csv,Read.csv,Read,A,jam,,B9,,,94,Study,User,1.25,,Bread,B9,1613,,,-1,-1,,,,1
5fde8fc3c0e40a651914c261,3zc9jp0oeq,Ex2A_Prolific,1,138,2024-02-28T20:21:18+00:00,2.1705389022827,1,Stim_A.csv,Read.csv,Read,A,jelly,,B10,,,95,Study,User,1.25,,Bread,B10,1753,,,-1,-1,,,,1
5fde8fc3c0e40a651914c261,3zc9jp0oeq,Ex2A_Prolific,1,139,2024-02-28T20:21:20+00:00,2.0540490150452,1,Stim_A.csv,Read.csv,Read,A,slice,,B11,,,96,Study,User,1.25,,Bread,B11,1646,,,-1,-1,,,,1
5fde8fc3c0e40a651914c261,3zc9jp0oeq,Ex2A_Prolific,1,140,2024-02-28T20:21:22+00:00,1.8897869586945,1,Stim_A.csv,Read.csv,Read,A,milk,,B12,,,97,Study,User,1.25,,Bread,B12,1451,,,-1,-1,,,,1
5fde8fc3c0e40a651914c261,3zc9jp0oeq,Ex2A_Prolific,1,141,2024-02-28T20:21:26+00:00,4.6914899349213,1,Stim_A.csv,Read.csv,Read,A,,,,,,0,Instruct,User,4,"You have completed this section. Please click next.",,Instruct166,4320,,,-1,-1,,,,1
5fde8fc3c0e40a651914c261,3zc9jp0oeq,Ex2A_Prolific,1,142,2024-02-28T20:21:57+00:00,30.463114023209,1,Stim_A.csv,Read.csv,Read,A,,,,,,0,FreeRecall,30,30,"Please type as many words as you can that begin with the letter ""K"". The computer will automatically advance to the next screen in 30 seconds.",,FILLER,30004,"knit, kick, knock, knocker, kuss, khappa, kassava, ",0,1299,29332,0,0,,1
5fde8fc3c0e40a651914c261,3zc9jp0oeq,Ex2A_Prolific,1,143,2024-02-28T20:22:01+00:00,4.5685200691223,1,Stim_A.csv,Read.csv,Read,A,,,,,,0,Instruct,User,4,"You have completed this section. Please click next.",,Instruct166,4135,,,-1,-1,,,,1
5fde8fc3c0e40a651914c261,3zc9jp0oeq,Ex2A_Prolific,1,144,2024-02-28T20:22:06+00:00,4.4332520961761,1,Stim_A.csv,Read.csv,Read,A,,,,,,0,Instruct,User,4,"You will now complete a memory test for the words you just studied. Please type as many words from the previous list as you can seperated by a comma. Spelling will not count against you and you can recall the words in any order. This test will be timed for one minute, and the computer will automatically advance once time is up. Click next when you are ready to begin.",,Instruct1666,4066,,,-1,-1,,,,1
5fde8fc3c0e40a651914c261,3zc9jp0oeq,Ex2A_Prolific,1,145,2024-02-28T20:23:06+00:00,60.453004837036,1,Stim_A.csv,Read.csv,Read,A,,,,,,0,FreeRecall,60,60,"Please type as many words as you can from the previous study list in any order. Please separate each word with a comma. Spelling will not count against you. This screen will automatically advance in one minute.",,RECALL_Test,60002,"bread, dough, butter, bloomer, sourdough, ",0,7381,34085,0,0,,1
5fde8fc3c0e40a651914c261,3zc9jp0oeq,Ex2A_Prolific,1,146,2024-02-28T20:23:35+00:00,28.910338163376,1,Stim_A.csv,Read.csv,Read,A,,,,,,0,Instruct,User,3,"You will now be presented with a new study list. Click next when you are ready to begin.",,NEXT_LIST,28456,,,-1,-1,,,,1
5fde8fc3c0e40a651914c261,3zc9jp0oeq,Ex2A_Prolific,1,147,2024-02-28T20:24:55+00:00,80.270181894302,1,Stim_A.csv,Read.csv,Read,A,banner,,F1,,,98,Study,User,1.25,,Flag,F1,79630,,,-1,-1,,,,1
5fde8fc3c0e40a651914c261,3zc9jp0oeq,Ex2A_Prolific,1,148,2024-02-28T20:24:57+00:00,2.1550059318542,1,Stim_A.csv,Read.csv,Read,A,checkered,,F2,,,99,Study,User,1.25,,Flag,F2,1807,,,-1,-1,,,,1
5fde8fc3c0e40a651914c261,3zc9jp0oeq,Ex2A_Prolific,1,149,2024-02-28T20:24:59+00:00,1.7613961696625,1,Stim_A.csv,Read.csv,Read,A,american,,F3,,,100,Study,User,1.25,,Flag,F3,1380,,,-1,-1,,,,1
5fde8fc3c0e40a651914c261,3zc9jp0oeq,Ex2A_Prolific,1,150,2024-02-28T20:25:01+00:00,1.6624069213867,1,Stim_A.csv,Read.csv,Read,A,stripes,,F4,,,101,Study,User,1.25,,Flag,F4,1282,,,-1,-1,,,,1
5fde8fc3c0e40a651914c261,3zc9jp0oeq,Ex2A_Prolific,1,151,2024-02-28T20:25:03+00:00,2.0895199775696,1,Stim_A.csv,Read.csv,Read,A,pole,,F5,,,102,Study,User,1.25,,Flag,F5,1655,,,-1,-1,,,,1
5fde8fc3c0e40a651914c261,3zc9jp0oeq,Ex2A_Prolific,1,152,2024-02-28T20:25:05+00:00,1.8587810993195,1,Stim_A.csv,Read.csv,Read,A,anthem,,F6,,,103,Study,User,1.25,,Flag,F6,1495,,,-1,-1,,,,1
5fde8fc3c0e40a651914c261,3zc9jp0oeq,Ex2A_Prolific,1,153,2024-02-28T20:25:07+00:00,2.0868430137634,1,Stim_A.csv,Read.csv,Read,A,emblem,,F7,,,104,Study,User,1.25,,Flag,F7,1764,,,-1,-1,,,,1
5fde8fc3c0e40a651914c261,3zc9jp0oeq,Ex2A_Prolific,1,154,2024-02-28T20:25:09+00:00,1.9787268638611,1,Stim_A.csv,Read.csv,Read,A,national,,F8,,,105,Study,User,1.25,,Flag,F8,1657,,,-1,-1,,,,1
5fde8fc3c0e40a651914c261,3zc9jp0oeq,Ex2A_Prolific,1,155,2024-02-28T20:25:11+00:00,1.9155540466309,1,Stim_A.csv,Read.csv,Read,A,freedom,,F9,,,106,Study,User,1.25,,Flag,F9,1512,,,-1,-1,,,,1
5fde8fc3c0e40a651914c261,3zc9jp0oeq,Ex2A_Prolific,1,156,2024-02-28T20:25:13+00:00,1.8879060745239,1,Stim_A.csv,Read.csv,Read,A,symbol,,F10,,,107,Study,User,1.25,,Flag,F10,1551,,,-1,-1,,,,1
5fde8fc3c0e40a651914c261,3zc9jp0oeq,Ex2A_Prolific,1,157,2024-02-28T20:25:15+00:00,1.7974009513855,1,Stim_A.csv,Read.csv,Read,A,wave,,F11,,,108,Study,User,1.25,,Flag,F11,1363,,,-1,-1,,,,1
5fde8fc3c0e40a651914c261,3zc9jp0oeq,Ex2A_Prolific,1,158,2024-02-28T20:25:16+00:00,1.8144810199738,1,Stim_A.csv,Read.csv,Read,A,stars,,F12,,,109,Study,User,1.25,,Flag,F12,1465,,,-1,-1,,,,1
5fde8fc3c0e40a651914c261,3zc9jp0oeq,Ex2A_Prolific,1,159,2024-02-28T20:25:18+00:00,1.4479670524597,1,Stim_A.csv,Read.csv,Read,A,,,,,,0,Instruct,User,-,"You have completed this section. Please click next.",,Instruct166,1055,,,-1,-1,,,,1
5fde8fc3c0e40a651914c261,3zc9jp0oeq,Ex2A_Prolific,1,160,2024-02-28T20:25:48+00:00,30.355952978134,1,Stim_A.csv,Read.csv,Read,A,,,,,,0,FreeRecall,30,30,"Please type as many words as you can that begin with the letter ""K"". The computer will automatically advance to the next screen in 30 seconds.",,FILLER,30003,"kosovo, kick, knit, knocker, knock, kook, kack",0,1880,12063,0,0,,1
5fde8fc3c0e40a651914c261,3zc9jp0oeq,Ex2A_Prolific,1,161,2024-02-28T20:26:56+00:00,67.629747867584,1,Stim_A.csv,Read.csv,Read,A,,,,,,0,Instruct,User,-,"You have completed this section. Please click next.",,Instruct166,66932,,,-1,-1,,,,1
5fde8fc3c0e40a651914c261,3zc9jp0oeq,Ex2A_Prolific,1,162,2024-02-28T20:27:31+00:00,34.952008008957,1,Stim_A.csv,Read.csv,Read,A,,,,,,0,Instruct,User,4,"You will now complete a memory test for the words you just studied. Please type as many words from the previous list as you can seperated by a comma. Spelling will not count against you and you can recall the words in any order. This test will be timed for one minute, and the computer will automatically advance once time is up. Click next when you are ready to begin.",,Instruct1666,34611,,,-1,-1,,,,1
5fde8fc3c0e40a651914c261,3zc9jp0oeq,Ex2A_Prolific,1,163,2024-02-28T20:28:31+00:00,60.381798028946,1,Stim_A.csv,Read.csv,Read,A,,,,,,0,FreeRecall,60,60,"Please type as many words as you can from the previous study list in any order. Please separate each word with a comma. Spelling will not count against you. This screen will automatically advance in one minute.",,RECALL_Test,60002,"checkered, stars, banner, emblem, freedom, american, pole, ",0,2878,25700,0,0,,1
5fde8fc3c0e40a651914c261,3zc9jp0oeq,Ex2A_Prolific,1,164,2024-02-28T20:29:21+00:00,50.241612911224,1,Stim_A.csv,Read.csv,Read,A,,,,,,0,Instruct,User,3,"You will now be presented with a new study list. Click next when you are ready to begin.",,NEXT_LIST,49888,,,-1,-1,,,,1
5fde8fc3c0e40a651914c261,3zc9jp0oeq,Ex2A_Prolific,1,165,2024-02-28T20:29:23+00:00,2.0004482269287,1,Stim_A.csv,Read.csv,Read,A,blouse,,SS1,,,110,Study,User,1.25,,Shirt,SS1,1673,,,-1,-1,,,,1
5fde8fc3c0e40a651914c261,3zc9jp0oeq,Ex2A_Prolific,1,166,2024-02-28T20:29:25+00:00,1.9308619499207,1,Stim_A.csv,Read.csv,Read,A,sleeves,,SS2,,,111,Study,User,1.25,,Shirt,SS2,1578,,,-1,-1,,,,1
5fde8fc3c0e40a651914c261,3zc9jp0oeq,Ex2A_Prolific,1,167,2024-02-28T20:29:27+00:00,2.172308921814,1,Stim_A.csv,Read.csv,Read,A,collar,,SS3,,,112,Study,User,1.25,,Shirt,SS3,1796,,,-1,-1,,,,1
5fde8fc3c0e40a651914c261,3zc9jp0oeq,Ex2A_Prolific,1,168,2024-02-28T20:29:29+00:00,1.8435719013214,1,Stim_A.csv,Read.csv,Read,A,shorts,,SS4,,,113,Study,User,1.25,,Shirt,SS4,1497,,,-1,-1,,,,1
5fde8fc3c0e40a651914c261,3zc9jp0oeq,Ex2A_Prolific,1,169,2024-02-28T20:29:31+00:00,1.839527130127,1,Stim_A.csv,Read.csv,Read,A,button,,SS5,,,114,Study,User,1.25,,Shirt,SS5,1517,,,-1,-1,,,,1
5fde8fc3c0e40a651914c261,3zc9jp0oeq,Ex2A_Prolific,1,170,2024-02-28T20:29:33+00:00,1.8755180835724,1,Stim_A.csv,Read.csv,Read,A,pants,,SS6,,,115,Study,User,1.25,,Shirt,SS6,1522,,,-1,-1,,,,1
5fde8fc3c0e40a651914c261,3zc9jp0oeq,Ex2A_Prolific,1,171,2024-02-28T20:29:35+00:00,1.9837667942047,1,Stim_A.csv,Read.csv,Read,A,polo,,SS7,,,116,Study,User,1.25,,Shirt,SS7,1562,,,-1,-1,,,,1
5fde8fc3c0e40a651914c261,3zc9jp0oeq,Ex2A_Prolific,1,172,2024-02-28T20:29:37+00:00,1.7482881546021,1,Stim_A.csv,Read.csv,Read,A,jersey,,SS8,,,117,Study,User,1.25,,Shirt,SS8,1416,,,-1,-1,,,,1
5fde8fc3c0e40a651914c261,3zc9jp0oeq,Ex2A_Prolific,1,173,2024-02-28T20:29:39+00:00,1.9632189273834,1,Stim_A.csv,Read.csv,Read,A,vest,,SS9,,,118,Study,User,1.25,,Shirt,SS9,1597,,,-1,-1,,,,1
5fde8fc3c0e40a651914c261,3zc9jp0oeq,Ex2A_Prolific,1,174,2024-02-28T20:29:41+00:00,1.9593410491943,1,Stim_A.csv,Read.csv,Read,A,cuffs,,SS10,,,119,Study,User,1.25,,Shirt,SS10,1611,,,-1,-1,,,,1
5fde8fc3c0e40a651914c261,3zc9jp0oeq,Ex2A_Prolific,1,175,2024-02-28T20:29:42+00:00,1.7991800308228,1,Stim_A.csv,Read.csv,Read,A,tie,,SS11,,,120,Study,User,1.25,,Shirt,SS11,1455,,,-1,-1,,,,1
5fde8fc3c0e40a651914c261,3zc9jp0oeq,Ex2A_Prolific,1,176,2024-02-28T20:29:44+00:00,1.7886049747467,1,Stim_A.csv,Read.csv,Read,A,pocket,,SS12,,,121,Study,User,1.25,,Shirt,SS12,1456,,,-1,-1,,,,1
5fde8fc3c0e40a651914c261,3zc9jp0oeq,Ex2A_Prolific,1,177,2024-02-28T20:29:46+00:00,1.811861038208,1,Stim_A.csv,Read.csv,Read,A,,,,,,0,Instruct,User,-,"You have completed this section. Please click next.",,Instruct166,1472,,,-1,-1,,,,1
5fde8fc3c0e40a651914c261,3zc9jp0oeq,Ex2A_Prolific,1,178,2024-02-28T20:30:16+00:00,30.392498970032,1,Stim_A.csv,Read.csv,Read,A,,,,,,0,FreeRecall,30,30,"Please type as many words as you can that begin with the letter ""K"". The computer will automatically advance to the next screen in 30 seconds.",,FILLER,30003,"knock, knook, kook, knocker, kahki, kant",0,1971,29441,0,0,,1
5fde8fc3c0e40a651914c261,3zc9jp0oeq,Ex2A_Prolific,1,179,2024-02-28T20:30:19+00:00,2.0785388946533,1,Stim_A.csv,Read.csv,Read,A,,,,,,0,Instruct,User,-,"You have completed this section. Please click next.",,Instruct166,1749,,,-1,-1,,,,1
5fde8fc3c0e40a651914c261,3zc9jp0oeq,Ex2A_Prolific,1,180,2024-02-28T20:30:24+00:00,5.0247321128845,1,Stim_A.csv,Read.csv,Read,A,,,,,,0,Instruct,User,4,"You will now complete a memory test for the words you just studied. Please type as many words from the previous list as you can seperated by a comma. Spelling will not count against you and you can recall the words in any order. This test will be timed for one minute, and the computer will automatically advance once time is up. Click next when you are ready to begin.",,Instruct1666,4660,,,-1,-1,,,,1
5fde8fc3c0e40a651914c261,3zc9jp0oeq,Ex2A_Prolific,1,181,2024-02-28T20:31:24+00:00,60.409496068954,1,Stim_A.csv,Read.csv,Read,A,,,,,,0,FreeRecall,60,60,"Please type as many words as you can from the previous study list in any order. Please separate each word with a comma. Spelling will not count against you. This screen will automatically advance in one minute.",,RECALL_Test,60002,"blouse, sleeves, shirt",0,813,9002,0,0,,1
5fde8fc3c0e40a651914c261,3zc9jp0oeq,Ex2A_Prolific,1,182,2024-02-28T20:31:59+00:00,34.740245819092,1,Stim_A.csv,Read.csv,Read,A,,,,,,0,Instruct,User,-,"You have completed this section. Please click next.",,Instruct7,34263,,,-1,-1,,,,1
5fde8fc3c0e40a651914c261,3zc9jp0oeq,Ex2A_Prolific,1,183,2024-02-28T20:32:04+00:00,5.0994210243225,1,Stim_A.csv,Read.csv,Read,A,,,,,,0,Instruct,User,-,"The following screen will ask you a few questions abour your experience today. You must complete these questions to receive credit.",,Instruct8,4734,,,-1,-1,,,,1
