Username,ID,ExperimentName,Session,Trial,Date,TimeDif,"Condition Number","Stimuli File","Order File","Condition Description","Condition Notes",Stimuli*Cue,Stimuli*Answer,Stimuli*Shuffle,"Stimuli*Stimuli Notes",Stimuli*Value,Procedure*Item,"Procedure*Trial Type","Procedure*Max Time","Procedure*Min Time",Procedure*Text,"Procedure*Procedure Notes",Procedure*Shuffle,Response*RT,Response*Response,Response*Accuracy,Response*RTfirst,Response*RTlast,Response*strictAcc,Response*lenientAcc,Response*focus,Response*Focus
5b0d0beed282ff00015b9972,5o5octlora,Ex2A_Prolific,1,1,2024-02-28T00:40:44+00:00,7.4724159240723,2,Stim_B.csv,Read.csv,Read,B,,,,,,0,Instruct,-,5,"In this section, you will be presented with a series of words. Please study each word carefully. Your memory will be tested! Click next when you are ready to begin.",Initial_Instruct,Instruct1,7297,,,-1,-1,,,,1
5b0d0beed282ff00015b9972,5o5octlora,Ex2A_Prolific,1,2,2024-02-28T00:40:46+00:00,2.019711971283,2,Stim_B.csv,Read.csv,Read,B,,,,,,0,Instruct,User,-,"You will now begin the study. Click next when you are ready to begin.",,Instruct16,1683,,,-1,-1,,,,1
5b0d0beed282ff00015b9972,5o5octlora,Ex2A_Prolific,1,3,2024-02-28T00:40:50+00:00,3.3815429210663,2,Stim_B.csv,Read.csv,Read,B,aroma,,Win_1,,,2,Study,User,1.25,,Window,Win_1,3066,,,-1,-1,,,,1
5b0d0beed282ff00015b9972,5o5octlora,Ex2A_Prolific,1,4,2024-02-28T00:40:52+00:00,2.4949131011963,2,Stim_B.csv,Read.csv,Read,B,scent,,Win_2,,,3,Study,User,1.25,,Window,Win_2,2175,,,-1,-1,,,,1
5b0d0beed282ff00015b9972,5o5octlora,Ex2A_Prolific,1,5,2024-02-28T00:40:55+00:00,2.5044889450073,2,Stim_B.csv,Read.csv,Read,B,whiff,,Win_3,,,4,Study,User,1.25,,Window,Win_3,2182,,,-1,-1,,,,1
5b0d0beed282ff00015b9972,5o5octlora,Ex2A_Prolific,1,6,2024-02-28T00:40:57+00:00,2.1346669197083,2,Stim_B.csv,Read.csv,Read,B,stench,,Win_4,,,5,Study,User,1.25,,Window,Win_4,1818,,,-1,-1,,,,1
5b0d0beed282ff00015b9972,5o5octlora,Ex2A_Prolific,1,7,2024-02-28T00:40:59+00:00,2.200982093811,2,Stim_B.csv,Read.csv,Read,B,reek,,Win_5,,,6,Study,User,1.25,,Window,Win_5,1870,,,-1,-1,,,,1
5b0d0beed282ff00015b9972,5o5octlora,Ex2A_Prolific,1,8,2024-02-28T00:41:01+00:00,1.9662249088287,2,Stim_B.csv,Read.csv,Read,B,sniff,,Win_6,,,7,Study,User,1.25,,Window,Win_6,1649,,,-1,-1,,,,1
5b0d0beed282ff00015b9972,5o5octlora,Ex2A_Prolific,1,9,2024-02-28T00:41:03+00:00,2.0282320976257,2,Stim_B.csv,Read.csv,Read,B,perfume,,Win_7,,,8,Study,User,1.25,,Window,Win_7,1682,,,-1,-1,,,,1
5b0d0beed282ff00015b9972,5o5octlora,Ex2A_Prolific,1,10,2024-02-28T00:41:05+00:00,2.0390689373016,2,Stim_B.csv,Read.csv,Read,B,fragrance,,Win_8,,,9,Study,User,1.25,,Window,Win_8,1702,,,-1,-1,,,,1
5b0d0beed282ff00015b9972,5o5octlora,Ex2A_Prolific,1,11,2024-02-28T00:41:08+00:00,2.7097811698914,2,Stim_B.csv,Read.csv,Read,B,nose,,Win_9,,,10,Study,User,1.25,,Window,Win_9,2390,,,-1,-1,,,,1
5b0d0beed282ff00015b9972,5o5octlora,Ex2A_Prolific,1,12,2024-02-28T00:41:10+00:00,2.0229749679565,2,Stim_B.csv,Read.csv,Read,B,rose,,Win_10,,,11,Study,User,1.25,,Window,Win_10,1657,,,-1,-1,,,,1
5b0d0beed282ff00015b9972,5o5octlora,Ex2A_Prolific,1,13,2024-02-28T00:41:12+00:00,2.1316268444061,2,Stim_B.csv,Read.csv,Read,B,salts,,Win_11,,,12,Study,User,1.25,,Window,Win_11,1832,,,-1,-1,,,,1
5b0d0beed282ff00015b9972,5o5octlora,Ex2A_Prolific,1,14,2024-02-28T00:41:14+00:00,2.3743941783905,2,Stim_B.csv,Read.csv,Read,B,breathe,,Win_12,,,13,Study,User,1.25,,Window,Win_12,2050,,,-1,-1,,,,1
5b0d0beed282ff00015b9972,5o5octlora,Ex2A_Prolific,1,15,2024-02-28T00:41:16+00:00,1.867723941803,2,Stim_B.csv,Read.csv,Read,B,,,,,,0,Instruct,User,-,"You have completed this section. Please click next.",,Instruct166,1541,,,-1,-1,,,,1
5b0d0beed282ff00015b9972,5o5octlora,Ex2A_Prolific,1,16,2024-02-28T00:41:47+00:00,30.382927894592,2,Stim_B.csv,Read.csv,Read,B,,,,,,0,FreeRecall,30,30,"Please type as many words as you can that begin with the letter ""K"". The computer will automatically advance to the next screen in 30 seconds.",,FILLER,30004,"kill, know, knowledge, kneel, kitchen, ",0,6885,27975,0,0,,1
5b0d0beed282ff00015b9972,5o5octlora,Ex2A_Prolific,1,17,2024-02-28T00:41:52+00:00,4.8574101924896,2,Stim_B.csv,Read.csv,Read,B,,,,,,0,Instruct,User,4,"You have completed this section. Please click next.",,Instruct166,4555,,,-1,-1,,,,1
5b0d0beed282ff00015b9972,5o5octlora,Ex2A_Prolific,1,18,2024-02-28T00:42:12+00:00,20.953989982605,2,Stim_B.csv,Read.csv,Read,B,,,,,,0,Instruct,User,4,"You will now complete a memory test for the words you just studied. Please type as many words from the previous list as you can seperated by a comma. Spelling will not count against you and you can recall the words in any order. This test will be timed for one minute, and the computer will automatically advance once time is up. Click next when you are ready to begin.",,Instruct1666,20596,,,-1,-1,,,,1
5b0d0beed282ff00015b9972,5o5octlora,Ex2A_Prolific,1,19,2024-02-28T00:43:13+00:00,60.351609945297,2,Stim_B.csv,Read.csv,Read,B,,,,,,0,FreeRecall,60,60,"Please type as many words as you can from the previous study list in any order. Please separate each word with a comma. Spelling will not count against you. This screen will automatically advance in one minute.",,RECALL_Test,60011,"scent, aroma, stench, whiff, nose, salt, taste, ",0,3007,53017,0,0,,1
5b0d0beed282ff00015b9972,5o5octlora,Ex2A_Prolific,1,20,2024-02-28T00:43:26+00:00,13.177091836929,2,Stim_B.csv,Read.csv,Read,B,,,,,,0,Instruct,User,3,"You will now be presented with a new study list. Click next when you are ready to begin.",,NEXT_LIST,12828,,,-1,-1,,,,1
5b0d0beed282ff00015b9972,5o5octlora,Ex2A_Prolific,1,21,2024-02-28T00:43:30+00:00,4.0571551322937,2,Stim_B.csv,Read.csv,Read,B,hard,,R1,,,14,Study,User,1.25,,Rough,R1,3709,,,-1,-1,,,,1
5b0d0beed282ff00015b9972,5o5octlora,Ex2A_Prolific,1,22,2024-02-28T00:43:33+00:00,2.5817120075226,2,Stim_B.csv,Read.csv,Read,B,loud,,R2,,,15,Study,User,1.25,,Rough,R2,2248,,,-1,-1,,,,1
5b0d0beed282ff00015b9972,5o5octlora,Ex2A_Prolific,1,23,2024-02-28T00:43:35+00:00,2.5732560157776,2,Stim_B.csv,Read.csv,Read,B,tender,,R3,,,16,Study,User,1.25,,Rough,R3,2300,,,-1,-1,,,,1
5b0d0beed282ff00015b9972,5o5octlora,Ex2A_Prolific,1,24,2024-02-28T00:43:38+00:00,2.4765129089355,2,Stim_B.csv,Read.csv,Read,B,fluffy,,R4,,,17,Study,User,1.25,,Rough,R4,2178,,,-1,-1,,,,1
5b0d0beed282ff00015b9972,5o5octlora,Ex2A_Prolific,1,25,2024-02-28T00:43:41+00:00,3.7860491275787,2,Stim_B.csv,Read.csv,Read,B,pillow,,R5,,,18,Study,User,1.25,,Rough,R5,3464,,,-1,-1,,,,1
5b0d0beed282ff00015b9972,5o5octlora,Ex2A_Prolific,1,26,2024-02-28T00:43:44+00:00,2.9168639183044,2,Stim_B.csv,Read.csv,Read,B,downy,,R6,,,19,Study,User,1.25,,Rough,R6,2584,,,-1,-1,,,,1
5b0d0beed282ff00015b9972,5o5octlora,Ex2A_Prolific,1,27,2024-02-28T00:43:47+00:00,2.8059980869293,2,Stim_B.csv,Read.csv,Read,B,plush,,R7,,,20,Study,User,1.25,,Rough,R7,2481,,,-1,-1,,,,1
5b0d0beed282ff00015b9972,5o5octlora,Ex2A_Prolific,1,28,2024-02-28T00:43:50+00:00,2.6763169765472,2,Stim_B.csv,Read.csv,Read,B,cotton,,R8,,,21,Study,User,1.25,,Rough,R8,2328,,,-1,-1,,,,1
5b0d0beed282ff00015b9972,5o5octlora,Ex2A_Prolific,1,29,2024-02-28T00:43:52+00:00,2.2234418392181,2,Stim_B.csv,Read.csv,Read,B,skin,,R9,,,22,Study,User,1.25,,Rough,R9,1883,,,-1,-1,,,,1
5b0d0beed282ff00015b9972,5o5octlora,Ex2A_Prolific,1,30,2024-02-28T00:43:55+00:00,2.9434959888458,2,Stim_B.csv,Read.csv,Read,B,fur,,R10,,,23,Study,User,1.25,,Rough,R10,2600,,,-1,-1,,,,1
5b0d0beed282ff00015b9972,5o5octlora,Ex2A_Prolific,1,31,2024-02-28T00:43:58+00:00,3.4109151363373,2,Stim_B.csv,Read.csv,Read,B,touch,,R11,,,24,Study,User,1.25,,Rough,R11,3060,,,-1,-1,,,,1
5b0d0beed282ff00015b9972,5o5octlora,Ex2A_Prolific,1,32,2024-02-28T00:44:04+00:00,5.2019979953766,2,Stim_B.csv,Read.csv,Read,B,furry,,R12,,,25,Study,User,1.25,,Rough,R12,4917,,,-1,-1,,,,1
5b0d0beed282ff00015b9972,5o5octlora,Ex2A_Prolific,1,33,2024-02-28T00:44:08+00:00,3.9831058979034,2,Stim_B.csv,Read.csv,Read,B,,,,,,0,Instruct,User,-,"You have completed this section. Please click next.",,Instruct166,3684,,,-1,-1,,,,1
5b0d0beed282ff00015b9972,5o5octlora,Ex2A_Prolific,1,34,2024-02-28T00:44:38+00:00,30.311285972595,2,Stim_B.csv,Read.csv,Read,B,,,,,,0,FreeRecall,30,30,"Please type as many words as you can that begin with the letter ""K"". The computer will automatically advance to the next screen in 30 seconds.",,FILLER,30006,"kart, kitchen, kill, knowing, kneel, k",0,8084,26610,0,0,,1
5b0d0beed282ff00015b9972,5o5octlora,Ex2A_Prolific,1,35,2024-02-28T00:44:43+00:00,5.191575050354,2,Stim_B.csv,Read.csv,Read,B,,,,,,0,Instruct,User,4,"You have completed this section. Please click next.",,Instruct166,4889,,,-1,-1,,,,1
5b0d0beed282ff00015b9972,5o5octlora,Ex2A_Prolific,1,36,2024-02-28T00:44:52+00:00,8.5926229953766,2,Stim_B.csv,Read.csv,Read,B,,,,,,0,Instruct,User,4,"You will now complete a memory test for the words you just studied. Please type as many words from the previous list as you can seperated by a comma. Spelling will not count against you and you can recall the words in any order. This test will be timed for one minute, and the computer will automatically advance once time is up. Click next when you are ready to begin.",,Instruct1666,8286,,,-1,-1,,,,1
5b0d0beed282ff00015b9972,5o5octlora,Ex2A_Prolific,1,37,2024-02-28T00:45:52+00:00,60.303699016571,2,Stim_B.csv,Read.csv,Read,B,,,,,,0,FreeRecall,60,60,"Please type as many words as you can from the previous study list in any order. Please separate each word with a comma. Spelling will not count against you. This screen will automatically advance in one minute.",,RECALL_Test,60004,"loud, fluffy, hard, downy, cotton, touch, skin",0,2306,28221,0,0,,1
5b0d0beed282ff00015b9972,5o5octlora,Ex2A_Prolific,1,38,2024-02-28T00:46:03+00:00,11.298462152481,2,Stim_B.csv,Read.csv,Read,B,,,,,,0,Instruct,User,3,"You will now be presented with a new study list. Click next when you are ready to begin.",,NEXT_LIST,10957,,,-1,-1,,,,1
5b0d0beed282ff00015b9972,5o5octlora,Ex2A_Prolific,1,39,2024-02-28T00:46:09+00:00,5.3901298046112,2,Stim_B.csv,Read.csv,Read,B,honey,,A1,,,26,Study,User,1.25,,Anger,A1,5072,,,-1,-1,,,,1
5b0d0beed282ff00015b9972,5o5octlora,Ex2A_Prolific,1,40,2024-02-28T00:46:13+00:00,4.0825321674347,2,Stim_B.csv,Read.csv,Read,B,bitter,,A2,,,27,Study,User,1.25,,Anger,A2,3725,,,-1,-1,,,,1
5b0d0beed282ff00015b9972,5o5octlora,Ex2A_Prolific,1,41,2024-02-28T00:46:19+00:00,5.7999758720398,2,Stim_B.csv,Read.csv,Read,B,sugar,,A3,,,28,Study,User,1.25,,Anger,A3,5479,,,-1,-1,,,,1
5b0d0beed282ff00015b9972,5o5octlora,Ex2A_Prolific,1,42,2024-02-28T00:46:22+00:00,3.2723801136017,2,Stim_B.csv,Read.csv,Read,B,sour,,A4,,,29,Study,User,1.25,,Anger,A4,2967,,,-1,-1,,,,1
5b0d0beed282ff00015b9972,5o5octlora,Ex2A_Prolific,1,43,2024-02-28T00:46:25+00:00,3.0064518451691,2,Stim_B.csv,Read.csv,Read,B,candy,,A5,,,30,Study,User,1.25,,Anger,A5,2670,,,-1,-1,,,,1
5b0d0beed282ff00015b9972,5o5octlora,Ex2A_Prolific,1,44,2024-02-28T00:46:28+00:00,2.7705280780792,2,Stim_B.csv,Read.csv,Read,B,tart,,A6,,,31,Study,User,1.25,,Anger,A6,2446,,,-1,-1,,,,1
5b0d0beed282ff00015b9972,5o5octlora,Ex2A_Prolific,1,45,2024-02-28T00:46:32+00:00,3.8896169662476,2,Stim_B.csv,Read.csv,Read,B,chocolate,,A7,,,32,Study,User,1.25,,Anger,A7,3517,,,-1,-1,,,,1
5b0d0beed282ff00015b9972,5o5octlora,Ex2A_Prolific,1,46,2024-02-28T00:46:35+00:00,3.2136261463165,2,Stim_B.csv,Read.csv,Read,B,nice,,A8,,,33,Study,User,1.25,,Anger,A8,2878,,,-1,-1,,,,1
5b0d0beed282ff00015b9972,5o5octlora,Ex2A_Prolific,1,47,2024-02-28T00:46:37+00:00,2.659824848175,2,Stim_B.csv,Read.csv,Read,B,taste,,A9,,,34,Study,User,1.25,,Anger,A9,2214,,,-1,-1,,,,1
5b0d0beed282ff00015b9972,5o5octlora,Ex2A_Prolific,1,48,2024-02-28T00:46:40+00:00,2.353264093399,2,Stim_B.csv,Read.csv,Read,B,cake,,A10,,,35,Study,User,1.25,,Anger,A10,1940,,,-1,-1,,,,1
5b0d0beed282ff00015b9972,5o5octlora,Ex2A_Prolific,1,49,2024-02-28T00:46:42+00:00,2.5165128707886,2,Stim_B.csv,Read.csv,Read,B,good,,A11,,,36,Study,User,1.25,,Anger,A11,2227,,,-1,-1,,,,1
5b0d0beed282ff00015b9972,5o5octlora,Ex2A_Prolific,1,50,2024-02-28T00:46:45+00:00,2.5002760887146,2,Stim_B.csv,Read.csv,Read,B,tooth,,A12,,,37,Study,User,1.25,,Anger,A12,2179,,,-1,-1,,,,1
5b0d0beed282ff00015b9972,5o5octlora,Ex2A_Prolific,1,51,2024-02-28T00:48:14+00:00,89.568942070007,2,Stim_B.csv,Read.csv,Read,B,,,,,,0,Instruct,User,-,"You have completed this section. Please click next.",,Instruct166,89277,,,-1,-1,,,,0.973
5b0d0beed282ff00015b9972,5o5octlora,Ex2A_Prolific,1,52,2024-02-28T00:48:45+00:00,30.28305888176,2,Stim_B.csv,Read.csv,Read,B,,,,,,0,FreeRecall,30,30,"Please type as many words as you can that begin with the letter ""K"". The computer will automatically advance to the next screen in 30 seconds.",,FILLER,30002,"kill, kind, king, kitchen, key, kiss, know, ki",0,1642,27474,0,0,,0.979
5b0d0beed282ff00015b9972,5o5octlora,Ex2A_Prolific,1,53,2024-02-28T00:48:50+00:00,5.6071610450745,2,Stim_B.csv,Read.csv,Read,B,,,,,,0,Instruct,User,4,"You have completed this section. Please click next.",,Instruct166,5248,,,-1,-1,,,,1
5b0d0beed282ff00015b9972,5o5octlora,Ex2A_Prolific,1,54,2024-02-28T00:49:05+00:00,14.799088954926,2,Stim_B.csv,Read.csv,Read,B,,,,,,0,Instruct,User,4,"You will now complete a memory test for the words you just studied. Please type as many words from the previous list as you can seperated by a comma. Spelling will not count against you and you can recall the words in any order. This test will be timed for one minute, and the computer will automatically advance once time is up. Click next when you are ready to begin.",,Instruct1666,14478,,,-1,-1,,,,1
5b0d0beed282ff00015b9972,5o5octlora,Ex2A_Prolific,1,55,2024-02-28T00:50:06+00:00,60.491764068604,2,Stim_B.csv,Read.csv,Read,B,,,,,,0,FreeRecall,60,60,"Please type as many words as you can from the previous study list in any order. Please separate each word with a comma. Spelling will not count against you. This screen will automatically advance in one minute.",,RECALL_Test,60166,"sour, candy, sugar, tooth, cake, good",0,1851,29379,0,0,,1
5b0d0beed282ff00015b9972,5o5octlora,Ex2A_Prolific,1,56,2024-02-28T00:50:42+00:00,36.332175016403,2,Stim_B.csv,Read.csv,Read,B,,,,,,0,Instruct,User,3,"You will now be presented with a new study list. Click next when you are ready to begin.",,NEXT_LIST,36010,,,-1,-1,,,,1
5b0d0beed282ff00015b9972,5o5octlora,Ex2A_Prolific,1,57,2024-02-28T00:50:44+00:00,2.5659530162811,2,Stim_B.csv,Read.csv,Read,B,table,,T1,,,38,Study,User,1.25,,Trash,T1,2218,,,-1,-1,,,,1
5b0d0beed282ff00015b9972,5o5octlora,Ex2A_Prolific,1,58,2024-02-28T00:50:47+00:00,2.4149348735809,2,Stim_B.csv,Read.csv,Read,B,swivel,,T2,,,39,Study,User,1.25,,Trash,T2,2075,,,-1,-1,,,,1
5b0d0beed282ff00015b9972,5o5octlora,Ex2A_Prolific,1,59,2024-02-28T00:50:49+00:00,2.5789420604706,2,Stim_B.csv,Read.csv,Read,B,rocking,,T3,,,40,Study,User,1.25,,Trash,T3,2221,,,-1,-1,,,,1
5b0d0beed282ff00015b9972,5o5octlora,Ex2A_Prolific,1,60,2024-02-28T00:50:51+00:00,1.9889039993286,2,Stim_B.csv,Read.csv,Read,B,recliner,,T4,,,41,Study,User,1.25,,Trash,T4,1616,,,-1,-1,,,,1
5b0d0beed282ff00015b9972,5o5octlora,Ex2A_Prolific,1,61,2024-02-28T00:50:56+00:00,4.243684053421,2,Stim_B.csv,Read.csv,Read,B,seat,,T5,,,42,Study,User,1.25,,Trash,T5,3941,,,-1,-1,,,,1
5b0d0beed282ff00015b9972,5o5octlora,Ex2A_Prolific,1,62,2024-02-28T00:50:58+00:00,2.7501559257507,2,Stim_B.csv,Read.csv,Read,B,stool,,T6,,,43,Study,User,1.25,,Trash,T6,2430,,,-1,-1,,,,1
5b0d0beed282ff00015b9972,5o5octlora,Ex2A_Prolific,1,63,2024-02-28T00:51:01+00:00,2.387393951416,2,Stim_B.csv,Read.csv,Read,B,desk,,T7,,,44,Study,User,1.25,,Trash,T7,2079,,,-1,-1,,,,1
5b0d0beed282ff00015b9972,5o5octlora,Ex2A_Prolific,1,64,2024-02-28T00:51:04+00:00,3.3755221366882,2,Stim_B.csv,Read.csv,Read,B,couch,,T8,,,45,Study,User,1.25,,Trash,T8,3039,,,-1,-1,,,,1
5b0d0beed282ff00015b9972,5o5octlora,Ex2A_Prolific,1,65,2024-02-28T00:51:06+00:00,2.27973985672,2,Stim_B.csv,Read.csv,Read,B,sit,,T9,,,46,Study,User,1.25,,Trash,T9,1908,,,-1,-1,,,,1
5b0d0beed282ff00015b9972,5o5octlora,Ex2A_Prolific,1,66,2024-02-28T00:51:10+00:00,3.3044781684875,2,Stim_B.csv,Read.csv,Read,B,sofa,,T10,,,47,Study,User,1.25,,Trash,T10,2972,,,-1,-1,,,,1
5b0d0beed282ff00015b9972,5o5octlora,Ex2A_Prolific,1,67,2024-02-28T00:51:12+00:00,1.8427269458771,2,Stim_B.csv,Read.csv,Read,B,bench,,T11,,,48,Study,User,1.25,,Trash,T11,1543,,,-1,-1,,,,1
5b0d0beed282ff00015b9972,5o5octlora,Ex2A_Prolific,1,68,2024-02-28T00:51:15+00:00,3.2434098720551,2,Stim_B.csv,Read.csv,Read,B,sitting,,T12,,,49,Study,User,1.25,,Trash,T12,2920,,,-1,-1,,,,1
5b0d0beed282ff00015b9972,5o5octlora,Ex2A_Prolific,1,69,2024-02-28T00:51:26+00:00,11.014144182205,2,Stim_B.csv,Read.csv,Read,B,,,,,,0,Instruct,User,4,"You have completed this section. Please click next.",,Instruct166,10690,,,-1,-1,,,,0.813
5b0d0beed282ff00015b9972,5o5octlora,Ex2A_Prolific,1,70,2024-02-28T00:51:56+00:00,30.286800861359,2,Stim_B.csv,Read.csv,Read,B,,,,,,0,FreeRecall,30,30,"Please type as many words as you can that begin with the letter ""K"". The computer will automatically advance to the next screen in 30 seconds.",,FILLER,30002,"kink, kiss, king, kind, kitchen, key, know, knowledge, knitting, ",0,1919,26818,0,0,,0.961
5b0d0beed282ff00015b9972,5o5octlora,Ex2A_Prolific,1,71,2024-02-28T00:51:59+00:00,2.6463720798492,2,Stim_B.csv,Read.csv,Read,B,,,,,,0,Instruct,User,-,"You have completed this section. Please click next.",,Instruct166,2319,,,-1,-1,,,,1
5b0d0beed282ff00015b9972,5o5octlora,Ex2A_Prolific,1,72,2024-02-28T00:52:39+00:00,40.143203020096,2,Stim_B.csv,Read.csv,Read,B,,,,,,0,Instruct,User,4,"You will now complete a memory test for the words you just studied. Please type as many words from the previous list as you can seperated by a comma. Spelling will not count against you and you can recall the words in any order. This test will be timed for one minute, and the computer will automatically advance once time is up. Click next when you are ready to begin.",,Instruct1666,39764,,,-1,-1,,,,1
5b0d0beed282ff00015b9972,5o5octlora,Ex2A_Prolific,1,73,2024-02-28T00:53:39+00:00,60.397888898849,2,Stim_B.csv,Read.csv,Read,B,,,,,,0,FreeRecall,60,60,"Please type as many words as you can from the previous study list in any order. Please separate each word with a comma. Spelling will not count against you. This screen will automatically advance in one minute.",,RECALL_Test,60004,"chair, seat, cushion, stool, sofa, pillow",0,1418,59584,0,0,,1
5b0d0beed282ff00015b9972,5o5octlora,Ex2A_Prolific,1,74,2024-02-28T00:53:44+00:00,4.2791950702667,2,Stim_B.csv,Read.csv,Read,B,,,,,,0,Instruct,User,3,"You will now be presented with a new study list. Click next when you are ready to begin.",,NEXT_LIST,3958,,,-1,-1,,,,1
5b0d0beed282ff00015b9972,5o5octlora,Ex2A_Prolific,1,75,2024-02-28T00:53:56+00:00,11.946693897247,2,Stim_B.csv,Read.csv,Read,B,climber,,D1,,,50,Study,User,1.25,,Doctor,D1,11649,,,-1,-1,,,,1
5b0d0beed282ff00015b9972,5o5octlora,Ex2A_Prolific,1,76,2024-02-28T00:53:58+00:00,2.5773370265961,2,Stim_B.csv,Read.csv,Read,B,hill,,D2,,,51,Study,User,1.25,,Doctor,D2,2349,,,-1,-1,,,,1
5b0d0beed282ff00015b9972,5o5octlora,Ex2A_Prolific,1,77,2024-02-28T00:54:01+00:00,2.6512451171875,2,Stim_B.csv,Read.csv,Read,B,climb,,D3,,,52,Study,User,1.25,,Doctor,D3,2284,,,-1,-1,,,,1
5b0d0beed282ff00015b9972,5o5octlora,Ex2A_Prolific,1,78,2024-02-28T00:54:04+00:00,2.8160259723663,2,Stim_B.csv,Read.csv,Read,B,molehill,,D4,,,53,Study,User,1.25,,Doctor,D4,2498,,,-1,-1,,,,1
5b0d0beed282ff00015b9972,5o5octlora,Ex2A_Prolific,1,79,2024-02-28T00:54:06+00:00,2.8454339504242,2,Stim_B.csv,Read.csv,Read,B,peak,,D5,,,54,Study,User,1.25,,Doctor,D5,2524,,,-1,-1,,,,1
5b0d0beed282ff00015b9972,5o5octlora,Ex2A_Prolific,1,80,2024-02-28T00:54:09+00:00,2.4530110359192,2,Stim_B.csv,Read.csv,Read,B,valley,,D6,,,55,Study,User,1.25,,Doctor,D6,2213,,,-1,-1,,,,1
5b0d0beed282ff00015b9972,5o5octlora,Ex2A_Prolific,1,81,2024-02-28T00:54:11+00:00,2.4920830726624,2,Stim_B.csv,Read.csv,Read,B,summit,,D7,,,56,Study,User,1.25,,Doctor,D7,2134,,,-1,-1,,,,1
5b0d0beed282ff00015b9972,5o5octlora,Ex2A_Prolific,1,82,2024-02-28T00:54:14+00:00,2.6496398448944,2,Stim_B.csv,Read.csv,Read,B,steep,,D8,,,57,Study,User,1.25,,Doctor,D8,2306,,,-1,-1,,,,1
5b0d0beed282ff00015b9972,5o5octlora,Ex2A_Prolific,1,83,2024-02-28T00:54:17+00:00,2.7269680500031,2,Stim_B.csv,Read.csv,Read,B,ski,,D9,,,58,Study,User,1.25,,Doctor,D9,2400,,,-1,-1,,,,1
5b0d0beed282ff00015b9972,5o5octlora,Ex2A_Prolific,1,84,2024-02-28T00:54:20+00:00,2.8040881156921,2,Stim_B.csv,Read.csv,Read,B,bike,,D10,,,59,Study,User,1.25,,Doctor,D10,2472,,,-1,-1,,,,1
5b0d0beed282ff00015b9972,5o5octlora,Ex2A_Prolific,1,85,2024-02-28T00:54:22+00:00,2.6455810070038,2,Stim_B.csv,Read.csv,Read,B,goat,,D11,,,60,Study,User,1.25,,Doctor,D11,2321,,,-1,-1,,,,1
5b0d0beed282ff00015b9972,5o5octlora,Ex2A_Prolific,1,86,2024-02-28T00:54:25+00:00,3.058513879776,2,Stim_B.csv,Read.csv,Read,B,glacier,,D12,,,61,Study,User,1.25,,Doctor,D12,2683,,,-1,-1,,,,1
5b0d0beed282ff00015b9972,5o5octlora,Ex2A_Prolific,1,87,2024-02-28T00:54:32+00:00,7.0913300514221,2,Stim_B.csv,Read.csv,Read,B,,,,,,0,Instruct,User,4,"You have completed this section. Please click next.",,Instruct166,6763,,,-1,-1,,,,1
5b0d0beed282ff00015b9972,5o5octlora,Ex2A_Prolific,1,88,2024-02-28T00:55:03+00:00,30.350242853165,2,Stim_B.csv,Read.csv,Read,B,,,,,,0,FreeRecall,30,30,"Please type as many words as you can that begin with the letter ""K"". The computer will automatically advance to the next screen in 30 seconds.",,FILLER,30013,"King, kiss, knit, kink, kiss, key, keyhole, knowledge, koi, k",0,1683,27014,0,0,,0.891
5b0d0beed282ff00015b9972,5o5octlora,Ex2A_Prolific,1,89,2024-02-28T00:55:05+00:00,1.9693760871887,2,Stim_B.csv,Read.csv,Read,B,,,,,,0,Instruct,User,-,"You have completed this section. Please click next.",,Instruct166,1607,,,-1,-1,,,,1
5b0d0beed282ff00015b9972,5o5octlora,Ex2A_Prolific,1,90,2024-02-28T00:55:22+00:00,16.912349939346,2,Stim_B.csv,Read.csv,Read,B,,,,,,0,Instruct,User,4,"You will now complete a memory test for the words you just studied. Please type as many words from the previous list as you can seperated by a comma. Spelling will not count against you and you can recall the words in any order. This test will be timed for one minute, and the computer will automatically advance once time is up. Click next when you are ready to begin.",,Instruct1666,16588,,,-1,-1,,,,0.647
5b0d0beed282ff00015b9972,5o5octlora,Ex2A_Prolific,1,91,2024-02-28T00:56:22+00:00,60.337391138077,2,Stim_B.csv,Read.csv,Read,B,,,,,,0,FreeRecall,60,60,"Please type as many words as you can from the previous study list in any order. Please separate each word with a comma. Spelling will not count against you. This screen will automatically advance in one minute.",,RECALL_Test,60016,"climb, climber, molehill, goat, peak, summit, ski",0,5102,44849,0,0,,1
5b0d0beed282ff00015b9972,5o5octlora,Ex2A_Prolific,1,92,2024-02-28T00:56:52+00:00,30.088791847229,2,Stim_B.csv,Read.csv,Read,B,,,,,,0,Instruct,User,3,"You will now be presented with a new study list. Click next when you are ready to begin.",,NEXT_LIST,29745,,,-1,-1,,,,1
5b0d0beed282ff00015b9972,5o5octlora,Ex2A_Prolific,1,93,2024-02-28T00:56:58+00:00,5.6450321674347,2,Stim_B.csv,Read.csv,Read,B,band,,S1,,,62,Study,User,1.25,,Slow,S1,5311,,,-1,-1,,,,1
5b0d0beed282ff00015b9972,5o5octlora,Ex2A_Prolific,1,94,2024-02-28T00:57:02+00:00,4.6359369754791,2,Stim_B.csv,Read.csv,Read,B,concert,,S2,,,63,Study,User,1.25,,Slow,S2,4319,,,-1,-1,,,,1
5b0d0beed282ff00015b9972,5o5octlora,Ex2A_Prolific,1,95,2024-02-28T00:57:05+00:00,2.9280030727386,2,Stim_B.csv,Read.csv,Read,B,jazz,,S3,,,64,Study,User,1.25,,Slow,S3,2606,,,-1,-1,,,,1
5b0d0beed282ff00015b9972,5o5octlora,Ex2A_Prolific,1,96,2024-02-28T00:57:09+00:00,3.6371388435364,2,Stim_B.csv,Read.csv,Read,B,symphony,,S4,,,65,Study,User,1.25,,Slow,S4,3322,,,-1,-1,,,,1
5b0d0beed282ff00015b9972,5o5octlora,Ex2A_Prolific,1,97,2024-02-28T00:57:13+00:00,4.3963439464569,2,Stim_B.csv,Read.csv,Read,B,orchestra,,S5,,,66,Study,User,1.25,,Slow,S5,4039,,,-1,-1,,,,1
5b0d0beed282ff00015b9972,5o5octlora,Ex2A_Prolific,1,98,2024-02-28T00:57:17+00:00,4.0572140216827,2,Stim_B.csv,Read.csv,Read,B,rhythm,,S6,,,67,Study,User,1.25,,Slow,S6,3715,,,-1,-1,,,,1
5b0d0beed282ff00015b9972,5o5octlora,Ex2A_Prolific,1,99,2024-02-28T00:57:21+00:00,4.0081610679626,2,Stim_B.csv,Read.csv,Read,B,radio,,S7,,,68,Study,User,1.25,,Slow,S7,3624,,,-1,-1,,,,1
5b0d0beed282ff00015b9972,5o5octlora,Ex2A_Prolific,1,100,2024-02-28T00:57:24+00:00,2.9059340953827,2,Stim_B.csv,Read.csv,Read,B,melody,,S8,,,69,Study,User,1.25,,Slow,S8,2550,,,-1,-1,,,,1
5b0d0beed282ff00015b9972,5o5octlora,Ex2A_Prolific,1,101,2024-02-28T00:57:27+00:00,2.5725560188293,2,Stim_B.csv,Read.csv,Read,B,piano,,S9,,,70,Study,User,1.25,,Slow,S9,2279,,,-1,-1,,,,1
5b0d0beed282ff00015b9972,5o5octlora,Ex2A_Prolific,1,102,2024-02-28T00:57:29+00:00,2.521164894104,2,Stim_B.csv,Read.csv,Read,B,sound,,S10,,,71,Study,User,1.25,,Slow,S10,2208,,,-1,-1,,,,1
5b0d0beed282ff00015b9972,5o5octlora,Ex2A_Prolific,1,103,2024-02-28T00:57:32+00:00,2.1707420349121,2,Stim_B.csv,Read.csv,Read,B,instrument,,S11,,,72,Study,User,1.25,,Slow,S11,1809,,,-1,-1,,,,1
5b0d0beed282ff00015b9972,5o5octlora,Ex2A_Prolific,1,104,2024-02-28T00:57:34+00:00,2.4232928752899,2,Stim_B.csv,Read.csv,Read,B,note,,S12,,,73,Study,User,1.25,,Slow,S12,2107,,,-1,-1,,,,1
5b0d0beed282ff00015b9972,5o5octlora,Ex2A_Prolific,1,105,2024-02-28T00:57:36+00:00,2.0385801792145,2,Stim_B.csv,Read.csv,Read,B,,,,,,0,Instruct,User,-,"You have completed this section. Please click next.",,Instruct166,1714,,,-1,-1,,,,1
5b0d0beed282ff00015b9972,5o5octlora,Ex2A_Prolific,1,106,2024-02-28T00:58:06+00:00,30.308010816574,2,Stim_B.csv,Read.csv,Read,B,,,,,,0,FreeRecall,30,30,"Please type as many words as you can that begin with the letter ""K"". The computer will automatically advance to the next screen in 30 seconds.",,FILLER,30003,"killer, knitting, knowledge, key, kiss, kink, ",0,2174,28048,0,0,,1
5b0d0beed282ff00015b9972,5o5octlora,Ex2A_Prolific,1,107,2024-02-28T00:58:14+00:00,8.0871870517731,2,Stim_B.csv,Read.csv,Read,B,,,,,,0,Instruct,User,-,"You have completed this section. Please click next.",,Instruct166,7825,,,-1,-1,,,,0.529
5b0d0beed282ff00015b9972,5o5octlora,Ex2A_Prolific,1,108,2024-02-28T00:58:22+00:00,7.4165749549866,2,Stim_B.csv,Read.csv,Read,B,,,,,,0,Instruct,User,4,"You will now complete a memory test for the words you just studied. Please type as many words from the previous list as you can seperated by a comma. Spelling will not count against you and you can recall the words in any order. This test will be timed for one minute, and the computer will automatically advance once time is up. Click next when you are ready to begin.",,Instruct1666,7061,,,-1,-1,,,,1
5b0d0beed282ff00015b9972,5o5octlora,Ex2A_Prolific,1,109,2024-02-28T00:59:23+00:00,60.737081050873,2,Stim_B.csv,Read.csv,Read,B,,,,,,0,FreeRecall,60,60,"Please type as many words as you can from the previous study list in any order. Please separate each word with a comma. Spelling will not count against you. This screen will automatically advance in one minute.",,RECALL_Test,60441,"sound, piano, jazz, concert, radio, symphony, orchestra ",0,2817,25124,0,0,,1
5b0d0beed282ff00015b9972,5o5octlora,Ex2A_Prolific,1,110,2024-02-28T00:59:41+00:00,18.451313018799,2,Stim_B.csv,Read.csv,Read,B,,,,,,0,Instruct,User,3,"You will now be presented with a new study list. Click next when you are ready to begin.",,NEXT_LIST,18122,,,-1,-1,,,,0.658
5b0d0beed282ff00015b9972,5o5octlora,Ex2A_Prolific,1,111,2024-02-28T00:59:48+00:00,6.8446249961853,2,Stim_B.csv,Read.csv,Read,B,foam,,RR1,,,74,Study,User,1.25,,River,RR1,6524,,,-1,-1,,,,1
5b0d0beed282ff00015b9972,5o5octlora,Ex2A_Prolific,1,112,2024-02-28T00:59:51+00:00,3.1544349193573,2,Stim_B.csv,Read.csv,Read,B,latex,,RR2,,,75,Study,User,1.25,,River,RR2,2838,,,-1,-1,,,,1
5b0d0beed282ff00015b9972,5o5octlora,Ex2A_Prolific,1,113,2024-02-28T00:59:53+00:00,2.2083501815796,2,Stim_B.csv,Read.csv,Read,B,galoshes,,RR3,,,76,Study,User,1.25,,River,RR3,1927,,,-1,-1,,,,1
5b0d0beed282ff00015b9972,5o5octlora,Ex2A_Prolific,1,114,2024-02-28T00:59:56+00:00,2.7802119255066,2,Stim_B.csv,Read.csv,Read,B,tire,,RR4,,,77,Study,User,1.25,,River,RR4,2459,,,-1,-1,,,,1
5b0d0beed282ff00015b9972,5o5octlora,Ex2A_Prolific,1,115,2024-02-28T00:59:59+00:00,2.7649919986725,2,Stim_B.csv,Read.csv,Read,B,flexible,,RR5,,,78,Study,User,1.25,,River,RR5,2455,,,-1,-1,,,,1
5b0d0beed282ff00015b9972,5o5octlora,Ex2A_Prolific,1,116,2024-02-28T01:00:01+00:00,2.4183149337769,2,Stim_B.csv,Read.csv,Read,B,elastic,,RR6,,,79,Study,User,1.25,,River,RR6,2116,,,-1,-1,,,,1
5b0d0beed282ff00015b9972,5o5octlora,Ex2A_Prolific,1,117,2024-02-28T01:00:04+00:00,2.9314279556274,2,Stim_B.csv,Read.csv,Read,B,gloves,,RR7,,,80,Study,User,1.25,,River,RR7,2609,,,-1,-1,,,,1
5b0d0beed282ff00015b9972,5o5octlora,Ex2A_Prolific,1,118,2024-02-28T01:00:07+00:00,2.5614001750946,2,Stim_B.csv,Read.csv,Read,B,eraser,,RR8,,,81,Study,User,1.25,,River,RR8,2232,,,-1,-1,,,,1
5b0d0beed282ff00015b9972,5o5octlora,Ex2A_Prolific,1,119,2024-02-28T01:00:09+00:00,2.6015288829803,2,Stim_B.csv,Read.csv,Read,B,bounce,,RR9,,,82,Study,User,1.25,,River,RR9,2260,,,-1,-1,,,,1
5b0d0beed282ff00015b9972,5o5octlora,Ex2A_Prolific,1,120,2024-02-28T01:00:12+00:00,2.6125991344452,2,Stim_B.csv,Read.csv,Read,B,ball,,RR10,,,83,Study,User,1.25,,River,RR10,2326,,,-1,-1,,,,1
5b0d0beed282ff00015b9972,5o5octlora,Ex2A_Prolific,1,121,2024-02-28T01:00:14+00:00,2.0312390327454,2,Stim_B.csv,Read.csv,Read,B,soles,,RR11,,,84,Study,User,1.25,,River,RR11,1685,,,-1,-1,,,,1
5b0d0beed282ff00015b9972,5o5octlora,Ex2A_Prolific,1,122,2024-02-28T01:00:16+00:00,2.0756387710571,2,Stim_B.csv,Read.csv,Read,B,springy,,RR12,,,85,Study,User,1.25,,River,RR12,1760,,,-1,-1,,,,1
5b0d0beed282ff00015b9972,5o5octlora,Ex2A_Prolific,1,123,2024-02-28T01:00:19+00:00,2.9935410022736,2,Stim_B.csv,Read.csv,Read,B,,,,,,0,Instruct,User,-,"You have completed this section. Please click next.",,Instruct166,2674,,,-1,-1,,,,1
5b0d0beed282ff00015b9972,5o5octlora,Ex2A_Prolific,1,124,2024-02-28T01:00:49+00:00,30.347956180573,2,Stim_B.csv,Read.csv,Read,B,,,,,,0,FreeRecall,30,30,"Please type as many words as you can that begin with the letter ""K"". The computer will automatically advance to the next screen in 30 seconds.",,FILLER,30006,"kind, king, kills, knowledgeable, keeper, kneel, key, ",0,6358,29840,0,0,,0.979
5b0d0beed282ff00015b9972,5o5octlora,Ex2A_Prolific,1,125,2024-02-28T01:00:55+00:00,6.1591069698334,2,Stim_B.csv,Read.csv,Read,B,,,,,,0,Instruct,User,4,"You have completed this section. Please click next.",,Instruct166,5765,,,-1,-1,,,,1
5b0d0beed282ff00015b9972,5o5octlora,Ex2A_Prolific,1,126,2024-02-28T01:01:00+00:00,4.7695920467377,2,Stim_B.csv,Read.csv,Read,B,,,,,,0,Instruct,User,4,"You will now complete a memory test for the words you just studied. Please type as many words from the previous list as you can seperated by a comma. Spelling will not count against you and you can recall the words in any order. This test will be timed for one minute, and the computer will automatically advance once time is up. Click next when you are ready to begin.",,Instruct1666,4449,,,-1,-1,,,,1
5b0d0beed282ff00015b9972,5o5octlora,Ex2A_Prolific,1,127,2024-02-28T01:02:02+00:00,61.348734855652,2,Stim_B.csv,Read.csv,Read,B,,,,,,0,FreeRecall,60,60,"Please type as many words as you can from the previous study list in any order. Please separate each word with a comma. Spelling will not count against you. This screen will automatically advance in one minute.",,RECALL_Test,60962,"bounce, foam, eraser, tire, elastic, flexible ",0,2626,21016,0,0,,1
5b0d0beed282ff00015b9972,5o5octlora,Ex2A_Prolific,1,128,2024-02-28T01:02:17+00:00,15.62832903862,2,Stim_B.csv,Read.csv,Read,B,,,,,,0,Instruct,User,3,"You will now be presented with a new study list. Click next when you are ready to begin.",,NEXT_LIST,15319,,,-1,-1,,,,1
5b0d0beed282ff00015b9972,5o5octlora,Ex2A_Prolific,1,129,2024-02-28T01:02:31+00:00,13.543215036392,2,Stim_B.csv,Read.csv,Read,B,toe,,B1,,,86,Study,User,1.25,,Bread,B1,12986,,,-1,-1,,,,0.85
5b0d0beed282ff00015b9972,5o5octlora,Ex2A_Prolific,1,130,2024-02-28T01:02:32+00:00,1.6179111003876,2,Stim_B.csv,Read.csv,Read,B,inch,,B2,,,87,Study,User,1.25,,Bread,B2,1306,,,-1,-1,,,,1
5b0d0beed282ff00015b9972,5o5octlora,Ex2A_Prolific,1,131,2024-02-28T01:02:37+00:00,4.2874488830566,2,Stim_B.csv,Read.csv,Read,B,ankle,,B3,,,88,Study,User,1.25,,Bread,B3,3961,,,-1,-1,,,,1
5b0d0beed282ff00015b9972,5o5octlora,Ex2A_Prolific,1,132,2024-02-28T01:02:46+00:00,8.9258420467377,2,Stim_B.csv,Read.csv,Read,B,shoe,,B4,,,89,Study,User,1.25,,Bread,B4,8573,,,-1,-1,,,,0.6
5b0d0beed282ff00015b9972,5o5octlora,Ex2A_Prolific,1,133,2024-02-28T01:02:50+00:00,4.7046558856964,2,Stim_B.csv,Read.csv,Read,B,sandals,,B5,,,90,Study,User,1.25,,Bread,B5,3136,,,-1,-1,,,,1
5b0d0beed282ff00015b9972,5o5octlora,Ex2A_Prolific,1,134,2024-02-28T01:02:55+00:00,4.3735229969025,2,Stim_B.csv,Read.csv,Read,B,sock,,B6,,,91,Study,User,1.25,,Bread,B6,3357,,,-1,-1,,,,1
5b0d0beed282ff00015b9972,5o5octlora,Ex2A_Prolific,1,135,2024-02-28T01:02:58+00:00,3.4727511405945,2,Stim_B.csv,Read.csv,Read,B,hand,,B7,,,92,Study,User,1.25,,Bread,B7,2950,,,-1,-1,,,,1
5b0d0beed282ff00015b9972,5o5octlora,Ex2A_Prolific,1,136,2024-02-28T01:03:01+00:00,2.7635798454285,2,Stim_B.csv,Read.csv,Read,B,boot,,B8,,,93,Study,User,1.25,,Bread,B8,2299,,,-1,-1,,,,1
5b0d0beed282ff00015b9972,5o5octlora,Ex2A_Prolific,1,137,2024-02-28T01:03:03+00:00,2.5037941932678,2,Stim_B.csv,Read.csv,Read,B,yard,,B9,,,94,Study,User,1.25,,Bread,B9,2129,,,-1,-1,,,,1
5b0d0beed282ff00015b9972,5o5octlora,Ex2A_Prolific,1,138,2024-02-28T01:03:06+00:00,2.5812368392944,2,Stim_B.csv,Read.csv,Read,B,kick,,B10,,,95,Study,User,1.25,,Bread,B10,2241,,,-1,-1,,,,1
5b0d0beed282ff00015b9972,5o5octlora,Ex2A_Prolific,1,139,2024-02-28T01:03:09+00:00,2.6059529781342,2,Stim_B.csv,Read.csv,Read,B,knee,,B11,,,96,Study,User,1.25,,Bread,B11,2285,,,-1,-1,,,,1
5b0d0beed282ff00015b9972,5o5octlora,Ex2A_Prolific,1,140,2024-02-28T01:03:11+00:00,2.1670560836792,2,Stim_B.csv,Read.csv,Read,B,walk,,B12,,,97,Study,User,1.25,,Bread,B12,1814,,,-1,-1,,,,1
5b0d0beed282ff00015b9972,5o5octlora,Ex2A_Prolific,1,141,2024-02-28T01:03:16+00:00,4.8141839504242,2,Stim_B.csv,Read.csv,Read,B,,,,,,0,Instruct,User,4,"You have completed this section. Please click next.",,Instruct166,4492,,,-1,-1,,,,1
5b0d0beed282ff00015b9972,5o5octlora,Ex2A_Prolific,1,142,2024-02-28T01:03:46+00:00,30.347836971283,2,Stim_B.csv,Read.csv,Read,B,,,,,,0,FreeRecall,30,30,"Please type as many words as you can that begin with the letter ""K"". The computer will automatically advance to the next screen in 30 seconds.",,FILLER,30006,"keep, king, key, know, knit, kink, koi, kindly, kill, ",0,2980,27738,0,0,,1
5b0d0beed282ff00015b9972,5o5octlora,Ex2A_Prolific,1,143,2024-02-28T01:03:55+00:00,8.8476331233978,2,Stim_B.csv,Read.csv,Read,B,,,,,,0,Instruct,User,4,"You have completed this section. Please click next.",,Instruct166,8464,,,-1,-1,,,,1
5b0d0beed282ff00015b9972,5o5octlora,Ex2A_Prolific,1,144,2024-02-28T01:04:22+00:00,27.667538881302,2,Stim_B.csv,Read.csv,Read,B,,,,,,0,Instruct,User,4,"You will now complete a memory test for the words you just studied. Please type as many words from the previous list as you can seperated by a comma. Spelling will not count against you and you can recall the words in any order. This test will be timed for one minute, and the computer will automatically advance once time is up. Click next when you are ready to begin.",,Instruct1666,27295,,,-1,-1,,,,1
5b0d0beed282ff00015b9972,5o5octlora,Ex2A_Prolific,1,145,2024-02-28T01:05:24+00:00,61.144917011261,2,Stim_B.csv,Read.csv,Read,B,,,,,,0,FreeRecall,60,60,"Please type as many words as you can from the previous study list in any order. Please separate each word with a comma. Spelling will not count against you. This screen will automatically advance in one minute.",,RECALL_Test,60771,"toe, knee, sock, walk, shoe, hand, ankle",0,3845,13191,0,0,,1
5b0d0beed282ff00015b9972,5o5octlora,Ex2A_Prolific,1,146,2024-02-28T01:05:32+00:00,7.9780991077423,2,Stim_B.csv,Read.csv,Read,B,,,,,,0,Instruct,User,3,"You will now be presented with a new study list. Click next when you are ready to begin.",,NEXT_LIST,7630,,,-1,-1,,,,1
5b0d0beed282ff00015b9972,5o5octlora,Ex2A_Prolific,1,147,2024-02-28T01:05:34+00:00,2.1319909095764,2,Stim_B.csv,Read.csv,Read,B,boy,,F1,,,98,Study,User,1.25,,Flag,F1,1791,,,-1,-1,,,,1
5b0d0beed282ff00015b9972,5o5octlora,Ex2A_Prolific,1,148,2024-02-28T01:05:36+00:00,1.9849791526794,2,Stim_B.csv,Read.csv,Read,B,dolls,,F2,,,99,Study,User,1.25,,Flag,F2,1663,,,-1,-1,,,,1
5b0d0beed282ff00015b9972,5o5octlora,Ex2A_Prolific,1,149,2024-02-28T01:05:38+00:00,1.9641947746277,2,Stim_B.csv,Read.csv,Read,B,pretty,,F3,,,100,Study,User,1.25,,Flag,F3,1643,,,-1,-1,,,,1
5b0d0beed282ff00015b9972,5o5octlora,Ex2A_Prolific,1,150,2024-02-28T01:05:40+00:00,2.0049300193787,2,Stim_B.csv,Read.csv,Read,B,female,,F4,,,101,Study,User,1.25,,Flag,F4,1690,,,-1,-1,,,,1
5b0d0beed282ff00015b9972,5o5octlora,Ex2A_Prolific,1,151,2024-02-28T01:05:42+00:00,2.3907511234283,2,Stim_B.csv,Read.csv,Read,B,dress,,F5,,,102,Study,User,1.25,,Flag,F5,2162,,,-1,-1,,,,1
5b0d0beed282ff00015b9972,5o5octlora,Ex2A_Prolific,1,152,2024-02-28T01:05:44+00:00,2.4353470802307,2,Stim_B.csv,Read.csv,Read,B,date,,F6,,,103,Study,User,1.25,,Flag,F6,2177,,,-1,-1,,,,1
5b0d0beed282ff00015b9972,5o5octlora,Ex2A_Prolific,1,153,2024-02-28T01:05:47+00:00,2.182758808136,2,Stim_B.csv,Read.csv,Read,B,beautiful,,F7,,,104,Study,User,1.25,,Flag,F7,1813,,,-1,-1,,,,1
5b0d0beed282ff00015b9972,5o5octlora,Ex2A_Prolific,1,154,2024-02-28T01:05:50+00:00,3.3572461605072,2,Stim_B.csv,Read.csv,Read,B,daughter,,F8,,,105,Study,User,1.25,,Flag,F8,3008,,,-1,-1,,,,1
5b0d0beed282ff00015b9972,5o5octlora,Ex2A_Prolific,1,155,2024-02-28T01:05:52+00:00,2.1962368488312,2,Stim_B.csv,Read.csv,Read,B,sister,,F9,,,106,Study,User,1.25,,Flag,F9,1845,,,-1,-1,,,,1
5b0d0beed282ff00015b9972,5o5octlora,Ex2A_Prolific,1,156,2024-02-28T01:05:54+00:00,1.8070621490479,2,Stim_B.csv,Read.csv,Read,B,cute,,F10,,,107,Study,User,1.25,,Flag,F10,1493,,,-1,-1,,,,1
5b0d0beed282ff00015b9972,5o5octlora,Ex2A_Prolific,1,157,2024-02-28T01:05:56+00:00,1.8458549976349,2,Stim_B.csv,Read.csv,Read,B,niece,,F11,,,108,Study,User,1.25,,Flag,F11,1499,,,-1,-1,,,,1
5b0d0beed282ff00015b9972,5o5octlora,Ex2A_Prolific,1,158,2024-02-28T01:05:59+00:00,2.9404218196869,2,Stim_B.csv,Read.csv,Read,B,young,,F12,,,109,Study,User,1.25,,Flag,F12,2644,,,-1,-1,,,,1
5b0d0beed282ff00015b9972,5o5octlora,Ex2A_Prolific,1,159,2024-02-28T01:06:01+00:00,2.1478600502014,2,Stim_B.csv,Read.csv,Read,B,,,,,,0,Instruct,User,-,"You have completed this section. Please click next.",,Instruct166,1789,,,-1,-1,,,,1
5b0d0beed282ff00015b9972,5o5octlora,Ex2A_Prolific,1,160,2024-02-28T01:06:31+00:00,30.381638050079,2,Stim_B.csv,Read.csv,Read,B,,,,,,0,FreeRecall,30,30,"Please type as many words as you can that begin with the letter ""K"". The computer will automatically advance to the next screen in 30 seconds.",,FILLER,30015,"kindly, kill, king, know, key, karma, koi, ",0,1850,21805,0,0,,1
5b0d0beed282ff00015b9972,5o5octlora,Ex2A_Prolific,1,161,2024-02-28T01:07:09+00:00,38.157399892807,2,Stim_B.csv,Read.csv,Read,B,,,,,,0,Instruct,User,-,"You have completed this section. Please click next.",,Instruct166,37851,,,-1,-1,,,,1
5b0d0beed282ff00015b9972,5o5octlora,Ex2A_Prolific,1,162,2024-02-28T01:07:14+00:00,4.9636371135712,2,Stim_B.csv,Read.csv,Read,B,,,,,,0,Instruct,User,4,"You will now complete a memory test for the words you just studied. Please type as many words from the previous list as you can seperated by a comma. Spelling will not count against you and you can recall the words in any order. This test will be timed for one minute, and the computer will automatically advance once time is up. Click next when you are ready to begin.",,Instruct1666,4578,,,-1,-1,,,,1
5b0d0beed282ff00015b9972,5o5octlora,Ex2A_Prolific,1,163,2024-02-28T01:08:16+00:00,61.13041806221,2,Stim_B.csv,Read.csv,Read,B,,,,,,0,FreeRecall,60,60,"Please type as many words as you can from the previous study list in any order. Please separate each word with a comma. Spelling will not count against you. This screen will automatically advance in one minute.",,RECALL_Test,60758,"boy, daughter, cute, young, date, sister",0,12212,21479,0,0,,0.971
5b0d0beed282ff00015b9972,5o5octlora,Ex2A_Prolific,1,164,2024-02-28T01:08:26+00:00,10.105829954147,2,Stim_B.csv,Read.csv,Read,B,,,,,,0,Instruct,User,3,"You will now be presented with a new study list. Click next when you are ready to begin.",,NEXT_LIST,9777,,,-1,-1,,,,0.786
5b0d0beed282ff00015b9972,5o5octlora,Ex2A_Prolific,1,165,2024-02-28T01:08:28+00:00,1.9716410636902,2,Stim_B.csv,Read.csv,Read,B,white,,SS1,,,110,Study,User,1.25,,Shirt,SS1,1644,,,-1,-1,,,,1
5b0d0beed282ff00015b9972,5o5octlora,Ex2A_Prolific,1,166,2024-02-28T01:08:29+00:00,1.7517709732056,2,Stim_B.csv,Read.csv,Read,B,gray,,SS2,,,111,Study,User,1.25,,Shirt,SS2,1425,,,-1,-1,,,,1
5b0d0beed282ff00015b9972,5o5octlora,Ex2A_Prolific,1,167,2024-02-28T01:08:31+00:00,1.9669368267059,2,Stim_B.csv,Read.csv,Read,B,brown,,SS3,,,112,Study,User,1.25,,Shirt,SS3,1589,,,-1,-1,,,,1
5b0d0beed282ff00015b9972,5o5octlora,Ex2A_Prolific,1,168,2024-02-28T01:08:33+00:00,1.6210222244263,2,Stim_B.csv,Read.csv,Read,B,coal,,SS4,,,113,Study,User,1.25,,Shirt,SS4,1277,,,-1,-1,,,,1
5b0d0beed282ff00015b9972,5o5octlora,Ex2A_Prolific,1,169,2024-02-28T01:08:35+00:00,1.6719207763672,2,Stim_B.csv,Read.csv,Read,B,dark,,SS5,,,114,Study,User,1.25,,Shirt,SS5,1348,,,-1,-1,,,,1
5b0d0beed282ff00015b9972,5o5octlora,Ex2A_Prolific,1,170,2024-02-28T01:08:36+00:00,1.7903861999512,2,Stim_B.csv,Read.csv,Read,B,color,,SS6,,,115,Study,User,1.25,,Shirt,SS6,1536,,,-1,-1,,,,1
5b0d0beed282ff00015b9972,5o5octlora,Ex2A_Prolific,1,171,2024-02-28T01:08:38+00:00,2.0246670246124,2,Stim_B.csv,Read.csv,Read,B,funeral,,SS7,,,116,Study,User,1.25,,Shirt,SS7,1692,,,-1,-1,,,,1
5b0d0beed282ff00015b9972,5o5octlora,Ex2A_Prolific,1,172,2024-02-28T01:08:40+00:00,1.9345619678497,2,Stim_B.csv,Read.csv,Read,B,blue,,SS8,,,117,Study,User,1.25,,Shirt,SS8,1563,,,-1,-1,,,,1
5b0d0beed282ff00015b9972,5o5octlora,Ex2A_Prolific,1,173,2024-02-28T01:08:42+00:00,1.7101948261261,2,Stim_B.csv,Read.csv,Read,B,charred,,SS9,,,118,Study,User,1.25,,Shirt,SS9,1358,,,-1,-1,,,,1
5b0d0beed282ff00015b9972,5o5octlora,Ex2A_Prolific,1,174,2024-02-28T01:08:44+00:00,1.8889620304108,2,Stim_B.csv,Read.csv,Read,B,ink,,SS10,,,119,Study,User,1.25,,Shirt,SS10,1528,,,-1,-1,,,,1
5b0d0beed282ff00015b9972,5o5octlora,Ex2A_Prolific,1,175,2024-02-28T01:08:46+00:00,1.6188960075378,2,Stim_B.csv,Read.csv,Read,B,death,,SS11,,,120,Study,User,1.25,,Shirt,SS11,1306,,,-1,-1,,,,1
5b0d0beed282ff00015b9972,5o5octlora,Ex2A_Prolific,1,176,2024-02-28T01:08:48+00:00,1.9151091575623,2,Stim_B.csv,Read.csv,Read,B,cat,,SS12,,,121,Study,User,1.25,,Shirt,SS12,1598,,,-1,-1,,,,1
5b0d0beed282ff00015b9972,5o5octlora,Ex2A_Prolific,1,177,2024-02-28T01:08:52+00:00,4.7950417995453,2,Stim_B.csv,Read.csv,Read,B,,,,,,0,Instruct,User,4,"You have completed this section. Please click next.",,Instruct166,4481,,,-1,-1,,,,1
5b0d0beed282ff00015b9972,5o5octlora,Ex2A_Prolific,1,178,2024-02-28T01:09:23+00:00,30.468533039093,2,Stim_B.csv,Read.csv,Read,B,,,,,,0,FreeRecall,30,30,"Please type as many words as you can that begin with the letter ""K"". The computer will automatically advance to the next screen in 30 seconds.",,FILLER,30007,"kill, killing, kingly, knit, keyhole, kink, kind, knowledge, knowing, karma, koi, ",0,1107,26479,0,0,,1
5b0d0beed282ff00015b9972,5o5octlora,Ex2A_Prolific,1,179,2024-02-28T01:09:52+00:00,28.749933004379,2,Stim_B.csv,Read.csv,Read,B,,,,,,0,Instruct,User,4,"You have completed this section. Please click next.",,Instruct166,28470,,,-1,-1,,,,1
5b0d0beed282ff00015b9972,5o5octlora,Ex2A_Prolific,1,180,2024-02-28T01:10:06+00:00,14.308208942413,2,Stim_B.csv,Read.csv,Read,B,,,,,,0,Instruct,User,4,"You will now complete a memory test for the words you just studied. Please type as many words from the previous list as you can seperated by a comma. Spelling will not count against you and you can recall the words in any order. This test will be timed for one minute, and the computer will automatically advance once time is up. Click next when you are ready to begin.",,Instruct1666,13963,,,-1,-1,,,,1
5b0d0beed282ff00015b9972,5o5octlora,Ex2A_Prolific,1,181,2024-02-28T01:11:07+00:00,60.706693172455,2,Stim_B.csv,Read.csv,Read,B,,,,,,0,FreeRecall,60,60,"Please type as many words as you can from the previous study list in any order. Please separate each word with a comma. Spelling will not count against you. This screen will automatically advance in one minute.",,RECALL_Test,60361,"cat, death, funeral, blue, white, gray, brown",0,983,12409,0,0,,1
5b0d0beed282ff00015b9972,5o5octlora,Ex2A_Prolific,1,182,2024-02-28T01:11:08+00:00,1.3900380134583,2,Stim_B.csv,Read.csv,Read,B,,,,,,0,Instruct,User,-,"You have completed this section. Please click next.",,Instruct7,1080,,,-1,-1,,,,1
5b0d0beed282ff00015b9972,5o5octlora,Ex2A_Prolific,1,183,2024-02-28T01:11:10+00:00,1.8570618629456,2,Stim_B.csv,Read.csv,Read,B,,,,,,0,Instruct,User,-,"The following screen will ask you a few questions abour your experience today. You must complete these questions to receive credit.",,Instruct8,1536,,,-1,-1,,,,1
