Username,ID,ExperimentName,Session,Trial,Date,TimeDif,"Condition Number","Stimuli File","Order File","Condition Description","Condition Notes",Stimuli*Cue,Stimuli*Answer,Stimuli*Shuffle,"Stimuli*Stimuli Notes",Stimuli*Value,Procedure*Item,"Procedure*Trial Type","Procedure*Max Time","Procedure*Min Time",Procedure*Text,"Procedure*Procedure Notes",Procedure*Shuffle,Response*RT,Response*Response,Response*Accuracy,Response*RTfirst,Response*RTlast,Response*strictAcc,Response*lenientAcc,Response*focus,Response*Focus
6543af72769aacc0bf14521e,vxjsnbhyas,Ex2A_Prolific,1,1,2024-02-27T22:51:53+00:00,6.7452111244202,2,Stim_B.csv,Read.csv,Read,B,,,,,,0,Instruct,-,5,"In this section, you will be presented with a series of words. Please study each word carefully. Your memory will be tested! Click next when you are ready to begin.",Initial_Instruct,Instruct1,6494,,,-1,-1,,,,1
6543af72769aacc0bf14521e,vxjsnbhyas,Ex2A_Prolific,1,2,2024-02-27T22:51:55+00:00,1.8424580097198,2,Stim_B.csv,Read.csv,Read,B,,,,,,0,Instruct,User,-,"You will now begin the study. Click next when you are ready to begin.",,Instruct16,1368,,,-1,-1,,,,1
6543af72769aacc0bf14521e,vxjsnbhyas,Ex2A_Prolific,1,3,2024-02-27T22:51:58+00:00,2.6747169494629,2,Stim_B.csv,Read.csv,Read,B,aroma,,Win_1,,,2,Study,User,1.25,,Window,Win_1,2233,,,-1,-1,,,,1
6543af72769aacc0bf14521e,vxjsnbhyas,Ex2A_Prolific,1,4,2024-02-27T22:52:00+00:00,2.2427539825439,2,Stim_B.csv,Read.csv,Read,B,scent,,Win_2,,,3,Study,User,1.25,,Window,Win_2,1769,,,-1,-1,,,,1
6543af72769aacc0bf14521e,vxjsnbhyas,Ex2A_Prolific,1,5,2024-02-27T22:52:02+00:00,2.1514670848846,2,Stim_B.csv,Read.csv,Read,B,whiff,,Win_3,,,4,Study,User,1.25,,Window,Win_3,1619,,,-1,-1,,,,1
6543af72769aacc0bf14521e,vxjsnbhyas,Ex2A_Prolific,1,6,2024-02-27T22:52:04+00:00,2.1464328765869,2,Stim_B.csv,Read.csv,Read,B,stench,,Win_4,,,5,Study,User,1.25,,Window,Win_4,1772,,,-1,-1,,,,1
6543af72769aacc0bf14521e,vxjsnbhyas,Ex2A_Prolific,1,7,2024-02-27T22:52:06+00:00,1.948215007782,2,Stim_B.csv,Read.csv,Read,B,reek,,Win_5,,,6,Study,User,1.25,,Window,Win_5,1456,,,-1,-1,,,,1
6543af72769aacc0bf14521e,vxjsnbhyas,Ex2A_Prolific,1,8,2024-02-27T22:52:09+00:00,2.560907125473,2,Stim_B.csv,Read.csv,Read,B,sniff,,Win_6,,,7,Study,User,1.25,,Window,Win_6,2194,,,-1,-1,,,,1
6543af72769aacc0bf14521e,vxjsnbhyas,Ex2A_Prolific,1,9,2024-02-27T22:52:11+00:00,1.7424018383026,2,Stim_B.csv,Read.csv,Read,B,perfume,,Win_7,,,8,Study,User,1.25,,Window,Win_7,1293,,,-1,-1,,,,1
6543af72769aacc0bf14521e,vxjsnbhyas,Ex2A_Prolific,1,10,2024-02-27T22:52:13+00:00,2.0450420379639,2,Stim_B.csv,Read.csv,Read,B,fragrance,,Win_8,,,9,Study,User,1.25,,Window,Win_8,1707,,,-1,-1,,,,1
6543af72769aacc0bf14521e,vxjsnbhyas,Ex2A_Prolific,1,11,2024-02-27T22:52:15+00:00,2.2533760070801,2,Stim_B.csv,Read.csv,Read,B,nose,,Win_9,,,10,Study,User,1.25,,Window,Win_9,1773,,,-1,-1,,,,1
6543af72769aacc0bf14521e,vxjsnbhyas,Ex2A_Prolific,1,12,2024-02-27T22:52:17+00:00,2.1511261463165,2,Stim_B.csv,Read.csv,Read,B,rose,,Win_10,,,11,Study,User,1.25,,Window,Win_10,1674,,,-1,-1,,,,1
6543af72769aacc0bf14521e,vxjsnbhyas,Ex2A_Prolific,1,13,2024-02-27T22:52:19+00:00,2.0499229431152,2,Stim_B.csv,Read.csv,Read,B,salts,,Win_11,,,12,Study,User,1.25,,Window,Win_11,1705,,,-1,-1,,,,1
6543af72769aacc0bf14521e,vxjsnbhyas,Ex2A_Prolific,1,14,2024-02-27T22:52:21+00:00,2.0731859207153,2,Stim_B.csv,Read.csv,Read,B,breathe,,Win_12,,,13,Study,User,1.25,,Window,Win_12,1730,,,-1,-1,,,,1
6543af72769aacc0bf14521e,vxjsnbhyas,Ex2A_Prolific,1,15,2024-02-27T22:52:24+00:00,2.5314400196075,2,Stim_B.csv,Read.csv,Read,B,,,,,,0,Instruct,User,-,"You have completed this section. Please click next.",,Instruct166,2089,,,-1,-1,,,,1
6543af72769aacc0bf14521e,vxjsnbhyas,Ex2A_Prolific,1,16,2024-02-27T22:52:54+00:00,30.416928052902,2,Stim_B.csv,Read.csv,Read,B,,,,,,0,FreeRecall,30,30,"Please type as many words as you can that begin with the letter ""K"". The computer will automatically advance to the next screen in 30 seconds.",,FILLER,30002,"Kite Kind Kid Kidding Kindling Kate Kraft ",0,6476,28523,0,0,,1
6543af72769aacc0bf14521e,vxjsnbhyas,Ex2A_Prolific,1,17,2024-02-27T22:53:00+00:00,5.5254380702972,2,Stim_B.csv,Read.csv,Read,B,,,,,,0,Instruct,User,4,"You have completed this section. Please click next.",,Instruct166,5035,,,-1,-1,,,,1
6543af72769aacc0bf14521e,vxjsnbhyas,Ex2A_Prolific,1,18,2024-02-27T22:53:09+00:00,9.7285017967224,2,Stim_B.csv,Read.csv,Read,B,,,,,,0,Instruct,User,4,"You will now complete a memory test for the words you just studied. Please type as many words from the previous list as you can seperated by a comma. Spelling will not count against you and you can recall the words in any order. This test will be timed for one minute, and the computer will automatically advance once time is up. Click next when you are ready to begin.",,Instruct1666,9225,,,-1,-1,,,,1
6543af72769aacc0bf14521e,vxjsnbhyas,Ex2A_Prolific,1,19,2024-02-27T22:54:10+00:00,60.521705150604,2,Stim_B.csv,Read.csv,Read,B,,,,,,0,FreeRecall,60,60,"Please type as many words as you can from the previous study list in any order. Please separate each word with a comma. Spelling will not count against you. This screen will automatically advance in one minute.",,RECALL_Test,60002,"sniff, perfume, rose, nose, aroma, stench, smell, musk, whiff",0,1122,21477,0,0,,0.975
6543af72769aacc0bf14521e,vxjsnbhyas,Ex2A_Prolific,1,20,2024-02-27T22:54:14+00:00,4.4007658958435,2,Stim_B.csv,Read.csv,Read,B,,,,,,0,Instruct,User,3,"You will now be presented with a new study list. Click next when you are ready to begin.",,NEXT_LIST,3854,,,-1,-1,,,,1
6543af72769aacc0bf14521e,vxjsnbhyas,Ex2A_Prolific,1,21,2024-02-27T22:54:17+00:00,2.5623669624329,2,Stim_B.csv,Read.csv,Read,B,hard,,R1,,,14,Study,User,1.25,,Rough,R1,2110,,,-1,-1,,,,1
6543af72769aacc0bf14521e,vxjsnbhyas,Ex2A_Prolific,1,22,2024-02-27T22:54:19+00:00,2.1481971740723,2,Stim_B.csv,Read.csv,Read,B,loud,,R2,,,15,Study,User,1.25,,Rough,R2,1702,,,-1,-1,,,,1
6543af72769aacc0bf14521e,vxjsnbhyas,Ex2A_Prolific,1,23,2024-02-27T22:54:21+00:00,2.1545169353485,2,Stim_B.csv,Read.csv,Read,B,tender,,R3,,,16,Study,User,1.25,,Rough,R3,1666,,,-1,-1,,,,1
6543af72769aacc0bf14521e,vxjsnbhyas,Ex2A_Prolific,1,24,2024-02-27T22:54:23+00:00,2.1487429141998,2,Stim_B.csv,Read.csv,Read,B,fluffy,,R4,,,17,Study,User,1.25,,Rough,R4,1674,,,-1,-1,,,,1
6543af72769aacc0bf14521e,vxjsnbhyas,Ex2A_Prolific,1,25,2024-02-27T22:54:25+00:00,2.1489760875702,2,Stim_B.csv,Read.csv,Read,B,pillow,,R5,,,18,Study,User,1.25,,Rough,R5,1644,,,-1,-1,,,,1
6543af72769aacc0bf14521e,vxjsnbhyas,Ex2A_Prolific,1,26,2024-02-27T22:54:28+00:00,2.1513640880585,2,Stim_B.csv,Read.csv,Read,B,downy,,R6,,,19,Study,User,1.25,,Rough,R6,1672,,,-1,-1,,,,1
6543af72769aacc0bf14521e,vxjsnbhyas,Ex2A_Prolific,1,27,2024-02-27T22:54:30+00:00,2.1500699520111,2,Stim_B.csv,Read.csv,Read,B,plush,,R7,,,20,Study,User,1.25,,Rough,R7,1616,,,-1,-1,,,,1
6543af72769aacc0bf14521e,vxjsnbhyas,Ex2A_Prolific,1,28,2024-02-27T22:54:32+00:00,2.1484470367432,2,Stim_B.csv,Read.csv,Read,B,cotton,,R8,,,21,Study,User,1.25,,Rough,R8,1655,,,-1,-1,,,,1
6543af72769aacc0bf14521e,vxjsnbhyas,Ex2A_Prolific,1,29,2024-02-27T22:54:34+00:00,2.1635708808899,2,Stim_B.csv,Read.csv,Read,B,skin,,R9,,,22,Study,User,1.25,,Rough,R9,1715,,,-1,-1,,,,1
6543af72769aacc0bf14521e,vxjsnbhyas,Ex2A_Prolific,1,30,2024-02-27T22:54:36+00:00,2.0370869636536,2,Stim_B.csv,Read.csv,Read,B,fur,,R10,,,23,Study,User,1.25,,Rough,R10,1672,,,-1,-1,,,,1
6543af72769aacc0bf14521e,vxjsnbhyas,Ex2A_Prolific,1,31,2024-02-27T22:54:38+00:00,2.150318145752,2,Stim_B.csv,Read.csv,Read,B,touch,,R11,,,24,Study,User,1.25,,Rough,R11,1688,,,-1,-1,,,,1
6543af72769aacc0bf14521e,vxjsnbhyas,Ex2A_Prolific,1,32,2024-02-27T22:54:40+00:00,2.1489419937134,2,Stim_B.csv,Read.csv,Read,B,furry,,R12,,,25,Study,User,1.25,,Rough,R12,1664,,,-1,-1,,,,1
6543af72769aacc0bf14521e,vxjsnbhyas,Ex2A_Prolific,1,33,2024-02-27T22:54:42+00:00,2.0467948913574,2,Stim_B.csv,Read.csv,Read,B,,,,,,0,Instruct,User,-,"You have completed this section. Please click next.",,Instruct166,1685,,,-1,-1,,,,1
6543af72769aacc0bf14521e,vxjsnbhyas,Ex2A_Prolific,1,34,2024-02-27T22:55:13+00:00,30.427034139633,2,Stim_B.csv,Read.csv,Read,B,,,,,,0,FreeRecall,30,30,"Please type as many words as you can that begin with the letter ""K"". The computer will automatically advance to the next screen in 30 seconds.",,FILLER,30004,"kite kind kayak kinder kid kids kinds kidding ketamine kar",0,3019,29909,0,0,,1
6543af72769aacc0bf14521e,vxjsnbhyas,Ex2A_Prolific,1,35,2024-02-27T22:55:15+00:00,1.6449887752533,2,Stim_B.csv,Read.csv,Read,B,,,,,,0,Instruct,User,-,"You have completed this section. Please click next.",,Instruct166,1073,,,-1,-1,,,,1
6543af72769aacc0bf14521e,vxjsnbhyas,Ex2A_Prolific,1,36,2024-02-27T22:55:20+00:00,5.5116391181946,2,Stim_B.csv,Read.csv,Read,B,,,,,,0,Instruct,User,4,"You will now complete a memory test for the words you just studied. Please type as many words from the previous list as you can seperated by a comma. Spelling will not count against you and you can recall the words in any order. This test will be timed for one minute, and the computer will automatically advance once time is up. Click next when you are ready to begin.",,Instruct1666,5064,,,-1,-1,,,,1
6543af72769aacc0bf14521e,vxjsnbhyas,Ex2A_Prolific,1,37,2024-02-27T22:56:20+00:00,60.402757883072,2,Stim_B.csv,Read.csv,Read,B,,,,,,0,FreeRecall,60,60,"Please type as many words as you can from the previous study list in any order. Please separate each word with a comma. Spelling will not count against you. This screen will automatically advance in one minute.",,RECALL_Test,60002,"fluffy, loud, hard, soft, mellow, touch, ",0,1236,28621,0,0,,1
6543af72769aacc0bf14521e,vxjsnbhyas,Ex2A_Prolific,1,38,2024-02-27T22:56:24+00:00,3.5835671424866,2,Stim_B.csv,Read.csv,Read,B,,,,,,0,Instruct,User,3,"You will now be presented with a new study list. Click next when you are ready to begin.",,NEXT_LIST,3114,,,-1,-1,,,,1
6543af72769aacc0bf14521e,vxjsnbhyas,Ex2A_Prolific,1,39,2024-02-27T22:56:27+00:00,2.4610588550568,2,Stim_B.csv,Read.csv,Read,B,honey,,A1,,,26,Study,User,1.25,,Anger,A1,1924,,,-1,-1,,,,1
6543af72769aacc0bf14521e,vxjsnbhyas,Ex2A_Prolific,1,40,2024-02-27T22:56:29+00:00,2.145672082901,2,Stim_B.csv,Read.csv,Read,B,bitter,,A2,,,27,Study,User,1.25,,Anger,A2,1623,,,-1,-1,,,,1
6543af72769aacc0bf14521e,vxjsnbhyas,Ex2A_Prolific,1,41,2024-02-27T22:56:31+00:00,2.2549021244049,2,Stim_B.csv,Read.csv,Read,B,sugar,,A3,,,28,Study,User,1.25,,Anger,A3,1771,,,-1,-1,,,,1
6543af72769aacc0bf14521e,vxjsnbhyas,Ex2A_Prolific,1,42,2024-02-27T22:56:33+00:00,2.2506129741669,2,Stim_B.csv,Read.csv,Read,B,sour,,A4,,,29,Study,User,1.25,,Anger,A4,1716,,,-1,-1,,,,1
6543af72769aacc0bf14521e,vxjsnbhyas,Ex2A_Prolific,1,43,2024-02-27T22:56:36+00:00,2.3579609394073,2,Stim_B.csv,Read.csv,Read,B,candy,,A5,,,30,Study,User,1.25,,Anger,A5,1890,,,-1,-1,,,,1
6543af72769aacc0bf14521e,vxjsnbhyas,Ex2A_Prolific,1,44,2024-02-27T22:56:38+00:00,2.150260925293,2,Stim_B.csv,Read.csv,Read,B,tart,,A6,,,31,Study,User,1.25,,Anger,A6,1648,,,-1,-1,,,,1
6543af72769aacc0bf14521e,vxjsnbhyas,Ex2A_Prolific,1,45,2024-02-27T22:56:40+00:00,2.1497750282288,2,Stim_B.csv,Read.csv,Read,B,chocolate,,A7,,,32,Study,User,1.25,,Anger,A7,1679,,,-1,-1,,,,1
6543af72769aacc0bf14521e,vxjsnbhyas,Ex2A_Prolific,1,46,2024-02-27T22:56:42+00:00,2.250226020813,2,Stim_B.csv,Read.csv,Read,B,nice,,A8,,,33,Study,User,1.25,,Anger,A8,1779,,,-1,-1,,,,1
6543af72769aacc0bf14521e,vxjsnbhyas,Ex2A_Prolific,1,47,2024-02-27T22:56:44+00:00,2.2531471252441,2,Stim_B.csv,Read.csv,Read,B,taste,,A9,,,34,Study,User,1.25,,Anger,A9,1782,,,-1,-1,,,,1
6543af72769aacc0bf14521e,vxjsnbhyas,Ex2A_Prolific,1,48,2024-02-27T22:56:47+00:00,2.2569630146027,2,Stim_B.csv,Read.csv,Read,B,cake,,A10,,,35,Study,User,1.25,,Anger,A10,1793,,,-1,-1,,,,1
6543af72769aacc0bf14521e,vxjsnbhyas,Ex2A_Prolific,1,49,2024-02-27T22:56:49+00:00,2.8653609752655,2,Stim_B.csv,Read.csv,Read,B,good,,A11,,,36,Study,User,1.25,,Anger,A11,2355,,,-1,-1,,,,1
6543af72769aacc0bf14521e,vxjsnbhyas,Ex2A_Prolific,1,50,2024-02-27T22:56:51+00:00,2.0493378639221,2,Stim_B.csv,Read.csv,Read,B,tooth,,A12,,,37,Study,User,1.25,,Anger,A12,1647,,,-1,-1,,,,1
6543af72769aacc0bf14521e,vxjsnbhyas,Ex2A_Prolific,1,51,2024-02-27T22:56:53+00:00,1.8413360118866,2,Stim_B.csv,Read.csv,Read,B,,,,,,0,Instruct,User,-,"You have completed this section. Please click next.",,Instruct166,1287,,,-1,-1,,,,1
6543af72769aacc0bf14521e,vxjsnbhyas,Ex2A_Prolific,1,52,2024-02-27T22:57:24+00:00,30.529633998871,2,Stim_B.csv,Read.csv,Read,B,,,,,,0,FreeRecall,30,30,"Please type as many words as you can that begin with the letter ""K"". The computer will automatically advance to the next screen in 30 seconds.",,FILLER,30004,"Kat kathryn kayak kinder kind kin kid kidding kids kindling ketamine",0,2397,28522,0,0,,1
6543af72769aacc0bf14521e,vxjsnbhyas,Ex2A_Prolific,1,53,2024-02-27T22:57:26+00:00,2.1391370296478,2,Stim_B.csv,Read.csv,Read,B,,,,,,0,Instruct,User,-,"You have completed this section. Please click next.",,Instruct166,1788,,,-1,-1,,,,1
6543af72769aacc0bf14521e,vxjsnbhyas,Ex2A_Prolific,1,54,2024-02-27T22:57:31+00:00,4.6071579456329,2,Stim_B.csv,Read.csv,Read,B,,,,,,0,Instruct,User,4,"You will now complete a memory test for the words you just studied. Please type as many words from the previous list as you can seperated by a comma. Spelling will not count against you and you can recall the words in any order. This test will be timed for one minute, and the computer will automatically advance once time is up. Click next when you are ready to begin.",,Instruct1666,4117,,,-1,-1,,,,1
6543af72769aacc0bf14521e,vxjsnbhyas,Ex2A_Prolific,1,55,2024-02-27T22:58:31+00:00,60.521142959595,2,Stim_B.csv,Read.csv,Read,B,,,,,,0,FreeRecall,60,60,"Please type as many words as you can from the previous study list in any order. Please separate each word with a comma. Spelling will not count against you. This screen will automatically advance in one minute.",,RECALL_Test,60002,"tooth, nice, sugar, sweet, chocolate, honey, mouth",0,833,26442,0,0,,1
6543af72769aacc0bf14521e,vxjsnbhyas,Ex2A_Prolific,1,56,2024-02-27T22:58:35+00:00,3.9919950962067,2,Stim_B.csv,Read.csv,Read,B,,,,,,0,Instruct,User,3,"You will now be presented with a new study list. Click next when you are ready to begin.",,NEXT_LIST,3493,,,-1,-1,,,,1
6543af72769aacc0bf14521e,vxjsnbhyas,Ex2A_Prolific,1,57,2024-02-27T22:58:38+00:00,2.4561541080475,2,Stim_B.csv,Read.csv,Read,B,table,,T1,,,38,Study,User,1.25,,Trash,T1,1954,,,-1,-1,,,,1
6543af72769aacc0bf14521e,vxjsnbhyas,Ex2A_Prolific,1,58,2024-02-27T22:58:40+00:00,2.1538147926331,2,Stim_B.csv,Read.csv,Read,B,swivel,,T2,,,39,Study,User,1.25,,Trash,T2,1705,,,-1,-1,,,,1
6543af72769aacc0bf14521e,vxjsnbhyas,Ex2A_Prolific,1,59,2024-02-27T22:58:42+00:00,2.2509570121765,2,Stim_B.csv,Read.csv,Read,B,rocking,,T3,,,40,Study,User,1.25,,Trash,T3,1669,,,-1,-1,,,,1
6543af72769aacc0bf14521e,vxjsnbhyas,Ex2A_Prolific,1,60,2024-02-27T22:58:44+00:00,2.1515061855316,2,Stim_B.csv,Read.csv,Read,B,recliner,,T4,,,41,Study,User,1.25,,Trash,T4,1771,,,-1,-1,,,,1
6543af72769aacc0bf14521e,vxjsnbhyas,Ex2A_Prolific,1,61,2024-02-27T22:58:46+00:00,1.9422588348389,2,Stim_B.csv,Read.csv,Read,B,seat,,T5,,,42,Study,User,1.25,,Trash,T5,1582,,,-1,-1,,,,1
6543af72769aacc0bf14521e,vxjsnbhyas,Ex2A_Prolific,1,62,2024-02-27T22:58:48+00:00,2.0501880645752,2,Stim_B.csv,Read.csv,Read,B,stool,,T6,,,43,Study,User,1.25,,Trash,T6,1656,,,-1,-1,,,,1
6543af72769aacc0bf14521e,vxjsnbhyas,Ex2A_Prolific,1,63,2024-02-27T22:58:50+00:00,2.251785993576,2,Stim_B.csv,Read.csv,Read,B,desk,,T7,,,44,Study,User,1.25,,Trash,T7,1765,,,-1,-1,,,,1
6543af72769aacc0bf14521e,vxjsnbhyas,Ex2A_Prolific,1,64,2024-02-27T22:58:52+00:00,1.8459119796753,2,Stim_B.csv,Read.csv,Read,B,couch,,T8,,,45,Study,User,1.25,,Trash,T8,1335,,,-1,-1,,,,1
6543af72769aacc0bf14521e,vxjsnbhyas,Ex2A_Prolific,1,65,2024-02-27T22:58:54+00:00,2.0552759170532,2,Stim_B.csv,Read.csv,Read,B,sit,,T9,,,46,Study,User,1.25,,Trash,T9,1690,,,-1,-1,,,,1
6543af72769aacc0bf14521e,vxjsnbhyas,Ex2A_Prolific,1,66,2024-02-27T22:58:56+00:00,2.1427540779114,2,Stim_B.csv,Read.csv,Read,B,sofa,,T10,,,47,Study,User,1.25,,Trash,T10,1696,,,-1,-1,,,,1
6543af72769aacc0bf14521e,vxjsnbhyas,Ex2A_Prolific,1,67,2024-02-27T22:58:58+00:00,2.0475690364838,2,Stim_B.csv,Read.csv,Read,B,bench,,T11,,,48,Study,User,1.25,,Trash,T11,1632,,,-1,-1,,,,1
6543af72769aacc0bf14521e,vxjsnbhyas,Ex2A_Prolific,1,68,2024-02-27T22:59:01+00:00,2.2509050369263,2,Stim_B.csv,Read.csv,Read,B,sitting,,T12,,,49,Study,User,1.25,,Trash,T12,1735,,,-1,-1,,,,1
6543af72769aacc0bf14521e,vxjsnbhyas,Ex2A_Prolific,1,69,2024-02-27T22:59:06+00:00,5.0196959972382,2,Stim_B.csv,Read.csv,Read,B,,,,,,0,Instruct,User,4,"You have completed this section. Please click next.",,Instruct166,4522,,,-1,-1,,,,1
6543af72769aacc0bf14521e,vxjsnbhyas,Ex2A_Prolific,1,70,2024-02-27T22:59:36+00:00,30.516453027725,2,Stim_B.csv,Read.csv,Read,B,,,,,,0,FreeRecall,30,30,"Please type as many words as you can that begin with the letter ""K"". The computer will automatically advance to the next screen in 30 seconds.",,FILLER,30006,"kid kids kidding kind kinder kinds ketamine kat kit kits kip kim ",0,1733,26668,0,0,,1
6543af72769aacc0bf14521e,vxjsnbhyas,Ex2A_Prolific,1,71,2024-02-27T22:59:41+00:00,4.9121978282928,2,Stim_B.csv,Read.csv,Read,B,,,,,,0,Instruct,User,4,"You have completed this section. Please click next.",,Instruct166,4474,,,-1,-1,,,,1
6543af72769aacc0bf14521e,vxjsnbhyas,Ex2A_Prolific,1,72,2024-02-27T22:59:46+00:00,4.9247400760651,2,Stim_B.csv,Read.csv,Read,B,,,,,,0,Instruct,User,4,"You will now complete a memory test for the words you just studied. Please type as many words from the previous list as you can seperated by a comma. Spelling will not count against you and you can recall the words in any order. This test will be timed for one minute, and the computer will automatically advance once time is up. Click next when you are ready to begin.",,Instruct1666,4437,,,-1,-1,,,,1
6543af72769aacc0bf14521e,vxjsnbhyas,Ex2A_Prolific,1,73,2024-02-27T23:00:47+00:00,60.511945962906,2,Stim_B.csv,Read.csv,Read,B,,,,,,0,FreeRecall,60,60,"Please type as many words as you can from the previous study list in any order. Please separate each word with a comma. Spelling will not count against you. This screen will automatically advance in one minute.",,RECALL_Test,60004,"sit, sitting, couch, chair, sofa, recliner, bench, desk",0,2381,20460,0,0,,1
6543af72769aacc0bf14521e,vxjsnbhyas,Ex2A_Prolific,1,74,2024-02-27T23:00:58+00:00,10.954929113388,2,Stim_B.csv,Read.csv,Read,B,,,,,,0,Instruct,User,3,"You will now be presented with a new study list. Click next when you are ready to begin.",,NEXT_LIST,10611,,,-1,-1,,,,1
6543af72769aacc0bf14521e,vxjsnbhyas,Ex2A_Prolific,1,75,2024-02-27T23:01:08+00:00,10.558006048203,2,Stim_B.csv,Read.csv,Read,B,climber,,D1,,,50,Study,User,1.25,,Doctor,D1,10024,,,-1,-1,,,,1
6543af72769aacc0bf14521e,vxjsnbhyas,Ex2A_Prolific,1,76,2024-02-27T23:01:10+00:00,2.1421098709106,2,Stim_B.csv,Read.csv,Read,B,hill,,D2,,,51,Study,User,1.25,,Doctor,D2,1691,,,-1,-1,,,,1
6543af72769aacc0bf14521e,vxjsnbhyas,Ex2A_Prolific,1,77,2024-02-27T23:01:13+00:00,2.2523469924927,2,Stim_B.csv,Read.csv,Read,B,climb,,D3,,,52,Study,User,1.25,,Doctor,D3,1732,,,-1,-1,,,,1
6543af72769aacc0bf14521e,vxjsnbhyas,Ex2A_Prolific,1,78,2024-02-27T23:01:15+00:00,2.253121137619,2,Stim_B.csv,Read.csv,Read,B,molehill,,D4,,,53,Study,User,1.25,,Doctor,D4,1733,,,-1,-1,,,,1
6543af72769aacc0bf14521e,vxjsnbhyas,Ex2A_Prolific,1,79,2024-02-27T23:01:17+00:00,2.1471118927002,2,Stim_B.csv,Read.csv,Read,B,peak,,D5,,,54,Study,User,1.25,,Doctor,D5,1676,,,-1,-1,,,,1
6543af72769aacc0bf14521e,vxjsnbhyas,Ex2A_Prolific,1,80,2024-02-27T23:01:19+00:00,2.1517190933228,2,Stim_B.csv,Read.csv,Read,B,valley,,D6,,,55,Study,User,1.25,,Doctor,D6,1670,,,-1,-1,,,,1
6543af72769aacc0bf14521e,vxjsnbhyas,Ex2A_Prolific,1,81,2024-02-27T23:01:21+00:00,2.2544379234314,2,Stim_B.csv,Read.csv,Read,B,summit,,D7,,,56,Study,User,1.25,,Doctor,D7,1740,,,-1,-1,,,,1
6543af72769aacc0bf14521e,vxjsnbhyas,Ex2A_Prolific,1,82,2024-02-27T23:01:23+00:00,2.0515840053558,2,Stim_B.csv,Read.csv,Read,B,steep,,D8,,,57,Study,User,1.25,,Doctor,D8,1686,,,-1,-1,,,,1
6543af72769aacc0bf14521e,vxjsnbhyas,Ex2A_Prolific,1,83,2024-02-27T23:01:26+00:00,2.1503739356995,2,Stim_B.csv,Read.csv,Read,B,ski,,D9,,,58,Study,User,1.25,,Doctor,D9,1702,,,-1,-1,,,,1
6543af72769aacc0bf14521e,vxjsnbhyas,Ex2A_Prolific,1,84,2024-02-27T23:01:28+00:00,2.1456780433655,2,Stim_B.csv,Read.csv,Read,B,bike,,D10,,,59,Study,User,1.25,,Doctor,D10,1611,,,-1,-1,,,,1
6543af72769aacc0bf14521e,vxjsnbhyas,Ex2A_Prolific,1,85,2024-02-27T23:01:30+00:00,2.1480860710144,2,Stim_B.csv,Read.csv,Read,B,goat,,D11,,,60,Study,User,1.25,,Doctor,D11,1695,,,-1,-1,,,,1
6543af72769aacc0bf14521e,vxjsnbhyas,Ex2A_Prolific,1,86,2024-02-27T23:01:32+00:00,1.9690179824829,2,Stim_B.csv,Read.csv,Read,B,glacier,,D12,,,61,Study,User,1.25,,Doctor,D12,1507,,,-1,-1,,,,1
6543af72769aacc0bf14521e,vxjsnbhyas,Ex2A_Prolific,1,87,2024-02-27T23:01:37+00:00,4.9976439476013,2,Stim_B.csv,Read.csv,Read,B,,,,,,0,Instruct,User,4,"You have completed this section. Please click next.",,Instruct166,4518,,,-1,-1,,,,1
6543af72769aacc0bf14521e,vxjsnbhyas,Ex2A_Prolific,1,88,2024-02-27T23:02:07+00:00,30.410938024521,2,Stim_B.csv,Read.csv,Read,B,,,,,,0,FreeRecall,30,30,"Please type as many words as you can that begin with the letter ""K"". The computer will automatically advance to the next screen in 30 seconds.",,FILLER,30003,"kit kits kind kip kinder kayak kan kandy kat ken kettle kew ",0,2115,26560,0,0,,1
6543af72769aacc0bf14521e,vxjsnbhyas,Ex2A_Prolific,1,89,2024-02-27T23:02:13+00:00,5.7381889820099,2,Stim_B.csv,Read.csv,Read,B,,,,,,0,Instruct,User,4,"You have completed this section. Please click next.",,Instruct166,5230,,,-1,-1,,,,1
6543af72769aacc0bf14521e,vxjsnbhyas,Ex2A_Prolific,1,90,2024-02-27T23:02:18+00:00,5.0149750709534,2,Stim_B.csv,Read.csv,Read,B,,,,,,0,Instruct,User,4,"You will now complete a memory test for the words you just studied. Please type as many words from the previous list as you can seperated by a comma. Spelling will not count against you and you can recall the words in any order. This test will be timed for one minute, and the computer will automatically advance once time is up. Click next when you are ready to begin.",,Instruct1666,4501,,,-1,-1,,,,1
6543af72769aacc0bf14521e,vxjsnbhyas,Ex2A_Prolific,1,91,2024-02-27T23:03:18+00:00,60.52197599411,2,Stim_B.csv,Read.csv,Read,B,,,,,,0,FreeRecall,60,60,"Please type as many words as you can from the previous study list in any order. Please separate each word with a comma. Spelling will not count against you. This screen will automatically advance in one minute.",,RECALL_Test,60005,"climb, climber, peak, mountain, summit, goat, ski,",0,777,11598,0,0,,1
6543af72769aacc0bf14521e,vxjsnbhyas,Ex2A_Prolific,1,92,2024-02-27T23:03:32+00:00,14.026648044586,2,Stim_B.csv,Read.csv,Read,B,,,,,,0,Instruct,User,3,"You will now be presented with a new study list. Click next when you are ready to begin.",,NEXT_LIST,13475,,,-1,-1,,,,1
6543af72769aacc0bf14521e,vxjsnbhyas,Ex2A_Prolific,1,93,2024-02-27T23:03:36+00:00,3.072723865509,2,Stim_B.csv,Read.csv,Read,B,band,,S1,,,62,Study,User,1.25,,Slow,S1,2536,,,-1,-1,,,,1
6543af72769aacc0bf14521e,vxjsnbhyas,Ex2A_Prolific,1,94,2024-02-27T23:03:38+00:00,2.1524450778961,2,Stim_B.csv,Read.csv,Read,B,concert,,S2,,,63,Study,User,1.25,,Slow,S2,1656,,,-1,-1,,,,1
6543af72769aacc0bf14521e,vxjsnbhyas,Ex2A_Prolific,1,95,2024-02-27T23:03:40+00:00,2.1535868644714,2,Stim_B.csv,Read.csv,Read,B,jazz,,S3,,,64,Study,User,1.25,,Slow,S3,1687,,,-1,-1,,,,1
6543af72769aacc0bf14521e,vxjsnbhyas,Ex2A_Prolific,1,96,2024-02-27T23:03:42+00:00,2.0445561408997,2,Stim_B.csv,Read.csv,Read,B,symphony,,S4,,,65,Study,User,1.25,,Slow,S4,1635,,,-1,-1,,,,1
6543af72769aacc0bf14521e,vxjsnbhyas,Ex2A_Prolific,1,97,2024-02-27T23:03:44+00:00,2.1468989849091,2,Stim_B.csv,Read.csv,Read,B,orchestra,,S5,,,66,Study,User,1.25,,Slow,S5,1694,,,-1,-1,,,,1
6543af72769aacc0bf14521e,vxjsnbhyas,Ex2A_Prolific,1,98,2024-02-27T23:03:46+00:00,2.257031917572,2,Stim_B.csv,Read.csv,Read,B,rhythm,,S6,,,67,Study,User,1.25,,Slow,S6,1736,,,-1,-1,,,,1
6543af72769aacc0bf14521e,vxjsnbhyas,Ex2A_Prolific,1,99,2024-02-27T23:03:48+00:00,2.0458700656891,2,Stim_B.csv,Read.csv,Read,B,radio,,S7,,,68,Study,User,1.25,,Slow,S7,1616,,,-1,-1,,,,1
6543af72769aacc0bf14521e,vxjsnbhyas,Ex2A_Prolific,1,100,2024-02-27T23:03:50+00:00,2.0628790855408,2,Stim_B.csv,Read.csv,Read,B,melody,,S8,,,69,Study,User,1.25,,Slow,S8,1607,,,-1,-1,,,,1
6543af72769aacc0bf14521e,vxjsnbhyas,Ex2A_Prolific,1,101,2024-02-27T23:03:53+00:00,2.1340188980103,2,Stim_B.csv,Read.csv,Read,B,piano,,S9,,,70,Study,User,1.25,,Slow,S9,1618,,,-1,-1,,,,1
6543af72769aacc0bf14521e,vxjsnbhyas,Ex2A_Prolific,1,102,2024-02-27T23:03:55+00:00,2.1527440547943,2,Stim_B.csv,Read.csv,Read,B,sound,,S10,,,71,Study,User,1.25,,Slow,S10,1651,,,-1,-1,,,,1
6543af72769aacc0bf14521e,vxjsnbhyas,Ex2A_Prolific,1,103,2024-02-27T23:03:57+00:00,2.0456109046936,2,Stim_B.csv,Read.csv,Read,B,instrument,,S11,,,72,Study,User,1.25,,Slow,S11,1572,,,-1,-1,,,,1
6543af72769aacc0bf14521e,vxjsnbhyas,Ex2A_Prolific,1,104,2024-02-27T23:03:59+00:00,2.0520811080933,2,Stim_B.csv,Read.csv,Read,B,note,,S12,,,73,Study,User,1.25,,Slow,S12,1534,,,-1,-1,,,,1
6543af72769aacc0bf14521e,vxjsnbhyas,Ex2A_Prolific,1,105,2024-02-27T23:04:01+00:00,1.736585855484,2,Stim_B.csv,Read.csv,Read,B,,,,,,0,Instruct,User,-,"You have completed this section. Please click next.",,Instruct166,1271,,,-1,-1,,,,1
6543af72769aacc0bf14521e,vxjsnbhyas,Ex2A_Prolific,1,106,2024-02-27T23:04:31+00:00,30.520905971527,2,Stim_B.csv,Read.csv,Read,B,,,,,,0,FreeRecall,30,30,"Please type as many words as you can that begin with the letter ""K"". The computer will automatically advance to the next screen in 30 seconds.",,FILLER,30006,"ketamine kip keg kit kirk kew ke",0,1339,29713,0,0,,1
6543af72769aacc0bf14521e,vxjsnbhyas,Ex2A_Prolific,1,107,2024-02-27T23:04:36+00:00,4.707878112793,2,Stim_B.csv,Read.csv,Read,B,,,,,,0,Instruct,User,4,"You have completed this section. Please click next.",,Instruct166,4258,,,-1,-1,,,,1
6543af72769aacc0bf14521e,vxjsnbhyas,Ex2A_Prolific,1,108,2024-02-27T23:04:41+00:00,4.830493927002,2,Stim_B.csv,Read.csv,Read,B,,,,,,0,Instruct,User,4,"You will now complete a memory test for the words you just studied. Please type as many words from the previous list as you can seperated by a comma. Spelling will not count against you and you can recall the words in any order. This test will be timed for one minute, and the computer will automatically advance once time is up. Click next when you are ready to begin.",,Instruct1666,4485,,,-1,-1,,,,1
6543af72769aacc0bf14521e,vxjsnbhyas,Ex2A_Prolific,1,109,2024-02-27T23:05:41+00:00,60.503147125244,2,Stim_B.csv,Read.csv,Read,B,,,,,,0,FreeRecall,60,60,"Please type as many words as you can from the previous study list in any order. Please separate each word with a comma. Spelling will not count against you. This screen will automatically advance in one minute.",,RECALL_Test,60002,"sound, music, band, concert, jazz, piano, orchastra, symphony, melody",0,1928,26125,0,0,,1
6543af72769aacc0bf14521e,vxjsnbhyas,Ex2A_Prolific,1,110,2024-02-27T23:05:45+00:00,4.0955579280853,2,Stim_B.csv,Read.csv,Read,B,,,,,,0,Instruct,User,3,"You will now be presented with a new study list. Click next when you are ready to begin.",,NEXT_LIST,3598,,,-1,-1,,,,1
6543af72769aacc0bf14521e,vxjsnbhyas,Ex2A_Prolific,1,111,2024-02-27T23:05:47+00:00,2.2525169849396,2,Stim_B.csv,Read.csv,Read,B,foam,,RR1,,,74,Study,User,1.25,,River,RR1,1725,,,-1,-1,,,,1
6543af72769aacc0bf14521e,vxjsnbhyas,Ex2A_Prolific,1,112,2024-02-27T23:05:50+00:00,2.1498930454254,2,Stim_B.csv,Read.csv,Read,B,latex,,RR2,,,75,Study,User,1.25,,River,RR2,1633,,,-1,-1,,,,1
6543af72769aacc0bf14521e,vxjsnbhyas,Ex2A_Prolific,1,113,2024-02-27T23:05:52+00:00,2.1521198749542,2,Stim_B.csv,Read.csv,Read,B,galoshes,,RR3,,,76,Study,User,1.25,,River,RR3,1736,,,-1,-1,,,,1
6543af72769aacc0bf14521e,vxjsnbhyas,Ex2A_Prolific,1,114,2024-02-27T23:05:54+00:00,2.0457332134247,2,Stim_B.csv,Read.csv,Read,B,tire,,RR4,,,77,Study,User,1.25,,River,RR4,1550,,,-1,-1,,,,1
6543af72769aacc0bf14521e,vxjsnbhyas,Ex2A_Prolific,1,115,2024-02-27T23:05:56+00:00,2.1512699127197,2,Stim_B.csv,Read.csv,Read,B,flexible,,RR5,,,78,Study,User,1.25,,River,RR5,1605,,,-1,-1,,,,1
6543af72769aacc0bf14521e,vxjsnbhyas,Ex2A_Prolific,1,116,2024-02-27T23:05:58+00:00,2.0471830368042,2,Stim_B.csv,Read.csv,Read,B,elastic,,RR6,,,79,Study,User,1.25,,River,RR6,1517,,,-1,-1,,,,1
6543af72769aacc0bf14521e,vxjsnbhyas,Ex2A_Prolific,1,117,2024-02-27T23:06:00+00:00,1.9453370571136,2,Stim_B.csv,Read.csv,Read,B,gloves,,RR7,,,80,Study,User,1.25,,River,RR7,1420,,,-1,-1,,,,1
6543af72769aacc0bf14521e,vxjsnbhyas,Ex2A_Prolific,1,118,2024-02-27T23:06:02+00:00,2.048131942749,2,Stim_B.csv,Read.csv,Read,B,eraser,,RR8,,,81,Study,User,1.25,,River,RR8,1554,,,-1,-1,,,,1
6543af72769aacc0bf14521e,vxjsnbhyas,Ex2A_Prolific,1,119,2024-02-27T23:06:04+00:00,2.1515119075775,2,Stim_B.csv,Read.csv,Read,B,bounce,,RR9,,,82,Study,User,1.25,,River,RR9,1656,,,-1,-1,,,,1
6543af72769aacc0bf14521e,vxjsnbhyas,Ex2A_Prolific,1,120,2024-02-27T23:06:06+00:00,2.2518839836121,2,Stim_B.csv,Read.csv,Read,B,ball,,RR10,,,83,Study,User,1.25,,River,RR10,1749,,,-1,-1,,,,1
6543af72769aacc0bf14521e,vxjsnbhyas,Ex2A_Prolific,1,121,2024-02-27T23:06:09+00:00,2.3542339801788,2,Stim_B.csv,Read.csv,Read,B,soles,,RR11,,,84,Study,User,1.25,,River,RR11,1812,,,-1,-1,,,,1
6543af72769aacc0bf14521e,vxjsnbhyas,Ex2A_Prolific,1,122,2024-02-27T23:06:11+00:00,2.1514840126038,2,Stim_B.csv,Read.csv,Read,B,springy,,RR12,,,85,Study,User,1.25,,River,RR12,1626,,,-1,-1,,,,1
6543af72769aacc0bf14521e,vxjsnbhyas,Ex2A_Prolific,1,123,2024-02-27T23:06:16+00:00,4.9170360565186,2,Stim_B.csv,Read.csv,Read,B,,,,,,0,Instruct,User,4,"You have completed this section. Please click next.",,Instruct166,4464,,,-1,-1,,,,1
6543af72769aacc0bf14521e,vxjsnbhyas,Ex2A_Prolific,1,124,2024-02-27T23:06:46+00:00,30.517024040222,2,Stim_B.csv,Read.csv,Read,B,,,,,,0,FreeRecall,30,30,"Please type as many words as you can that begin with the letter ""K"". The computer will automatically advance to the next screen in 30 seconds.",,FILLER,30001,"kip kit kits kid kind kinder kidder kidding kit kits kirks kew kiss kissing",0,1758,29716,0,0,,1
6543af72769aacc0bf14521e,vxjsnbhyas,Ex2A_Prolific,1,125,2024-02-27T23:06:48+00:00,1.5335500240326,2,Stim_B.csv,Read.csv,Read,B,,,,,,0,Instruct,User,-,"You have completed this section. Please click next.",,Instruct166,1010,,,-1,-1,,,,1
6543af72769aacc0bf14521e,vxjsnbhyas,Ex2A_Prolific,1,126,2024-02-27T23:06:53+00:00,5.326061964035,2,Stim_B.csv,Read.csv,Read,B,,,,,,0,Instruct,User,4,"You will now complete a memory test for the words you just studied. Please type as many words from the previous list as you can seperated by a comma. Spelling will not count against you and you can recall the words in any order. This test will be timed for one minute, and the computer will automatically advance once time is up. Click next when you are ready to begin.",,Instruct1666,4823,,,-1,-1,,,,1
6543af72769aacc0bf14521e,vxjsnbhyas,Ex2A_Prolific,1,127,2024-02-27T23:07:54+00:00,60.528614997864,2,Stim_B.csv,Read.csv,Read,B,,,,,,0,FreeRecall,60,60,"Please type as many words as you can from the previous study list in any order. Please separate each word with a comma. Spelling will not count against you. This screen will automatically advance in one minute.",,RECALL_Test,60006,"latex, gloves, elastic, bouncy, balls",0,790,9537,0,0,,1
6543af72769aacc0bf14521e,vxjsnbhyas,Ex2A_Prolific,1,128,2024-02-27T23:07:59+00:00,5.1085169315338,2,Stim_B.csv,Read.csv,Read,B,,,,,,0,Instruct,User,3,"You will now be presented with a new study list. Click next when you are ready to begin.",,NEXT_LIST,4629,,,-1,-1,,,,1
6543af72769aacc0bf14521e,vxjsnbhyas,Ex2A_Prolific,1,129,2024-02-27T23:08:03+00:00,4.403146982193,2,Stim_B.csv,Read.csv,Read,B,toe,,B1,,,86,Study,User,1.25,,Bread,B1,3873,,,-1,-1,,,,1
6543af72769aacc0bf14521e,vxjsnbhyas,Ex2A_Prolific,1,130,2024-02-27T23:08:05+00:00,2.1379060745239,2,Stim_B.csv,Read.csv,Read,B,inch,,B2,,,87,Study,User,1.25,,Bread,B2,1680,,,-1,-1,,,,1
6543af72769aacc0bf14521e,vxjsnbhyas,Ex2A_Prolific,1,131,2024-02-27T23:08:08+00:00,2.1654319763184,2,Stim_B.csv,Read.csv,Read,B,ankle,,B3,,,88,Study,User,1.25,,Bread,B3,1793,,,-1,-1,,,,1
6543af72769aacc0bf14521e,vxjsnbhyas,Ex2A_Prolific,1,132,2024-02-27T23:08:10+00:00,2.2527921199799,2,Stim_B.csv,Read.csv,Read,B,shoe,,B4,,,89,Study,User,1.25,,Bread,B4,1723,,,-1,-1,,,,1
6543af72769aacc0bf14521e,vxjsnbhyas,Ex2A_Prolific,1,133,2024-02-27T23:08:12+00:00,2.1511027812958,2,Stim_B.csv,Read.csv,Read,B,sandals,,B5,,,90,Study,User,1.25,,Bread,B5,1675,,,-1,-1,,,,1
6543af72769aacc0bf14521e,vxjsnbhyas,Ex2A_Prolific,1,134,2024-02-27T23:08:14+00:00,2.1583511829376,2,Stim_B.csv,Read.csv,Read,B,sock,,B6,,,91,Study,User,1.25,,Bread,B6,1702,,,-1,-1,,,,1
6543af72769aacc0bf14521e,vxjsnbhyas,Ex2A_Prolific,1,135,2024-02-27T23:08:16+00:00,2.0422840118408,2,Stim_B.csv,Read.csv,Read,B,hand,,B7,,,92,Study,User,1.25,,Bread,B7,1644,,,-1,-1,,,,1
6543af72769aacc0bf14521e,vxjsnbhyas,Ex2A_Prolific,1,136,2024-02-27T23:08:18+00:00,2.1463530063629,2,Stim_B.csv,Read.csv,Read,B,boot,,B8,,,93,Study,User,1.25,,Bread,B8,1614,,,-1,-1,,,,1
6543af72769aacc0bf14521e,vxjsnbhyas,Ex2A_Prolific,1,137,2024-02-27T23:08:20+00:00,2.1534450054169,2,Stim_B.csv,Read.csv,Read,B,yard,,B9,,,94,Study,User,1.25,,Bread,B9,1646,,,-1,-1,,,,1
6543af72769aacc0bf14521e,vxjsnbhyas,Ex2A_Prolific,1,138,2024-02-27T23:08:23+00:00,2.07794880867,2,Stim_B.csv,Read.csv,Read,B,kick,,B10,,,95,Study,User,1.25,,Bread,B10,1626,,,-1,-1,,,,1
6543af72769aacc0bf14521e,vxjsnbhyas,Ex2A_Prolific,1,139,2024-02-27T23:08:25+00:00,2.3266410827637,2,Stim_B.csv,Read.csv,Read,B,knee,,B11,,,96,Study,User,1.25,,Bread,B11,1880,,,-1,-1,,,,1
6543af72769aacc0bf14521e,vxjsnbhyas,Ex2A_Prolific,1,140,2024-02-27T23:08:27+00:00,2.2523601055145,2,Stim_B.csv,Read.csv,Read,B,walk,,B12,,,97,Study,User,1.25,,Bread,B12,1795,,,-1,-1,,,,1
6543af72769aacc0bf14521e,vxjsnbhyas,Ex2A_Prolific,1,141,2024-02-27T23:08:29+00:00,2.0477979183197,2,Stim_B.csv,Read.csv,Read,B,,,,,,0,Instruct,User,-,"You have completed this section. Please click next.",,Instruct166,1627,,,-1,-1,,,,1
6543af72769aacc0bf14521e,vxjsnbhyas,Ex2A_Prolific,1,142,2024-02-27T23:09:00+00:00,30.515769958496,2,Stim_B.csv,Read.csv,Read,B,,,,,,0,FreeRecall,30,30,"Please type as many words as you can that begin with the letter ""K"". The computer will automatically advance to the next screen in 30 seconds.",,FILLER,30004,"kid kiss kissing kite knitting kidding kop ketamine",0,1966,29888,0,0,,1
6543af72769aacc0bf14521e,vxjsnbhyas,Ex2A_Prolific,1,143,2024-02-27T23:09:04+00:00,4.7055640220642,2,Stim_B.csv,Read.csv,Read,B,,,,,,0,Instruct,User,4,"You have completed this section. Please click next.",,Instruct166,4326,,,-1,-1,,,,1
6543af72769aacc0bf14521e,vxjsnbhyas,Ex2A_Prolific,1,144,2024-02-27T23:09:09+00:00,4.8201019763947,2,Stim_B.csv,Read.csv,Read,B,,,,,,0,Instruct,User,4,"You will now complete a memory test for the words you just studied. Please type as many words from the previous list as you can seperated by a comma. Spelling will not count against you and you can recall the words in any order. This test will be timed for one minute, and the computer will automatically advance once time is up. Click next when you are ready to begin.",,Instruct1666,4372,,,-1,-1,,,,1
6543af72769aacc0bf14521e,vxjsnbhyas,Ex2A_Prolific,1,145,2024-02-27T23:10:10+00:00,60.516384124756,2,Stim_B.csv,Read.csv,Read,B,,,,,,0,FreeRecall,60,60,"Please type as many words as you can from the previous study list in any order. Please separate each word with a comma. Spelling will not count against you. This screen will automatically advance in one minute.",,RECALL_Test,60006,"ankle, shoe, toe, bend, sandal, sock,",0,701,30117,0,0,,1
6543af72769aacc0bf14521e,vxjsnbhyas,Ex2A_Prolific,1,146,2024-02-27T23:10:14+00:00,4.1933619976044,2,Stim_B.csv,Read.csv,Read,B,,,,,,0,Instruct,User,3,"You will now be presented with a new study list. Click next when you are ready to begin.",,NEXT_LIST,3693,,,-1,-1,,,,1
6543af72769aacc0bf14521e,vxjsnbhyas,Ex2A_Prolific,1,147,2024-02-27T23:10:16+00:00,2.1651618480682,2,Stim_B.csv,Read.csv,Read,B,boy,,F1,,,98,Study,User,1.25,,Flag,F1,1696,,,-1,-1,,,,1
6543af72769aacc0bf14521e,vxjsnbhyas,Ex2A_Prolific,1,148,2024-02-27T23:10:18+00:00,2.3443310260773,2,Stim_B.csv,Read.csv,Read,B,dolls,,F2,,,99,Study,User,1.25,,Flag,F2,1871,,,-1,-1,,,,1
6543af72769aacc0bf14521e,vxjsnbhyas,Ex2A_Prolific,1,149,2024-02-27T23:10:21+00:00,2.1482660770416,2,Stim_B.csv,Read.csv,Read,B,pretty,,F3,,,100,Study,User,1.25,,Flag,F3,1689,,,-1,-1,,,,1
6543af72769aacc0bf14521e,vxjsnbhyas,Ex2A_Prolific,1,150,2024-02-27T23:10:23+00:00,2.0454058647156,2,Stim_B.csv,Read.csv,Read,B,female,,F4,,,101,Study,User,1.25,,Flag,F4,1669,,,-1,-1,,,,1
6543af72769aacc0bf14521e,vxjsnbhyas,Ex2A_Prolific,1,151,2024-02-27T23:10:25+00:00,2.0520980358124,2,Stim_B.csv,Read.csv,Read,B,dress,,F5,,,102,Study,User,1.25,,Flag,F5,1648,,,-1,-1,,,,1
6543af72769aacc0bf14521e,vxjsnbhyas,Ex2A_Prolific,1,152,2024-02-27T23:10:27+00:00,2.1486330032349,2,Stim_B.csv,Read.csv,Read,B,date,,F6,,,103,Study,User,1.25,,Flag,F6,1658,,,-1,-1,,,,1
6543af72769aacc0bf14521e,vxjsnbhyas,Ex2A_Prolific,1,153,2024-02-27T23:10:29+00:00,2.253958940506,2,Stim_B.csv,Read.csv,Read,B,beautiful,,F7,,,104,Study,User,1.25,,Flag,F7,1705,,,-1,-1,,,,1
6543af72769aacc0bf14521e,vxjsnbhyas,Ex2A_Prolific,1,154,2024-02-27T23:10:31+00:00,2.1471471786499,2,Stim_B.csv,Read.csv,Read,B,daughter,,F8,,,105,Study,User,1.25,,Flag,F8,1671,,,-1,-1,,,,1
6543af72769aacc0bf14521e,vxjsnbhyas,Ex2A_Prolific,1,155,2024-02-27T23:10:33+00:00,2.1523728370667,2,Stim_B.csv,Read.csv,Read,B,sister,,F9,,,106,Study,User,1.25,,Flag,F9,1672,,,-1,-1,,,,1
6543af72769aacc0bf14521e,vxjsnbhyas,Ex2A_Prolific,1,156,2024-02-27T23:10:36+00:00,2.155121088028,2,Stim_B.csv,Read.csv,Read,B,cute,,F10,,,107,Study,User,1.25,,Flag,F10,1674,,,-1,-1,,,,1
6543af72769aacc0bf14521e,vxjsnbhyas,Ex2A_Prolific,1,157,2024-02-27T23:10:38+00:00,2.0421159267426,2,Stim_B.csv,Read.csv,Read,B,niece,,F11,,,108,Study,User,1.25,,Flag,F11,1636,,,-1,-1,,,,1
6543af72769aacc0bf14521e,vxjsnbhyas,Ex2A_Prolific,1,158,2024-02-27T23:10:40+00:00,2.051265001297,2,Stim_B.csv,Read.csv,Read,B,young,,F12,,,109,Study,User,1.25,,Flag,F12,1643,,,-1,-1,,,,1
6543af72769aacc0bf14521e,vxjsnbhyas,Ex2A_Prolific,1,159,2024-02-27T23:10:41+00:00,1.4311001300812,2,Stim_B.csv,Read.csv,Read,B,,,,,,0,Instruct,User,-,"You have completed this section. Please click next.",,Instruct166,1000,,,-1,-1,,,,1
6543af72769aacc0bf14521e,vxjsnbhyas,Ex2A_Prolific,1,160,2024-02-27T23:11:12+00:00,30.521374940872,2,Stim_B.csv,Read.csv,Read,B,,,,,,0,FreeRecall,30,30,"Please type as many words as you can that begin with the letter ""K"". The computer will automatically advance to the next screen in 30 seconds.",,FILLER,30001,"kid kidding kop keg kit kitting kidding kitten kiss kissing klock kew ",0,1234,20248,0,0,,1
6543af72769aacc0bf14521e,vxjsnbhyas,Ex2A_Prolific,1,161,2024-02-27T23:11:13+00:00,1.7334249019623,2,Stim_B.csv,Read.csv,Read,B,,,,,,0,Instruct,User,-,"You have completed this section. Please click next.",,Instruct166,1281,,,-1,-1,,,,1
6543af72769aacc0bf14521e,vxjsnbhyas,Ex2A_Prolific,1,162,2024-02-27T23:11:18+00:00,4.9174430370331,2,Stim_B.csv,Read.csv,Read,B,,,,,,0,Instruct,User,4,"You will now complete a memory test for the words you just studied. Please type as many words from the previous list as you can seperated by a comma. Spelling will not count against you and you can recall the words in any order. This test will be timed for one minute, and the computer will automatically advance once time is up. Click next when you are ready to begin.",,Instruct1666,4492,,,-1,-1,,,,1
6543af72769aacc0bf14521e,vxjsnbhyas,Ex2A_Prolific,1,163,2024-02-27T23:12:19+00:00,60.420099020004,2,Stim_B.csv,Read.csv,Read,B,,,,,,0,FreeRecall,60,60,"Please type as many words as you can from the previous study list in any order. Please separate each word with a comma. Spelling will not count against you. This screen will automatically advance in one minute.",,RECALL_Test,60001,"daughter, sister, niece, date, beautiful, pretty, boy, cute",0,931,18632,0,0,,1
6543af72769aacc0bf14521e,vxjsnbhyas,Ex2A_Prolific,1,164,2024-02-27T23:12:49+00:00,30.23777794838,2,Stim_B.csv,Read.csv,Read,B,,,,,,0,Instruct,User,3,"You will now be presented with a new study list. Click next when you are ready to begin.",,NEXT_LIST,29858,,,-1,-1,,,,1
6543af72769aacc0bf14521e,vxjsnbhyas,Ex2A_Prolific,1,165,2024-02-27T23:12:52+00:00,2.9450662136078,2,Stim_B.csv,Read.csv,Read,B,white,,SS1,,,110,Study,User,1.25,,Shirt,SS1,2567,,,-1,-1,,,,1
6543af72769aacc0bf14521e,vxjsnbhyas,Ex2A_Prolific,1,166,2024-02-27T23:12:54+00:00,2.1551117897034,2,Stim_B.csv,Read.csv,Read,B,gray,,SS2,,,111,Study,User,1.25,,Shirt,SS2,1626,,,-1,-1,,,,1
6543af72769aacc0bf14521e,vxjsnbhyas,Ex2A_Prolific,1,167,2024-02-27T23:12:56+00:00,2.1396870613098,2,Stim_B.csv,Read.csv,Read,B,brown,,SS3,,,112,Study,User,1.25,,Shirt,SS3,1667,,,-1,-1,,,,1
6543af72769aacc0bf14521e,vxjsnbhyas,Ex2A_Prolific,1,168,2024-02-27T23:12:58+00:00,2.2539689540863,2,Stim_B.csv,Read.csv,Read,B,coal,,SS4,,,113,Study,User,1.25,,Shirt,SS4,1731,,,-1,-1,,,,1
6543af72769aacc0bf14521e,vxjsnbhyas,Ex2A_Prolific,1,169,2024-02-27T23:13:01+00:00,2.151566028595,2,Stim_B.csv,Read.csv,Read,B,dark,,SS5,,,114,Study,User,1.25,,Shirt,SS5,1682,,,-1,-1,,,,1
6543af72769aacc0bf14521e,vxjsnbhyas,Ex2A_Prolific,1,170,2024-02-27T23:13:03+00:00,2.0469291210175,2,Stim_B.csv,Read.csv,Read,B,color,,SS6,,,115,Study,User,1.25,,Shirt,SS6,1561,,,-1,-1,,,,1
6543af72769aacc0bf14521e,vxjsnbhyas,Ex2A_Prolific,1,171,2024-02-27T23:13:05+00:00,2.1489629745483,2,Stim_B.csv,Read.csv,Read,B,funeral,,SS7,,,116,Study,User,1.25,,Shirt,SS7,1692,,,-1,-1,,,,1
6543af72769aacc0bf14521e,vxjsnbhyas,Ex2A_Prolific,1,172,2024-02-27T23:13:07+00:00,2.1502330303192,2,Stim_B.csv,Read.csv,Read,B,blue,,SS8,,,117,Study,User,1.25,,Shirt,SS8,1641,,,-1,-1,,,,1
6543af72769aacc0bf14521e,vxjsnbhyas,Ex2A_Prolific,1,173,2024-02-27T23:13:09+00:00,2.1505868434906,2,Stim_B.csv,Read.csv,Read,B,charred,,SS9,,,118,Study,User,1.25,,Shirt,SS9,1685,,,-1,-1,,,,1
6543af72769aacc0bf14521e,vxjsnbhyas,Ex2A_Prolific,1,174,2024-02-27T23:13:11+00:00,2.1521511077881,2,Stim_B.csv,Read.csv,Read,B,ink,,SS10,,,119,Study,User,1.25,,Shirt,SS10,1623,,,-1,-1,,,,1
6543af72769aacc0bf14521e,vxjsnbhyas,Ex2A_Prolific,1,175,2024-02-27T23:13:13+00:00,2.2547500133514,2,Stim_B.csv,Read.csv,Read,B,death,,SS11,,,120,Study,User,1.25,,Shirt,SS11,1717,,,-1,-1,,,,1
6543af72769aacc0bf14521e,vxjsnbhyas,Ex2A_Prolific,1,176,2024-02-27T23:13:15+00:00,2.0476858615875,2,Stim_B.csv,Read.csv,Read,B,cat,,SS12,,,121,Study,User,1.25,,Shirt,SS12,1564,,,-1,-1,,,,1
6543af72769aacc0bf14521e,vxjsnbhyas,Ex2A_Prolific,1,177,2024-02-27T23:13:20+00:00,4.9162302017212,2,Stim_B.csv,Read.csv,Read,B,,,,,,0,Instruct,User,4,"You have completed this section. Please click next.",,Instruct166,4469,,,-1,-1,,,,1
6543af72769aacc0bf14521e,vxjsnbhyas,Ex2A_Prolific,1,178,2024-02-27T23:13:51+00:00,30.512092828751,2,Stim_B.csv,Read.csv,Read,B,,,,,,0,FreeRecall,30,30,"Please type as many words as you can that begin with the letter ""K"". The computer will automatically advance to the next screen in 30 seconds.",,FILLER,30001,"kop kit koy kite knit kiss kissing kid kidding kids kew krab krac",0,1864,29531,0,0,,1
6543af72769aacc0bf14521e,vxjsnbhyas,Ex2A_Prolific,1,179,2024-02-27T23:13:56+00:00,4.9149820804596,2,Stim_B.csv,Read.csv,Read,B,,,,,,0,Instruct,User,4,"You have completed this section. Please click next.",,Instruct166,4446,,,-1,-1,,,,1
6543af72769aacc0bf14521e,vxjsnbhyas,Ex2A_Prolific,1,180,2024-02-27T23:14:01+00:00,5.1328549385071,2,Stim_B.csv,Read.csv,Read,B,,,,,,0,Instruct,User,4,"You will now complete a memory test for the words you just studied. Please type as many words from the previous list as you can seperated by a comma. Spelling will not count against you and you can recall the words in any order. This test will be timed for one minute, and the computer will automatically advance once time is up. Click next when you are ready to begin.",,Instruct1666,4675,,,-1,-1,,,,1
6543af72769aacc0bf14521e,vxjsnbhyas,Ex2A_Prolific,1,181,2024-02-27T23:15:01+00:00,60.50824713707,2,Stim_B.csv,Read.csv,Read,B,,,,,,0,FreeRecall,60,60,"Please type as many words as you can from the previous study list in any order. Please separate each word with a comma. Spelling will not count against you. This screen will automatically advance in one minute.",,RECALL_Test,60002,"blue, black, dark, cat, white, gray, funeral, flower, death",0,740,18511,0,0,,1
6543af72769aacc0bf14521e,vxjsnbhyas,Ex2A_Prolific,1,182,2024-02-27T23:15:19+00:00,17.41140794754,2,Stim_B.csv,Read.csv,Read,B,,,,,,0,Instruct,User,-,"You have completed this section. Please click next.",,Instruct7,16934,,,-1,-1,,,,1
6543af72769aacc0bf14521e,vxjsnbhyas,Ex2A_Prolific,1,183,2024-02-27T23:15:21+00:00,2.1469960212708,2,Stim_B.csv,Read.csv,Read,B,,,,,,0,Instruct,User,-,"The following screen will ask you a few questions abour your experience today. You must complete these questions to receive credit.",,Instruct8,1716,,,-1,-1,,,,1
