Username,ID,ExperimentName,Session,Trial,Date,TimeDif,"Condition Number","Stimuli File","Order File","Condition Description","Condition Notes",Stimuli*Cue,Stimuli*Answer,Stimuli*Shuffle,"Stimuli*Stimuli Notes",Stimuli*Value,Procedure*Item,"Procedure*Trial Type","Procedure*Max Time","Procedure*Min Time",Procedure*Text,"Procedure*Procedure Notes",Procedure*Shuffle,Response*RT,Response*Response,Response*Accuracy,Response*RTfirst,Response*RTlast,Response*strictAcc,Response*lenientAcc,Response*focus,Response*Focus
6537f925fee26ff5fdbc8b2f,hnlkxsgfuo,Ex2A_Prolific,1,1,2024-02-28T23:02:58+00:00,43.661139965057,2,Stim_B.csv,Read.csv,Read,B,,,,,,0,Instruct,-,5,"In this section, you will be presented with a series of words. Please study each word carefully. Your memory will be tested! Click next when you are ready to begin.",Initial_Instruct,Instruct1,43344,,,-1,-1,,,,1
6537f925fee26ff5fdbc8b2f,hnlkxsgfuo,Ex2A_Prolific,1,2,2024-02-28T23:03:00+00:00,2.6136062145233,2,Stim_B.csv,Read.csv,Read,B,,,,,,0,Instruct,User,-,"You will now begin the study. Click next when you are ready to begin.",,Instruct16,2284,,,-1,-1,,,,1
6537f925fee26ff5fdbc8b2f,hnlkxsgfuo,Ex2A_Prolific,1,3,2024-02-28T23:03:03+00:00,2.5460598468781,2,Stim_B.csv,Read.csv,Read,B,aroma,,Win_1,,,2,Study,User,1.25,,Window,Win_1,2230,,,-1,-1,,,,1
6537f925fee26ff5fdbc8b2f,hnlkxsgfuo,Ex2A_Prolific,1,4,2024-02-28T23:03:05+00:00,2.0304000377655,2,Stim_B.csv,Read.csv,Read,B,scent,,Win_2,,,3,Study,User,1.25,,Window,Win_2,1714,,,-1,-1,,,,1
6537f925fee26ff5fdbc8b2f,hnlkxsgfuo,Ex2A_Prolific,1,5,2024-02-28T23:03:07+00:00,2.1125569343567,2,Stim_B.csv,Read.csv,Read,B,whiff,,Win_3,,,4,Study,User,1.25,,Window,Win_3,1810,,,-1,-1,,,,1
6537f925fee26ff5fdbc8b2f,hnlkxsgfuo,Ex2A_Prolific,1,6,2024-02-28T23:03:09+00:00,1.9977111816406,2,Stim_B.csv,Read.csv,Read,B,stench,,Win_4,,,5,Study,User,1.25,,Window,Win_4,1682,,,-1,-1,,,,1
6537f925fee26ff5fdbc8b2f,hnlkxsgfuo,Ex2A_Prolific,1,7,2024-02-28T23:03:11+00:00,1.947459936142,2,Stim_B.csv,Read.csv,Read,B,reek,,Win_5,,,6,Study,User,1.25,,Window,Win_5,1637,,,-1,-1,,,,1
6537f925fee26ff5fdbc8b2f,hnlkxsgfuo,Ex2A_Prolific,1,8,2024-02-28T23:03:13+00:00,1.9686799049377,2,Stim_B.csv,Read.csv,Read,B,sniff,,Win_6,,,7,Study,User,1.25,,Window,Win_6,1654,,,-1,-1,,,,1
6537f925fee26ff5fdbc8b2f,hnlkxsgfuo,Ex2A_Prolific,1,9,2024-02-28T23:03:15+00:00,1.9395351409912,2,Stim_B.csv,Read.csv,Read,B,perfume,,Win_7,,,8,Study,User,1.25,,Window,Win_7,1632,,,-1,-1,,,,1
6537f925fee26ff5fdbc8b2f,hnlkxsgfuo,Ex2A_Prolific,1,10,2024-02-28T23:03:17+00:00,1.7319679260254,2,Stim_B.csv,Read.csv,Read,B,fragrance,,Win_8,,,9,Study,User,1.25,,Window,Win_8,1418,,,-1,-1,,,,1
6537f925fee26ff5fdbc8b2f,hnlkxsgfuo,Ex2A_Prolific,1,11,2024-02-28T23:03:18+00:00,1.9551999568939,2,Stim_B.csv,Read.csv,Read,B,nose,,Win_9,,,10,Study,User,1.25,,Window,Win_9,1644,,,-1,-1,,,,1
6537f925fee26ff5fdbc8b2f,hnlkxsgfuo,Ex2A_Prolific,1,12,2024-02-28T23:03:20+00:00,1.9708640575409,2,Stim_B.csv,Read.csv,Read,B,rose,,Win_10,,,11,Study,User,1.25,,Window,Win_10,1663,,,-1,-1,,,,1
6537f925fee26ff5fdbc8b2f,hnlkxsgfuo,Ex2A_Prolific,1,13,2024-02-28T23:03:22+00:00,1.9261729717255,2,Stim_B.csv,Read.csv,Read,B,salts,,Win_11,,,12,Study,User,1.25,,Window,Win_11,1619,,,-1,-1,,,,1
6537f925fee26ff5fdbc8b2f,hnlkxsgfuo,Ex2A_Prolific,1,14,2024-02-28T23:03:24+00:00,1.8114860057831,2,Stim_B.csv,Read.csv,Read,B,breathe,,Win_12,,,13,Study,User,1.25,,Window,Win_12,1483,,,-1,-1,,,,1
6537f925fee26ff5fdbc8b2f,hnlkxsgfuo,Ex2A_Prolific,1,15,2024-02-28T23:03:29+00:00,4.9072940349579,2,Stim_B.csv,Read.csv,Read,B,,,,,,0,Instruct,User,4,"You have completed this section. Please click next.",,Instruct166,4576,,,-1,-1,,,,1
6537f925fee26ff5fdbc8b2f,hnlkxsgfuo,Ex2A_Prolific,1,16,2024-02-28T23:04:00+00:00,30.441737890244,2,Stim_B.csv,Read.csv,Read,B,,,,,,0,FreeRecall,30,30,"Please type as many words as you can that begin with the letter ""K"". The computer will automatically advance to the next screen in 30 seconds.",,FILLER,30000,"Kale Kent kitten kite kelloggs k",0,9505,28359,0,0,,1
6537f925fee26ff5fdbc8b2f,hnlkxsgfuo,Ex2A_Prolific,1,17,2024-02-28T23:04:05+00:00,5.251307964325,2,Stim_B.csv,Read.csv,Read,B,,,,,,0,Instruct,User,4,"You have completed this section. Please click next.",,Instruct166,4927,,,-1,-1,,,,1
6537f925fee26ff5fdbc8b2f,hnlkxsgfuo,Ex2A_Prolific,1,18,2024-02-28T23:04:14+00:00,8.9452090263367,2,Stim_B.csv,Read.csv,Read,B,,,,,,0,Instruct,User,4,"You will now complete a memory test for the words you just studied. Please type as many words from the previous list as you can seperated by a comma. Spelling will not count against you and you can recall the words in any order. This test will be timed for one minute, and the computer will automatically advance once time is up. Click next when you are ready to begin.",,Instruct1666,8475,,,-1,-1,,,,1
6537f925fee26ff5fdbc8b2f,hnlkxsgfuo,Ex2A_Prolific,1,19,2024-02-28T23:05:14+00:00,60.455161094666,2,Stim_B.csv,Read.csv,Read,B,,,,,,0,FreeRecall,60,60,"Please type as many words as you can from the previous study list in any order. Please separate each word with a comma. Spelling will not count against you. This screen will automatically advance in one minute.",,RECALL_Test,60008,"scent, whiff, salts, breathe, rose, reek, perfume, aroma, fragrance, nose, smell, odour",0,1231,46645,0,0,,0.913
6537f925fee26ff5fdbc8b2f,hnlkxsgfuo,Ex2A_Prolific,1,20,2024-02-28T23:05:32+00:00,17.983705043793,2,Stim_B.csv,Read.csv,Read,B,,,,,,0,Instruct,User,3,"You will now be presented with a new study list. Click next when you are ready to begin.",,NEXT_LIST,17533,,,-1,-1,,,,1
6537f925fee26ff5fdbc8b2f,hnlkxsgfuo,Ex2A_Prolific,1,21,2024-02-28T23:05:34+00:00,2.1149790287018,2,Stim_B.csv,Read.csv,Read,B,hard,,R1,,,14,Study,User,1.25,,Rough,R1,1786,,,-1,-1,,,,1
6537f925fee26ff5fdbc8b2f,hnlkxsgfuo,Ex2A_Prolific,1,22,2024-02-28T23:05:36+00:00,1.8836188316345,2,Stim_B.csv,Read.csv,Read,B,loud,,R2,,,15,Study,User,1.25,,Rough,R2,1573,,,-1,-1,,,,1
6537f925fee26ff5fdbc8b2f,hnlkxsgfuo,Ex2A_Prolific,1,23,2024-02-28T23:05:38+00:00,2.0606591701508,2,Stim_B.csv,Read.csv,Read,B,tender,,R3,,,16,Study,User,1.25,,Rough,R3,1752,,,-1,-1,,,,1
6537f925fee26ff5fdbc8b2f,hnlkxsgfuo,Ex2A_Prolific,1,24,2024-02-28T23:05:40+00:00,1.9779779911041,2,Stim_B.csv,Read.csv,Read,B,fluffy,,R4,,,17,Study,User,1.25,,Rough,R4,1665,,,-1,-1,,,,1
6537f925fee26ff5fdbc8b2f,hnlkxsgfuo,Ex2A_Prolific,1,25,2024-02-28T23:05:42+00:00,2.1533558368683,2,Stim_B.csv,Read.csv,Read,B,pillow,,R5,,,18,Study,User,1.25,,Rough,R5,1820,,,-1,-1,,,,1
6537f925fee26ff5fdbc8b2f,hnlkxsgfuo,Ex2A_Prolific,1,26,2024-02-28T23:05:44+00:00,2.0084090232849,2,Stim_B.csv,Read.csv,Read,B,downy,,R6,,,19,Study,User,1.25,,Rough,R6,1687,,,-1,-1,,,,1
6537f925fee26ff5fdbc8b2f,hnlkxsgfuo,Ex2A_Prolific,1,27,2024-02-28T23:05:46+00:00,2.0395710468292,2,Stim_B.csv,Read.csv,Read,B,plush,,R7,,,20,Study,User,1.25,,Rough,R7,1726,,,-1,-1,,,,1
6537f925fee26ff5fdbc8b2f,hnlkxsgfuo,Ex2A_Prolific,1,28,2024-02-28T23:05:48+00:00,2.0452260971069,2,Stim_B.csv,Read.csv,Read,B,cotton,,R8,,,21,Study,User,1.25,,Rough,R8,1710,,,-1,-1,,,,1
6537f925fee26ff5fdbc8b2f,hnlkxsgfuo,Ex2A_Prolific,1,29,2024-02-28T23:05:50+00:00,1.699777841568,2,Stim_B.csv,Read.csv,Read,B,skin,,R9,,,22,Study,User,1.25,,Rough,R9,1387,,,-1,-1,,,,1
6537f925fee26ff5fdbc8b2f,hnlkxsgfuo,Ex2A_Prolific,1,30,2024-02-28T23:05:52+00:00,1.9305920600891,2,Stim_B.csv,Read.csv,Read,B,fur,,R10,,,23,Study,User,1.25,,Rough,R10,1612,,,-1,-1,,,,1
6537f925fee26ff5fdbc8b2f,hnlkxsgfuo,Ex2A_Prolific,1,31,2024-02-28T23:05:54+00:00,1.794851064682,2,Stim_B.csv,Read.csv,Read,B,touch,,R11,,,24,Study,User,1.25,,Rough,R11,1493,,,-1,-1,,,,1
6537f925fee26ff5fdbc8b2f,hnlkxsgfuo,Ex2A_Prolific,1,32,2024-02-28T23:05:56+00:00,1.9385600090027,2,Stim_B.csv,Read.csv,Read,B,furry,,R12,,,25,Study,User,1.25,,Rough,R12,1633,,,-1,-1,,,,1
6537f925fee26ff5fdbc8b2f,hnlkxsgfuo,Ex2A_Prolific,1,33,2024-02-28T23:05:57+00:00,1.3016619682312,2,Stim_B.csv,Read.csv,Read,B,,,,,,0,Instruct,User,-,"You have completed this section. Please click next.",,Instruct166,999,,,-1,-1,,,,1
6537f925fee26ff5fdbc8b2f,hnlkxsgfuo,Ex2A_Prolific,1,34,2024-02-28T23:06:28+00:00,30.446392059326,2,Stim_B.csv,Read.csv,Read,B,,,,,,0,FreeRecall,30,30,"Please type as many words as you can that begin with the letter ""K"". The computer will automatically advance to the next screen in 30 seconds.",,FILLER,30004,"kale kent kitten kite karen kind king k",0,2166,29683,0,0,,0.886
6537f925fee26ff5fdbc8b2f,hnlkxsgfuo,Ex2A_Prolific,1,35,2024-02-28T23:06:28+00:00,0.63841795921326,2,Stim_B.csv,Read.csv,Read,B,,,,,,0,Instruct,User,-,"You have completed this section. Please click next.",,Instruct166,313,,,96,211,,,,1
6537f925fee26ff5fdbc8b2f,hnlkxsgfuo,Ex2A_Prolific,1,36,2024-02-28T23:06:33+00:00,4.7512328624725,2,Stim_B.csv,Read.csv,Read,B,,,,,,0,Instruct,User,4,"You will now complete a memory test for the words you just studied. Please type as many words from the previous list as you can seperated by a comma. Spelling will not count against you and you can recall the words in any order. This test will be timed for one minute, and the computer will automatically advance once time is up. Click next when you are ready to begin.",,Instruct1666,4417,,,-1,-1,,,,1
6537f925fee26ff5fdbc8b2f,hnlkxsgfuo,Ex2A_Prolific,1,37,2024-02-28T23:07:33+00:00,60.479334115982,2,Stim_B.csv,Read.csv,Read,B,,,,,,0,FreeRecall,60,60,"Please type as many words as you can from the previous study list in any order. Please separate each word with a comma. Spelling will not count against you. This screen will automatically advance in one minute.",,RECALL_Test,60005,"fur, fluffy, hard, touch, soft, cotton, furry, pillow, downy, fel",0,1892,59995,0,0,,0.922
6537f925fee26ff5fdbc8b2f,hnlkxsgfuo,Ex2A_Prolific,1,38,2024-02-28T23:07:38+00:00,4.3795418739319,2,Stim_B.csv,Read.csv,Read,B,,,,,,0,Instruct,User,3,"You will now be presented with a new study list. Click next when you are ready to begin.",,NEXT_LIST,3619,,,-1,-1,,,,1
6537f925fee26ff5fdbc8b2f,hnlkxsgfuo,Ex2A_Prolific,1,39,2024-02-28T23:07:40+00:00,2.2412521839142,2,Stim_B.csv,Read.csv,Read,B,honey,,A1,,,26,Study,User,1.25,,Anger,A1,1923,,,-1,-1,,,,1
6537f925fee26ff5fdbc8b2f,hnlkxsgfuo,Ex2A_Prolific,1,40,2024-02-28T23:07:42+00:00,2.1368808746338,2,Stim_B.csv,Read.csv,Read,B,bitter,,A2,,,27,Study,User,1.25,,Anger,A2,1805,,,-1,-1,,,,1
6537f925fee26ff5fdbc8b2f,hnlkxsgfuo,Ex2A_Prolific,1,41,2024-02-28T23:07:44+00:00,1.953684091568,2,Stim_B.csv,Read.csv,Read,B,sugar,,A3,,,28,Study,User,1.25,,Anger,A3,1642,,,-1,-1,,,,1
6537f925fee26ff5fdbc8b2f,hnlkxsgfuo,Ex2A_Prolific,1,42,2024-02-28T23:07:46+00:00,2.2272999286652,2,Stim_B.csv,Read.csv,Read,B,sour,,A4,,,29,Study,User,1.25,,Anger,A4,1915,,,-1,-1,,,,1
6537f925fee26ff5fdbc8b2f,hnlkxsgfuo,Ex2A_Prolific,1,43,2024-02-28T23:08:06+00:00,19.110574960709,2,Stim_B.csv,Read.csv,Read,B,candy,,A5,,,30,Study,User,1.25,,Anger,A5,18642,,,-1,-1,,,,0.774
6537f925fee26ff5fdbc8b2f,hnlkxsgfuo,Ex2A_Prolific,1,44,2024-02-28T23:08:08+00:00,2.0279731750488,2,Stim_B.csv,Read.csv,Read,B,tart,,A6,,,31,Study,User,1.25,,Anger,A6,1694,,,-1,-1,,,,1
6537f925fee26ff5fdbc8b2f,hnlkxsgfuo,Ex2A_Prolific,1,45,2024-02-28T23:08:09+00:00,1.8913099765778,2,Stim_B.csv,Read.csv,Read,B,chocolate,,A7,,,32,Study,User,1.25,,Anger,A7,1573,,,-1,-1,,,,1
6537f925fee26ff5fdbc8b2f,hnlkxsgfuo,Ex2A_Prolific,1,46,2024-02-28T23:08:11+00:00,2.0068619251251,2,Stim_B.csv,Read.csv,Read,B,nice,,A8,,,33,Study,User,1.25,,Anger,A8,1687,,,-1,-1,,,,1
6537f925fee26ff5fdbc8b2f,hnlkxsgfuo,Ex2A_Prolific,1,47,2024-02-28T23:08:13+00:00,1.9583048820496,2,Stim_B.csv,Read.csv,Read,B,taste,,A9,,,34,Study,User,1.25,,Anger,A9,1629,,,-1,-1,,,,1
6537f925fee26ff5fdbc8b2f,hnlkxsgfuo,Ex2A_Prolific,1,48,2024-02-28T23:08:15+00:00,2.0728151798248,2,Stim_B.csv,Read.csv,Read,B,cake,,A10,,,35,Study,User,1.25,,Anger,A10,1708,,,-1,-1,,,,1
6537f925fee26ff5fdbc8b2f,hnlkxsgfuo,Ex2A_Prolific,1,49,2024-02-28T23:08:17+00:00,1.623055934906,2,Stim_B.csv,Read.csv,Read,B,good,,A11,,,36,Study,User,1.25,,Anger,A11,1294,,,-1,-1,,,,1
6537f925fee26ff5fdbc8b2f,hnlkxsgfuo,Ex2A_Prolific,1,50,2024-02-28T23:08:19+00:00,1.8783259391785,2,Stim_B.csv,Read.csv,Read,B,tooth,,A12,,,37,Study,User,1.25,,Anger,A12,1570,,,-1,-1,,,,1
6537f925fee26ff5fdbc8b2f,hnlkxsgfuo,Ex2A_Prolific,1,51,2024-02-28T23:08:24+00:00,5.2669379711151,2,Stim_B.csv,Read.csv,Read,B,,,,,,0,Instruct,User,4,"You have completed this section. Please click next.",,Instruct166,4601,,,-1,-1,,,,1
6537f925fee26ff5fdbc8b2f,hnlkxsgfuo,Ex2A_Prolific,1,52,2024-02-28T23:08:55+00:00,30.448204994202,2,Stim_B.csv,Read.csv,Read,B,,,,,,0,FreeRecall,30,30,"Please type as many words as you can that begin with the letter ""K"". The computer will automatically advance to the next screen in 30 seconds.",,FILLER,30002,"king kind kit kale kitten key karen kin kindred kick",0,1777,29906,0,0,,0.956
6537f925fee26ff5fdbc8b2f,hnlkxsgfuo,Ex2A_Prolific,1,53,2024-02-28T23:09:00+00:00,4.9035170078278,2,Stim_B.csv,Read.csv,Read,B,,,,,,0,Instruct,User,4,"You have completed this section. Please click next.",,Instruct166,4587,,,-1,-1,,,,1
6537f925fee26ff5fdbc8b2f,hnlkxsgfuo,Ex2A_Prolific,1,54,2024-02-28T23:09:05+00:00,5.0795180797577,2,Stim_B.csv,Read.csv,Read,B,,,,,,0,Instruct,User,4,"You will now complete a memory test for the words you just studied. Please type as many words from the previous list as you can seperated by a comma. Spelling will not count against you and you can recall the words in any order. This test will be timed for one minute, and the computer will automatically advance once time is up. Click next when you are ready to begin.",,Instruct1666,4750,,,-1,-1,,,,1
6537f925fee26ff5fdbc8b2f,hnlkxsgfuo,Ex2A_Prolific,1,55,2024-02-28T23:10:05+00:00,60.460525989532,2,Stim_B.csv,Read.csv,Read,B,,,,,,0,FreeRecall,60,60,"Please type as many words as you can from the previous study list in any order. Please separate each word with a comma. Spelling will not count against you. This screen will automatically advance in one minute.",,RECALL_Test,60002,"sugar, honey, sour, chocolate, taste, tongue, hard, bitter",0,1007,21606,0,0,,1
6537f925fee26ff5fdbc8b2f,hnlkxsgfuo,Ex2A_Prolific,1,56,2024-02-28T23:10:12+00:00,7.2175199985504,2,Stim_B.csv,Read.csv,Read,B,,,,,,0,Instruct,User,3,"You will now be presented with a new study list. Click next when you are ready to begin.",,NEXT_LIST,6762,,,-1,-1,,,,1
6537f925fee26ff5fdbc8b2f,hnlkxsgfuo,Ex2A_Prolific,1,57,2024-02-28T23:10:14+00:00,2.1365621089935,2,Stim_B.csv,Read.csv,Read,B,table,,T1,,,38,Study,User,1.25,,Trash,T1,1816,,,-1,-1,,,,1
6537f925fee26ff5fdbc8b2f,hnlkxsgfuo,Ex2A_Prolific,1,58,2024-02-28T23:10:16+00:00,1.9737169742584,2,Stim_B.csv,Read.csv,Read,B,swivel,,T2,,,39,Study,User,1.25,,Trash,T2,1654,,,-1,-1,,,,1
6537f925fee26ff5fdbc8b2f,hnlkxsgfuo,Ex2A_Prolific,1,59,2024-02-28T23:10:18+00:00,1.9928379058838,2,Stim_B.csv,Read.csv,Read,B,rocking,,T3,,,40,Study,User,1.25,,Trash,T3,1670,,,-1,-1,,,,1
6537f925fee26ff5fdbc8b2f,hnlkxsgfuo,Ex2A_Prolific,1,60,2024-02-28T23:10:20+00:00,1.9843189716339,2,Stim_B.csv,Read.csv,Read,B,recliner,,T4,,,41,Study,User,1.25,,Trash,T4,1657,,,-1,-1,,,,1
6537f925fee26ff5fdbc8b2f,hnlkxsgfuo,Ex2A_Prolific,1,61,2024-02-28T23:10:22+00:00,2.0515501499176,2,Stim_B.csv,Read.csv,Read,B,seat,,T5,,,42,Study,User,1.25,,Trash,T5,1718,,,-1,-1,,,,1
6537f925fee26ff5fdbc8b2f,hnlkxsgfuo,Ex2A_Prolific,1,62,2024-02-28T23:10:25+00:00,2.4999308586121,2,Stim_B.csv,Read.csv,Read,B,stool,,T6,,,43,Study,User,1.25,,Trash,T6,2157,,,-1,-1,,,,1
6537f925fee26ff5fdbc8b2f,hnlkxsgfuo,Ex2A_Prolific,1,63,2024-02-28T23:10:27+00:00,2.0047099590302,2,Stim_B.csv,Read.csv,Read,B,desk,,T7,,,44,Study,User,1.25,,Trash,T7,1688,,,-1,-1,,,,1
6537f925fee26ff5fdbc8b2f,hnlkxsgfuo,Ex2A_Prolific,1,64,2024-02-28T23:10:29+00:00,2.0788660049438,2,Stim_B.csv,Read.csv,Read,B,couch,,T8,,,45,Study,User,1.25,,Trash,T8,1764,,,-1,-1,,,,1
6537f925fee26ff5fdbc8b2f,hnlkxsgfuo,Ex2A_Prolific,1,65,2024-02-28T23:10:31+00:00,2.1490280628204,2,Stim_B.csv,Read.csv,Read,B,sit,,T9,,,46,Study,User,1.25,,Trash,T9,1833,,,-1,-1,,,,1
6537f925fee26ff5fdbc8b2f,hnlkxsgfuo,Ex2A_Prolific,1,66,2024-02-28T23:10:33+00:00,1.6266090869904,2,Stim_B.csv,Read.csv,Read,B,sofa,,T10,,,47,Study,User,1.25,,Trash,T10,1298,,,-1,-1,,,,1
6537f925fee26ff5fdbc8b2f,hnlkxsgfuo,Ex2A_Prolific,1,67,2024-02-28T23:10:35+00:00,2.1863849163055,2,Stim_B.csv,Read.csv,Read,B,bench,,T11,,,48,Study,User,1.25,,Trash,T11,1871,,,-1,-1,,,,1
6537f925fee26ff5fdbc8b2f,hnlkxsgfuo,Ex2A_Prolific,1,68,2024-02-28T23:10:37+00:00,2.161966085434,2,Stim_B.csv,Read.csv,Read,B,sitting,,T12,,,49,Study,User,1.25,,Trash,T12,1850,,,-1,-1,,,,1
6537f925fee26ff5fdbc8b2f,hnlkxsgfuo,Ex2A_Prolific,1,69,2024-02-28T23:10:39+00:00,1.3305859565735,2,Stim_B.csv,Read.csv,Read,B,,,,,,0,Instruct,User,-,"You have completed this section. Please click next.",,Instruct166,1012,,,-1,-1,,,,1
6537f925fee26ff5fdbc8b2f,hnlkxsgfuo,Ex2A_Prolific,1,70,2024-02-28T23:11:10+00:00,31.107441902161,2,Stim_B.csv,Read.csv,Read,B,,,,,,0,FreeRecall,30,30,"Please type as many words as you can that begin with the letter ""K"". The computer will automatically advance to the next screen in 30 seconds.",,FILLER,30667,"kind king karen kit key kale kitten kin kindred ",0,1380,13900,0,0,,0.917
6537f925fee26ff5fdbc8b2f,hnlkxsgfuo,Ex2A_Prolific,1,71,2024-02-28T23:11:11+00:00,1.7417500019073,2,Stim_B.csv,Read.csv,Read,B,,,,,,0,Instruct,User,-,"You have completed this section. Please click next.",,Instruct166,1178,,,-1,-1,,,,0.833
6537f925fee26ff5fdbc8b2f,hnlkxsgfuo,Ex2A_Prolific,1,72,2024-02-28T23:11:16+00:00,4.8529760837555,2,Stim_B.csv,Read.csv,Read,B,,,,,,0,Instruct,User,4,"You will now complete a memory test for the words you just studied. Please type as many words from the previous list as you can seperated by a comma. Spelling will not count against you and you can recall the words in any order. This test will be timed for one minute, and the computer will automatically advance once time is up. Click next when you are ready to begin.",,Instruct1666,4529,,,-1,-1,,,,1
6537f925fee26ff5fdbc8b2f,hnlkxsgfuo,Ex2A_Prolific,1,73,2024-02-28T23:12:17+00:00,61.173570871353,2,Stim_B.csv,Read.csv,Read,B,,,,,,0,FreeRecall,60,60,"Please type as many words as you can from the previous study list in any order. Please separate each word with a comma. Spelling will not count against you. This screen will automatically advance in one minute.",,RECALL_Test,60009,"sit, sitting, sofa, couch, chair, swivel, swivelling, table, recliner",0,1095,33145,0,0,,1
6537f925fee26ff5fdbc8b2f,hnlkxsgfuo,Ex2A_Prolific,1,74,2024-02-28T23:12:21+00:00,3.9181301593781,2,Stim_B.csv,Read.csv,Read,B,,,,,,0,Instruct,User,3,"You will now be presented with a new study list. Click next when you are ready to begin.",,NEXT_LIST,3597,,,-1,-1,,,,1
6537f925fee26ff5fdbc8b2f,hnlkxsgfuo,Ex2A_Prolific,1,75,2024-02-28T23:12:23+00:00,2.1514768600464,2,Stim_B.csv,Read.csv,Read,B,climber,,D1,,,50,Study,User,1.25,,Doctor,D1,1821,,,-1,-1,,,,1
6537f925fee26ff5fdbc8b2f,hnlkxsgfuo,Ex2A_Prolific,1,76,2024-02-28T23:12:26+00:00,2.6143810749054,2,Stim_B.csv,Read.csv,Read,B,hill,,D2,,,51,Study,User,1.25,,Doctor,D2,2293,,,-1,-1,,,,1
6537f925fee26ff5fdbc8b2f,hnlkxsgfuo,Ex2A_Prolific,1,77,2024-02-28T23:12:28+00:00,1.680743932724,2,Stim_B.csv,Read.csv,Read,B,climb,,D3,,,52,Study,User,1.25,,Doctor,D3,1354,,,-1,-1,,,,1
6537f925fee26ff5fdbc8b2f,hnlkxsgfuo,Ex2A_Prolific,1,78,2024-02-28T23:12:30+00:00,1.7823171615601,2,Stim_B.csv,Read.csv,Read,B,molehill,,D4,,,53,Study,User,1.25,,Doctor,D4,1447,,,-1,-1,,,,1
6537f925fee26ff5fdbc8b2f,hnlkxsgfuo,Ex2A_Prolific,1,79,2024-02-28T23:12:31+00:00,1.6470789909363,2,Stim_B.csv,Read.csv,Read,B,peak,,D5,,,54,Study,User,1.25,,Doctor,D5,1327,,,-1,-1,,,,1
6537f925fee26ff5fdbc8b2f,hnlkxsgfuo,Ex2A_Prolific,1,80,2024-02-28T23:12:33+00:00,1.6681938171387,2,Stim_B.csv,Read.csv,Read,B,valley,,D6,,,55,Study,User,1.25,,Doctor,D6,1346,,,-1,-1,,,,1
6537f925fee26ff5fdbc8b2f,hnlkxsgfuo,Ex2A_Prolific,1,81,2024-02-28T23:12:35+00:00,1.6835870742798,2,Stim_B.csv,Read.csv,Read,B,summit,,D7,,,56,Study,User,1.25,,Doctor,D7,1383,,,-1,-1,,,,1
6537f925fee26ff5fdbc8b2f,hnlkxsgfuo,Ex2A_Prolific,1,82,2024-02-28T23:12:36+00:00,1.6369309425354,2,Stim_B.csv,Read.csv,Read,B,steep,,D8,,,57,Study,User,1.25,,Doctor,D8,1320,,,-1,-1,,,,1
6537f925fee26ff5fdbc8b2f,hnlkxsgfuo,Ex2A_Prolific,1,83,2024-02-28T23:12:38+00:00,1.9507961273193,2,Stim_B.csv,Read.csv,Read,B,ski,,D9,,,58,Study,User,1.25,,Doctor,D9,1639,,,-1,-1,,,,1
6537f925fee26ff5fdbc8b2f,hnlkxsgfuo,Ex2A_Prolific,1,84,2024-02-28T23:12:40+00:00,1.6661128997803,2,Stim_B.csv,Read.csv,Read,B,bike,,D10,,,59,Study,User,1.25,,Doctor,D10,1349,,,-1,-1,,,,1
6537f925fee26ff5fdbc8b2f,hnlkxsgfuo,Ex2A_Prolific,1,85,2024-02-28T23:12:42+00:00,1.9148490428925,2,Stim_B.csv,Read.csv,Read,B,goat,,D11,,,60,Study,User,1.25,,Doctor,D11,1579,,,-1,-1,,,,1
6537f925fee26ff5fdbc8b2f,hnlkxsgfuo,Ex2A_Prolific,1,86,2024-02-28T23:12:43+00:00,1.7258110046387,2,Stim_B.csv,Read.csv,Read,B,glacier,,D12,,,61,Study,User,1.25,,Doctor,D12,1404,,,-1,-1,,,,1
6537f925fee26ff5fdbc8b2f,hnlkxsgfuo,Ex2A_Prolific,1,87,2024-02-28T23:12:48+00:00,4.8825840950012,2,Stim_B.csv,Read.csv,Read,B,,,,,,0,Instruct,User,4,"You have completed this section. Please click next.",,Instruct166,4564,,,-1,-1,,,,1
6537f925fee26ff5fdbc8b2f,hnlkxsgfuo,Ex2A_Prolific,1,88,2024-02-28T23:13:19+00:00,30.445463895798,2,Stim_B.csv,Read.csv,Read,B,,,,,,0,FreeRecall,30,30,"Please type as many words as you can that begin with the letter ""K"". The computer will automatically advance to the next screen in 30 seconds.",,FILLER,30003,"kind king karen kid kit kin kindred kill keith knight kangaroo ",0,1229,26716,0,0,,0.956
6537f925fee26ff5fdbc8b2f,hnlkxsgfuo,Ex2A_Prolific,1,89,2024-02-28T23:13:40+00:00,21.613203048706,2,Stim_B.csv,Read.csv,Read,B,,,,,,0,Instruct,User,4,"You have completed this section. Please click next.",,Instruct166,21162,,,-1,-1,,,,0.5
6537f925fee26ff5fdbc8b2f,hnlkxsgfuo,Ex2A_Prolific,1,90,2024-02-28T23:13:45+00:00,5.0741748809814,2,Stim_B.csv,Read.csv,Read,B,,,,,,0,Instruct,User,4,"You will now complete a memory test for the words you just studied. Please type as many words from the previous list as you can seperated by a comma. Spelling will not count against you and you can recall the words in any order. This test will be timed for one minute, and the computer will automatically advance once time is up. Click next when you are ready to begin.",,Instruct1666,4746,,,-1,-1,,,,1
6537f925fee26ff5fdbc8b2f,hnlkxsgfuo,Ex2A_Prolific,1,91,2024-02-28T23:14:46+00:00,60.455656051636,2,Stim_B.csv,Read.csv,Read,B,,,,,,0,FreeRecall,60,60,"Please type as many words as you can from the previous study list in any order. Please separate each word with a comma. Spelling will not count against you. This screen will automatically advance in one minute.",,RECALL_Test,60007,"glacier, climb, climber, ski, steep, hill, molehill, mountain, goat, ",0,900,28615,0,0,,1
6537f925fee26ff5fdbc8b2f,hnlkxsgfuo,Ex2A_Prolific,1,92,2024-02-28T23:14:52+00:00,6.3987340927124,2,Stim_B.csv,Read.csv,Read,B,,,,,,0,Instruct,User,3,"You will now be presented with a new study list. Click next when you are ready to begin.",,NEXT_LIST,5949,,,-1,-1,,,,1
6537f925fee26ff5fdbc8b2f,hnlkxsgfuo,Ex2A_Prolific,1,93,2024-02-28T23:15:23+00:00,30.97207403183,2,Stim_B.csv,Read.csv,Read,B,band,,S1,,,62,Study,User,1.25,,Slow,S1,30542,,,-1,-1,,,,1
6537f925fee26ff5fdbc8b2f,hnlkxsgfuo,Ex2A_Prolific,1,94,2024-02-28T23:15:45+00:00,22.071542024612,2,Stim_B.csv,Read.csv,Read,B,concert,,S2,,,63,Study,User,1.25,,Slow,S2,21626,,,-1,-1,,,,1
6537f925fee26ff5fdbc8b2f,hnlkxsgfuo,Ex2A_Prolific,1,95,2024-02-28T23:15:49+00:00,3.8165760040283,2,Stim_B.csv,Read.csv,Read,B,jazz,,S3,,,64,Study,User,1.25,,Slow,S3,3480,,,-1,-1,,,,1
6537f925fee26ff5fdbc8b2f,hnlkxsgfuo,Ex2A_Prolific,1,96,2024-02-28T23:15:59+00:00,10.143682956696,2,Stim_B.csv,Read.csv,Read,B,symphony,,S4,,,65,Study,User,1.25,,Slow,S4,9693,,,-1,-1,,,,1
6537f925fee26ff5fdbc8b2f,hnlkxsgfuo,Ex2A_Prolific,1,97,2024-02-28T23:16:02+00:00,2.7892189025879,2,Stim_B.csv,Read.csv,Read,B,orchestra,,S5,,,66,Study,User,1.25,,Slow,S5,2468,,,-1,-1,,,,1
6537f925fee26ff5fdbc8b2f,hnlkxsgfuo,Ex2A_Prolific,1,98,2024-02-28T23:16:04+00:00,2.3691749572754,2,Stim_B.csv,Read.csv,Read,B,rhythm,,S6,,,67,Study,User,1.25,,Slow,S6,2045,,,-1,-1,,,,1
6537f925fee26ff5fdbc8b2f,hnlkxsgfuo,Ex2A_Prolific,1,99,2024-02-28T23:16:19+00:00,14.292281150818,2,Stim_B.csv,Read.csv,Read,B,radio,,S7,,,68,Study,User,1.25,,Slow,S7,13854,,,-1,-1,,,,1
6537f925fee26ff5fdbc8b2f,hnlkxsgfuo,Ex2A_Prolific,1,100,2024-02-28T23:16:51+00:00,32.07555103302,2,Stim_B.csv,Read.csv,Read,B,melody,,S8,,,69,Study,User,1.25,,Slow,S8,31628,,,-1,-1,,,,1
6537f925fee26ff5fdbc8b2f,hnlkxsgfuo,Ex2A_Prolific,1,101,2024-02-28T23:16:53+00:00,2.1149609088898,2,Stim_B.csv,Read.csv,Read,B,piano,,S9,,,70,Study,User,1.25,,Slow,S9,1802,,,-1,-1,,,,1
6537f925fee26ff5fdbc8b2f,hnlkxsgfuo,Ex2A_Prolific,1,102,2024-02-28T23:16:55+00:00,2.0018680095673,2,Stim_B.csv,Read.csv,Read,B,sound,,S10,,,71,Study,User,1.25,,Slow,S10,1685,,,-1,-1,,,,1
6537f925fee26ff5fdbc8b2f,hnlkxsgfuo,Ex2A_Prolific,1,103,2024-02-28T23:16:57+00:00,2.3855149745941,2,Stim_B.csv,Read.csv,Read,B,instrument,,S11,,,72,Study,User,1.25,,Slow,S11,1681,,,-1,-1,,,,1
6537f925fee26ff5fdbc8b2f,hnlkxsgfuo,Ex2A_Prolific,1,104,2024-02-28T23:17:00+00:00,2.5192089080811,2,Stim_B.csv,Read.csv,Read,B,note,,S12,,,73,Study,User,1.25,,Slow,S12,2199,,,-1,-1,,,,1
6537f925fee26ff5fdbc8b2f,hnlkxsgfuo,Ex2A_Prolific,1,105,2024-02-28T23:17:01+00:00,1.20250415802,2,Stim_B.csv,Read.csv,Read,B,,,,,,0,Instruct,User,-,"You have completed this section. Please click next.",,Instruct166,888,,,-1,-1,,,,1
6537f925fee26ff5fdbc8b2f,hnlkxsgfuo,Ex2A_Prolific,1,106,2024-02-28T23:17:32+00:00,30.715215921402,2,Stim_B.csv,Read.csv,Read,B,,,,,,0,FreeRecall,30,30,"Please type as many words as you can that begin with the letter ""K"". The computer will automatically advance to the next screen in 30 seconds.",,FILLER,30291,,0,-1,-1,0,0,,0.114
6537f925fee26ff5fdbc8b2f,hnlkxsgfuo,Ex2A_Prolific,1,107,2024-02-28T23:17:46+00:00,13.933361053467,2,Stim_B.csv,Read.csv,Read,B,,,,,,0,Instruct,User,-,"You have completed this section. Please click next.",,Instruct166,13463,,,-1,-1,,,,0.316
6537f925fee26ff5fdbc8b2f,hnlkxsgfuo,Ex2A_Prolific,1,108,2024-02-28T23:17:51+00:00,5.0795910358429,2,Stim_B.csv,Read.csv,Read,B,,,,,,0,Instruct,User,4,"You will now complete a memory test for the words you just studied. Please type as many words from the previous list as you can seperated by a comma. Spelling will not count against you and you can recall the words in any order. This test will be timed for one minute, and the computer will automatically advance once time is up. Click next when you are ready to begin.",,Instruct1666,4760,,,-1,-1,,,,1
6537f925fee26ff5fdbc8b2f,hnlkxsgfuo,Ex2A_Prolific,1,109,2024-02-28T23:18:52+00:00,60.826802015305,2,Stim_B.csv,Read.csv,Read,B,,,,,,0,FreeRecall,60,60,"Please type as many words as you can from the previous study list in any order. Please separate each word with a comma. Spelling will not count against you. This screen will automatically advance in one minute.",,RECALL_Test,60004,"band, concert, jazz, instrument, melody, note, music, orchestra, ",0,1519,25495,0,0,,1
6537f925fee26ff5fdbc8b2f,hnlkxsgfuo,Ex2A_Prolific,1,110,2024-02-28T23:20:29+00:00,97.235560894012,2,Stim_B.csv,Read.csv,Read,B,,,,,,0,Instruct,User,3,"You will now be presented with a new study list. Click next when you are ready to begin.",,NEXT_LIST,96792,,,-1,-1,,,,1
6537f925fee26ff5fdbc8b2f,hnlkxsgfuo,Ex2A_Prolific,1,111,2024-02-28T23:20:31+00:00,2.0867900848389,2,Stim_B.csv,Read.csv,Read,B,foam,,RR1,,,74,Study,User,1.25,,River,RR1,1748,,,-1,-1,,,,1
6537f925fee26ff5fdbc8b2f,hnlkxsgfuo,Ex2A_Prolific,1,112,2024-02-28T23:20:33+00:00,1.9884779453278,2,Stim_B.csv,Read.csv,Read,B,latex,,RR2,,,75,Study,User,1.25,,River,RR2,1662,,,-1,-1,,,,1
6537f925fee26ff5fdbc8b2f,hnlkxsgfuo,Ex2A_Prolific,1,113,2024-02-28T23:20:49+00:00,15.802042007446,2,Stim_B.csv,Read.csv,Read,B,galoshes,,RR3,,,76,Study,User,1.25,,River,RR3,14880,,,-1,-1,,,,1
6537f925fee26ff5fdbc8b2f,hnlkxsgfuo,Ex2A_Prolific,1,114,2024-02-28T23:20:53+00:00,3.8905558586121,2,Stim_B.csv,Read.csv,Read,B,tire,,RR4,,,77,Study,User,1.25,,River,RR4,3578,,,-1,-1,,,,1
6537f925fee26ff5fdbc8b2f,hnlkxsgfuo,Ex2A_Prolific,1,115,2024-02-28T23:20:56+00:00,3.8589351177216,2,Stim_B.csv,Read.csv,Read,B,flexible,,RR5,,,78,Study,User,1.25,,River,RR5,3547,,,-1,-1,,,,1
6537f925fee26ff5fdbc8b2f,hnlkxsgfuo,Ex2A_Prolific,1,116,2024-02-28T23:21:00+00:00,3.280816078186,2,Stim_B.csv,Read.csv,Read,B,elastic,,RR6,,,79,Study,User,1.25,,River,RR6,2979,,,-1,-1,,,,1
6537f925fee26ff5fdbc8b2f,hnlkxsgfuo,Ex2A_Prolific,1,117,2024-02-28T23:21:03+00:00,2.9623379707336,2,Stim_B.csv,Read.csv,Read,B,gloves,,RR7,,,80,Study,User,1.25,,River,RR7,2649,,,-1,-1,,,,1
6537f925fee26ff5fdbc8b2f,hnlkxsgfuo,Ex2A_Prolific,1,118,2024-02-28T23:21:06+00:00,2.8441028594971,2,Stim_B.csv,Read.csv,Read,B,eraser,,RR8,,,81,Study,User,1.25,,River,RR8,2531,,,-1,-1,,,,1
6537f925fee26ff5fdbc8b2f,hnlkxsgfuo,Ex2A_Prolific,1,119,2024-02-28T23:21:09+00:00,3.2630500793457,2,Stim_B.csv,Read.csv,Read,B,bounce,,RR9,,,82,Study,User,1.25,,River,RR9,2952,,,-1,-1,,,,1
6537f925fee26ff5fdbc8b2f,hnlkxsgfuo,Ex2A_Prolific,1,120,2024-02-28T23:21:12+00:00,2.9132630825043,2,Stim_B.csv,Read.csv,Read,B,ball,,RR10,,,83,Study,User,1.25,,River,RR10,2602,,,-1,-1,,,,1
6537f925fee26ff5fdbc8b2f,hnlkxsgfuo,Ex2A_Prolific,1,121,2024-02-28T23:21:15+00:00,2.8189718723297,2,Stim_B.csv,Read.csv,Read,B,soles,,RR11,,,84,Study,User,1.25,,River,RR11,2504,,,-1,-1,,,,1
6537f925fee26ff5fdbc8b2f,hnlkxsgfuo,Ex2A_Prolific,1,122,2024-02-28T23:21:18+00:00,3.4647860527039,2,Stim_B.csv,Read.csv,Read,B,springy,,RR12,,,85,Study,User,1.25,,River,RR12,3155,,,-1,-1,,,,1
6537f925fee26ff5fdbc8b2f,hnlkxsgfuo,Ex2A_Prolific,1,123,2024-02-28T23:21:49+00:00,31.353152036667,2,Stim_B.csv,Read.csv,Read,B,,,,,,0,Instruct,User,4,"You have completed this section. Please click next.",,Instruct166,30914,,,-1,-1,,,,0.509
6537f925fee26ff5fdbc8b2f,hnlkxsgfuo,Ex2A_Prolific,1,124,2024-02-28T23:22:20+00:00,30.523942947388,2,Stim_B.csv,Read.csv,Read,B,,,,,,0,FreeRecall,30,30,"Please type as many words as you can that begin with the letter ""K"". The computer will automatically advance to the next screen in 30 seconds.",,FILLER,30007,"kind king kite kale kitten kin kindred kangaroo kill killswitch ki",0,1183,30000,0,0,,1
6537f925fee26ff5fdbc8b2f,hnlkxsgfuo,Ex2A_Prolific,1,125,2024-02-28T23:22:22+00:00,1.9951570034027,2,Stim_B.csv,Read.csv,Read,B,,,,,,0,Instruct,User,-,"You have completed this section. Please click next.",,Instruct166,1662,,,-1,-1,,,,1
6537f925fee26ff5fdbc8b2f,hnlkxsgfuo,Ex2A_Prolific,1,126,2024-02-28T23:22:26+00:00,4.4185280799866,2,Stim_B.csv,Read.csv,Read,B,,,,,,0,Instruct,User,4,"You will now complete a memory test for the words you just studied. Please type as many words from the previous list as you can seperated by a comma. Spelling will not count against you and you can recall the words in any order. This test will be timed for one minute, and the computer will automatically advance once time is up. Click next when you are ready to begin.",,Instruct1666,4088,,,-1,-1,,,,1
6537f925fee26ff5fdbc8b2f,hnlkxsgfuo,Ex2A_Prolific,1,127,2024-02-28T23:23:27+00:00,60.457211017609,2,Stim_B.csv,Read.csv,Read,B,,,,,,0,FreeRecall,60,60,"Please type as many words as you can from the previous study list in any order. Please separate each word with a comma. Spelling will not count against you. This screen will automatically advance in one minute.",,RECALL_Test,60006,"foam, latex, golashes, bounce, ball, soles,springs,tire, flexible,gloves",0,2058,29833,0,0,,1
6537f925fee26ff5fdbc8b2f,hnlkxsgfuo,Ex2A_Prolific,1,128,2024-02-28T23:23:39+00:00,12.257936000824,2,Stim_B.csv,Read.csv,Read,B,,,,,,0,Instruct,User,3,"You will now be presented with a new study list. Click next when you are ready to begin.",,NEXT_LIST,11795,,,-1,-1,,,,1
6537f925fee26ff5fdbc8b2f,hnlkxsgfuo,Ex2A_Prolific,1,129,2024-02-28T23:23:50+00:00,11.119256973267,2,Stim_B.csv,Read.csv,Read,B,toe,,B1,,,86,Study,User,1.25,,Bread,B1,10675,,,-1,-1,,,,1
6537f925fee26ff5fdbc8b2f,hnlkxsgfuo,Ex2A_Prolific,1,130,2024-02-28T23:24:14+00:00,24.068642854691,2,Stim_B.csv,Read.csv,Read,B,inch,,B2,,,87,Study,User,1.25,,Bread,B2,23617,,,-1,-1,,,,1
6537f925fee26ff5fdbc8b2f,hnlkxsgfuo,Ex2A_Prolific,1,131,2024-02-28T23:24:17+00:00,2.8552670478821,2,Stim_B.csv,Read.csv,Read,B,ankle,,B3,,,88,Study,User,1.25,,Bread,B3,2530,,,-1,-1,,,,1
6537f925fee26ff5fdbc8b2f,hnlkxsgfuo,Ex2A_Prolific,1,132,2024-02-28T23:24:20+00:00,2.7899770736694,2,Stim_B.csv,Read.csv,Read,B,shoe,,B4,,,89,Study,User,1.25,,Bread,B4,2448,,,-1,-1,,,,1
6537f925fee26ff5fdbc8b2f,hnlkxsgfuo,Ex2A_Prolific,1,133,2024-02-28T23:24:23+00:00,3.3017730712891,2,Stim_B.csv,Read.csv,Read,B,sandals,,B5,,,90,Study,User,1.25,,Bread,B5,2980,,,-1,-1,,,,1
6537f925fee26ff5fdbc8b2f,hnlkxsgfuo,Ex2A_Prolific,1,134,2024-02-28T23:24:26+00:00,2.6050209999084,2,Stim_B.csv,Read.csv,Read,B,sock,,B6,,,91,Study,User,1.25,,Bread,B6,2281,,,-1,-1,,,,1
6537f925fee26ff5fdbc8b2f,hnlkxsgfuo,Ex2A_Prolific,1,135,2024-02-28T23:24:28+00:00,2.5081210136414,2,Stim_B.csv,Read.csv,Read,B,hand,,B7,,,92,Study,User,1.25,,Bread,B7,2193,,,-1,-1,,,,1
6537f925fee26ff5fdbc8b2f,hnlkxsgfuo,Ex2A_Prolific,1,136,2024-02-28T23:24:31+00:00,2.7651228904724,2,Stim_B.csv,Read.csv,Read,B,boot,,B8,,,93,Study,User,1.25,,Bread,B8,2447,,,-1,-1,,,,1
6537f925fee26ff5fdbc8b2f,hnlkxsgfuo,Ex2A_Prolific,1,137,2024-02-28T23:24:34+00:00,2.5757009983063,2,Stim_B.csv,Read.csv,Read,B,yard,,B9,,,94,Study,User,1.25,,Bread,B9,2258,,,-1,-1,,,,1
6537f925fee26ff5fdbc8b2f,hnlkxsgfuo,Ex2A_Prolific,1,138,2024-02-28T23:24:36+00:00,2.6719379425049,2,Stim_B.csv,Read.csv,Read,B,kick,,B10,,,95,Study,User,1.25,,Bread,B10,2340,,,-1,-1,,,,1
6537f925fee26ff5fdbc8b2f,hnlkxsgfuo,Ex2A_Prolific,1,139,2024-02-28T23:24:39+00:00,3.1809411048889,2,Stim_B.csv,Read.csv,Read,B,knee,,B11,,,96,Study,User,1.25,,Bread,B11,2864,,,-1,-1,,,,1
6537f925fee26ff5fdbc8b2f,hnlkxsgfuo,Ex2A_Prolific,1,140,2024-02-28T23:24:41+00:00,1.5754039287567,2,Stim_B.csv,Read.csv,Read,B,walk,,B12,,,97,Study,User,1.25,,Bread,B12,1262,,,-1,-1,,,,1
6537f925fee26ff5fdbc8b2f,hnlkxsgfuo,Ex2A_Prolific,1,141,2024-02-28T23:24:46+00:00,4.7914519309998,2,Stim_B.csv,Read.csv,Read,B,,,,,,0,Instruct,User,4,"You have completed this section. Please click next.",,Instruct166,4463,,,-1,-1,,,,1
6537f925fee26ff5fdbc8b2f,hnlkxsgfuo,Ex2A_Prolific,1,142,2024-02-28T23:25:16+00:00,30.447985172272,2,Stim_B.csv,Read.csv,Read,B,,,,,,0,FreeRecall,30,30,"Please type as many words as you can that begin with the letter ""K"". The computer will automatically advance to the next screen in 30 seconds.",,FILLER,30003,"kind king kite kale kitten kin kindred kangaroo kill killswitch killer kilo",0,6200,7970,0,0,,1
6537f925fee26ff5fdbc8b2f,hnlkxsgfuo,Ex2A_Prolific,1,143,2024-02-28T23:30:31+00:00,314.42466282845,2,Stim_B.csv,Read.csv,Read,B,,,,,,0,Instruct,User,4,"You have completed this section. Please click next.",,Instruct166,313971,,,-1,-1,,,,1
6537f925fee26ff5fdbc8b2f,hnlkxsgfuo,Ex2A_Prolific,1,144,2024-02-28T23:30:36+00:00,4.7986431121826,2,Stim_B.csv,Read.csv,Read,B,,,,,,0,Instruct,User,4,"You will now complete a memory test for the words you just studied. Please type as many words from the previous list as you can seperated by a comma. Spelling will not count against you and you can recall the words in any order. This test will be timed for one minute, and the computer will automatically advance once time is up. Click next when you are ready to begin.",,Instruct1666,4461,,,-1,-1,,,,1
6537f925fee26ff5fdbc8b2f,hnlkxsgfuo,Ex2A_Prolific,1,145,2024-02-28T23:31:36+00:00,60.458402872086,2,Stim_B.csv,Read.csv,Read,B,,,,,,0,FreeRecall,60,60,"Please type as many words as you can from the previous study list in any order. Please separate each word with a comma. Spelling will not count against you. This screen will automatically advance in one minute.",,RECALL_Test,60001,"toe, inch, shoe, ankle, sandals, sock, boot, hand, kick, knee",0,4241,27176,0,0,,1
6537f925fee26ff5fdbc8b2f,hnlkxsgfuo,Ex2A_Prolific,1,146,2024-02-28T23:34:16+00:00,159.62058711052,2,Stim_B.csv,Read.csv,Read,B,,,,,,0,Instruct,User,3,"You will now be presented with a new study list. Click next when you are ready to begin.",,NEXT_LIST,159164,,,-1,-1,,,,1
6537f925fee26ff5fdbc8b2f,hnlkxsgfuo,Ex2A_Prolific,1,147,2024-02-28T23:34:20+00:00,4.4133250713348,2,Stim_B.csv,Read.csv,Read,B,boy,,F1,,,98,Study,User,1.25,,Flag,F1,4065,,,-1,-1,,,,1
6537f925fee26ff5fdbc8b2f,hnlkxsgfuo,Ex2A_Prolific,1,148,2024-02-28T23:34:23+00:00,2.9024770259857,2,Stim_B.csv,Read.csv,Read,B,dolls,,F2,,,99,Study,User,1.25,,Flag,F2,2580,,,-1,-1,,,,1
6537f925fee26ff5fdbc8b2f,hnlkxsgfuo,Ex2A_Prolific,1,149,2024-02-28T23:34:27+00:00,3.8567779064178,2,Stim_B.csv,Read.csv,Read,B,pretty,,F3,,,100,Study,User,1.25,,Flag,F3,3528,,,-1,-1,,,,1
6537f925fee26ff5fdbc8b2f,hnlkxsgfuo,Ex2A_Prolific,1,150,2024-02-28T23:34:30+00:00,3.2645239830017,2,Stim_B.csv,Read.csv,Read,B,female,,F4,,,101,Study,User,1.25,,Flag,F4,2953,,,-1,-1,,,,1
6537f925fee26ff5fdbc8b2f,hnlkxsgfuo,Ex2A_Prolific,1,151,2024-02-28T23:34:33+00:00,3.2713239192963,2,Stim_B.csv,Read.csv,Read,B,dress,,F5,,,102,Study,User,1.25,,Flag,F5,2959,,,-1,-1,,,,1
6537f925fee26ff5fdbc8b2f,hnlkxsgfuo,Ex2A_Prolific,1,152,2024-02-28T23:34:37+00:00,3.3735961914062,2,Stim_B.csv,Read.csv,Read,B,date,,F6,,,103,Study,User,1.25,,Flag,F6,3057,,,-1,-1,,,,1
6537f925fee26ff5fdbc8b2f,hnlkxsgfuo,Ex2A_Prolific,1,153,2024-02-28T23:34:41+00:00,4.0088548660278,2,Stim_B.csv,Read.csv,Read,B,beautiful,,F7,,,104,Study,User,1.25,,Flag,F7,3688,,,-1,-1,,,,1
6537f925fee26ff5fdbc8b2f,hnlkxsgfuo,Ex2A_Prolific,1,154,2024-02-28T23:34:45+00:00,4.7358751296997,2,Stim_B.csv,Read.csv,Read,B,daughter,,F8,,,105,Study,User,1.25,,Flag,F8,3943,,,-1,-1,,,,1
6537f925fee26ff5fdbc8b2f,hnlkxsgfuo,Ex2A_Prolific,1,155,2024-02-28T23:34:48+00:00,2.40855884552,2,Stim_B.csv,Read.csv,Read,B,sister,,F9,,,106,Study,User,1.25,,Flag,F9,2090,,,-1,-1,,,,1
6537f925fee26ff5fdbc8b2f,hnlkxsgfuo,Ex2A_Prolific,1,156,2024-02-28T23:34:50+00:00,2.5571460723877,2,Stim_B.csv,Read.csv,Read,B,cute,,F10,,,107,Study,User,1.25,,Flag,F10,2233,,,-1,-1,,,,1
6537f925fee26ff5fdbc8b2f,hnlkxsgfuo,Ex2A_Prolific,1,157,2024-02-28T23:34:54+00:00,3.449893951416,2,Stim_B.csv,Read.csv,Read,B,niece,,F11,,,108,Study,User,1.25,,Flag,F11,3129,,,-1,-1,,,,1
6537f925fee26ff5fdbc8b2f,hnlkxsgfuo,Ex2A_Prolific,1,158,2024-02-28T23:34:55+00:00,1.6231379508972,2,Stim_B.csv,Read.csv,Read,B,young,,F12,,,109,Study,User,1.25,,Flag,F12,1300,,,-1,-1,,,,1
6537f925fee26ff5fdbc8b2f,hnlkxsgfuo,Ex2A_Prolific,1,159,2024-02-28T23:34:57+00:00,1.1702539920807,2,Stim_B.csv,Read.csv,Read,B,,,,,,0,Instruct,User,-,"You have completed this section. Please click next.",,Instruct166,863,,,-1,-1,,,,1
6537f925fee26ff5fdbc8b2f,hnlkxsgfuo,Ex2A_Prolific,1,160,2024-02-28T23:35:27+00:00,30.459583997726,2,Stim_B.csv,Read.csv,Read,B,,,,,,0,FreeRecall,30,30,"Please type as many words as you can that begin with the letter ""K"". The computer will automatically advance to the next screen in 30 seconds.",,FILLER,30004,"kind king kite kale kitten kin kindred kangaroo kill killswitch killer kilo",0,-1,-1,0,0,,1
6537f925fee26ff5fdbc8b2f,hnlkxsgfuo,Ex2A_Prolific,1,161,2024-02-28T23:37:19+00:00,111.72737812996,2,Stim_B.csv,Read.csv,Read,B,,,,,,0,Instruct,User,-,"You have completed this section. Please click next.",,Instruct166,111288,,,-1,-1,,,,1
6537f925fee26ff5fdbc8b2f,hnlkxsgfuo,Ex2A_Prolific,1,162,2024-02-28T23:37:24+00:00,4.8771409988403,2,Stim_B.csv,Read.csv,Read,B,,,,,,0,Instruct,User,4,"You will now complete a memory test for the words you just studied. Please type as many words from the previous list as you can seperated by a comma. Spelling will not count against you and you can recall the words in any order. This test will be timed for one minute, and the computer will automatically advance once time is up. Click next when you are ready to begin.",,Instruct1666,4557,,,-1,-1,,,,1
6537f925fee26ff5fdbc8b2f,hnlkxsgfuo,Ex2A_Prolific,1,163,2024-02-28T23:38:24+00:00,60.456692934036,2,Stim_B.csv,Read.csv,Read,B,,,,,,0,FreeRecall,60,60,"Please type as many words as you can from the previous study list in any order. Please separate each word with a comma. Spelling will not count against you. This screen will automatically advance in one minute.",,RECALL_Test,60007,"boy, dolls, young, niece, daughter, sister, beautiful, cute, pretty, dress",0,16147,36087,0,0,,1
6537f925fee26ff5fdbc8b2f,hnlkxsgfuo,Ex2A_Prolific,1,164,2024-02-28T23:39:41+00:00,76.565514087677,2,Stim_B.csv,Read.csv,Read,B,,,,,,0,Instruct,User,3,"You will now be presented with a new study list. Click next when you are ready to begin.",,NEXT_LIST,76071,,,-1,-1,,,,1
6537f925fee26ff5fdbc8b2f,hnlkxsgfuo,Ex2A_Prolific,1,165,2024-02-28T23:39:46+00:00,5.617723941803,2,Stim_B.csv,Read.csv,Read,B,white,,SS1,,,110,Study,User,1.25,,Shirt,SS1,5178,,,-1,-1,,,,1
6537f925fee26ff5fdbc8b2f,hnlkxsgfuo,Ex2A_Prolific,1,166,2024-02-28T23:40:03+00:00,16.695008993149,2,Stim_B.csv,Read.csv,Read,B,gray,,SS2,,,111,Study,User,1.25,,Shirt,SS2,16254,,,-1,-1,,,,1
6537f925fee26ff5fdbc8b2f,hnlkxsgfuo,Ex2A_Prolific,1,167,2024-02-28T23:40:07+00:00,3.764396905899,2,Stim_B.csv,Read.csv,Read,B,brown,,SS3,,,112,Study,User,1.25,,Shirt,SS3,3439,,,-1,-1,,,,1
6537f925fee26ff5fdbc8b2f,hnlkxsgfuo,Ex2A_Prolific,1,168,2024-02-28T23:40:10+00:00,2.931921005249,2,Stim_B.csv,Read.csv,Read,B,coal,,SS4,,,113,Study,User,1.25,,Shirt,SS4,2610,,,-1,-1,,,,1
6537f925fee26ff5fdbc8b2f,hnlkxsgfuo,Ex2A_Prolific,1,169,2024-02-28T23:40:13+00:00,2.8731260299683,2,Stim_B.csv,Read.csv,Read,B,dark,,SS5,,,114,Study,User,1.25,,Shirt,SS5,2554,,,-1,-1,,,,1
6537f925fee26ff5fdbc8b2f,hnlkxsgfuo,Ex2A_Prolific,1,170,2024-02-28T23:42:29+00:00,136.90383315086,2,Stim_B.csv,Read.csv,Read,B,color,,SS6,,,115,Study,User,1.25,,Shirt,SS6,136412,,,-1,-1,,,,1
6537f925fee26ff5fdbc8b2f,hnlkxsgfuo,Ex2A_Prolific,1,171,2024-02-28T23:42:33+00:00,3.9286270141602,2,Stim_B.csv,Read.csv,Read,B,funeral,,SS7,,,116,Study,User,1.25,,Shirt,SS7,3602,,,-1,-1,,,,1
6537f925fee26ff5fdbc8b2f,hnlkxsgfuo,Ex2A_Prolific,1,172,2024-02-28T23:42:36+00:00,2.8453547954559,2,Stim_B.csv,Read.csv,Read,B,blue,,SS8,,,117,Study,User,1.25,,Shirt,SS8,2525,,,-1,-1,,,,1
6537f925fee26ff5fdbc8b2f,hnlkxsgfuo,Ex2A_Prolific,1,173,2024-02-28T23:42:40+00:00,3.6151881217957,2,Stim_B.csv,Read.csv,Read,B,charred,,SS9,,,118,Study,User,1.25,,Shirt,SS9,3299,,,-1,-1,,,,1
6537f925fee26ff5fdbc8b2f,hnlkxsgfuo,Ex2A_Prolific,1,174,2024-02-28T23:42:42+00:00,2.5963430404663,2,Stim_B.csv,Read.csv,Read,B,ink,,SS10,,,119,Study,User,1.25,,Shirt,SS10,2283,,,-1,-1,,,,1
6537f925fee26ff5fdbc8b2f,hnlkxsgfuo,Ex2A_Prolific,1,175,2024-02-28T23:42:45+00:00,2.9564929008484,2,Stim_B.csv,Read.csv,Read,B,death,,SS11,,,120,Study,User,1.25,,Shirt,SS11,2663,,,-1,-1,,,,1
6537f925fee26ff5fdbc8b2f,hnlkxsgfuo,Ex2A_Prolific,1,176,2024-02-28T23:42:48+00:00,2.609521150589,2,Stim_B.csv,Read.csv,Read,B,cat,,SS12,,,121,Study,User,1.25,,Shirt,SS12,2279,,,-1,-1,,,,1
6537f925fee26ff5fdbc8b2f,hnlkxsgfuo,Ex2A_Prolific,1,177,2024-02-28T23:42:53+00:00,4.6892738342285,2,Stim_B.csv,Read.csv,Read,B,,,,,,0,Instruct,User,4,"You have completed this section. Please click next.",,Instruct166,4375,,,-1,-1,,,,1
6537f925fee26ff5fdbc8b2f,hnlkxsgfuo,Ex2A_Prolific,1,178,2024-02-28T23:43:23+00:00,30.469501972198,2,Stim_B.csv,Read.csv,Read,B,,,,,,0,FreeRecall,30,30,"Please type as many words as you can that begin with the letter ""K"". The computer will automatically advance to the next screen in 30 seconds.",,FILLER,30007,"kind king kite kale kitten kin kindred kangaroo kill killswitch killer kilo",0,-1,-1,0,0,,1
6537f925fee26ff5fdbc8b2f,hnlkxsgfuo,Ex2A_Prolific,1,179,2024-02-28T23:43:26+00:00,2.5510611534119,2,Stim_B.csv,Read.csv,Read,B,,,,,,0,Instruct,User,-,"You have completed this section. Please click next.",,Instruct166,2237,,,-1,-1,,,,1
6537f925fee26ff5fdbc8b2f,hnlkxsgfuo,Ex2A_Prolific,1,180,2024-02-28T23:43:57+00:00,31.436667919159,2,Stim_B.csv,Read.csv,Read,B,,,,,,0,Instruct,User,4,"You will now complete a memory test for the words you just studied. Please type as many words from the previous list as you can seperated by a comma. Spelling will not count against you and you can recall the words in any order. This test will be timed for one minute, and the computer will automatically advance once time is up. Click next when you are ready to begin.",,Instruct1666,30975,,,-1,-1,,,,1
6537f925fee26ff5fdbc8b2f,hnlkxsgfuo,Ex2A_Prolific,1,181,2024-02-28T23:44:58+00:00,60.462933063507,2,Stim_B.csv,Read.csv,Read,B,,,,,,0,FreeRecall,60,60,"Please type as many words as you can from the previous study list in any order. Please separate each word with a comma. Spelling will not count against you. This screen will automatically advance in one minute.",,RECALL_Test,60008,"white, grey, brown, dark, coal, blue, funeral, death, charred, colour",0,4846,30255,0,0,,1
6537f925fee26ff5fdbc8b2f,hnlkxsgfuo,Ex2A_Prolific,1,182,2024-02-28T23:45:22+00:00,24.838590860367,2,Stim_B.csv,Read.csv,Read,B,,,,,,0,Instruct,User,-,"You have completed this section. Please click next.",,Instruct7,24396,,,-1,-1,,,,1
6537f925fee26ff5fdbc8b2f,hnlkxsgfuo,Ex2A_Prolific,1,183,2024-02-28T23:45:24+00:00,1.8462359905243,2,Stim_B.csv,Read.csv,Read,B,,,,,,0,Instruct,User,-,"The following screen will ask you a few questions abour your experience today. You must complete these questions to receive credit.",,Instruct8,1464,,,-1,-1,,,,1
