Username,ID,ExperimentName,Session,Trial,Date,TimeDif,"Condition Number","Stimuli File","Order File","Condition Description","Condition Notes",Stimuli*Cue,Stimuli*Answer,Stimuli*Shuffle,"Stimuli*Stimuli Notes",Stimuli*Value,Procedure*Item,"Procedure*Trial Type","Procedure*Max Time","Procedure*Min Time",Procedure*Text,"Procedure*Procedure Notes",Procedure*Shuffle,Response*RT,Response*Response,Response*Accuracy,Response*RTfirst,Response*RTlast,Response*strictAcc,Response*lenientAcc,Response*focus,Response*Focus
653001ecaa6552b09aa80c1e,8meih3g6qs,Ex2A_Prolific,1,1,2024-02-27T21:56:29+00:00,6.8352420330048,2,Stim_B.csv,Read.csv,Read,B,,,,,,0,Instruct,-,5,"In this section, you will be presented with a series of words. Please study each word carefully. Your memory will be tested! Click next when you are ready to begin.",Initial_Instruct,Instruct1,6702,,,-1,-1,,,,1
653001ecaa6552b09aa80c1e,8meih3g6qs,Ex2A_Prolific,1,2,2024-02-27T21:56:31+00:00,1.888571023941,2,Stim_B.csv,Read.csv,Read,B,,,,,,0,Instruct,User,-,"You will now begin the study. Click next when you are ready to begin.",,Instruct16,1681,,,-1,-1,,,,1
653001ecaa6552b09aa80c1e,8meih3g6qs,Ex2A_Prolific,1,3,2024-02-27T21:56:33+00:00,1.9301359653473,2,Stim_B.csv,Read.csv,Read,B,aroma,,Win_1,,,2,Study,User,1.25,,Window,Win_1,1740,,,-1,-1,,,,1
653001ecaa6552b09aa80c1e,8meih3g6qs,Ex2A_Prolific,1,4,2024-02-27T21:56:36+00:00,2.5941388607025,2,Stim_B.csv,Read.csv,Read,B,scent,,Win_2,,,3,Study,User,1.25,,Window,Win_2,2303,,,-1,-1,,,,1
653001ecaa6552b09aa80c1e,8meih3g6qs,Ex2A_Prolific,1,5,2024-02-27T21:56:38+00:00,2.1308031082153,2,Stim_B.csv,Read.csv,Read,B,whiff,,Win_3,,,4,Study,User,1.25,,Window,Win_3,1940,,,-1,-1,,,,1
653001ecaa6552b09aa80c1e,8meih3g6qs,Ex2A_Prolific,1,6,2024-02-27T21:56:40+00:00,2.0294170379639,2,Stim_B.csv,Read.csv,Read,B,stench,,Win_4,,,5,Study,User,1.25,,Window,Win_4,1838,,,-1,-1,,,,1
653001ecaa6552b09aa80c1e,8meih3g6qs,Ex2A_Prolific,1,7,2024-02-27T21:56:42+00:00,2.0982389450073,2,Stim_B.csv,Read.csv,Read,B,reek,,Win_5,,,6,Study,User,1.25,,Window,Win_5,1905,,,-1,-1,,,,1
653001ecaa6552b09aa80c1e,8meih3g6qs,Ex2A_Prolific,1,8,2024-02-27T21:56:44+00:00,2.1969320774078,2,Stim_B.csv,Read.csv,Read,B,sniff,,Win_6,,,7,Study,User,1.25,,Window,Win_6,2002,,,-1,-1,,,,1
653001ecaa6552b09aa80c1e,8meih3g6qs,Ex2A_Prolific,1,9,2024-02-27T21:56:46+00:00,2.2264919281006,2,Stim_B.csv,Read.csv,Read,B,perfume,,Win_7,,,8,Study,User,1.25,,Window,Win_7,2035,,,-1,-1,,,,1
653001ecaa6552b09aa80c1e,8meih3g6qs,Ex2A_Prolific,1,10,2024-02-27T21:56:49+00:00,2.1494059562683,2,Stim_B.csv,Read.csv,Read,B,fragrance,,Win_8,,,9,Study,User,1.25,,Window,Win_8,1959,,,-1,-1,,,,1
653001ecaa6552b09aa80c1e,8meih3g6qs,Ex2A_Prolific,1,11,2024-02-27T21:56:51+00:00,2.5637941360474,2,Stim_B.csv,Read.csv,Read,B,nose,,Win_9,,,10,Study,User,1.25,,Window,Win_9,2372,,,-1,-1,,,,1
653001ecaa6552b09aa80c1e,8meih3g6qs,Ex2A_Prolific,1,12,2024-02-27T21:56:53+00:00,1.9459719657898,2,Stim_B.csv,Read.csv,Read,B,rose,,Win_10,,,11,Study,User,1.25,,Window,Win_10,1754,,,-1,-1,,,,1
653001ecaa6552b09aa80c1e,8meih3g6qs,Ex2A_Prolific,1,13,2024-02-27T21:56:55+00:00,2.1253879070282,2,Stim_B.csv,Read.csv,Read,B,salts,,Win_11,,,12,Study,User,1.25,,Window,Win_11,1891,,,-1,-1,,,,1
653001ecaa6552b09aa80c1e,8meih3g6qs,Ex2A_Prolific,1,14,2024-02-27T21:56:57+00:00,1.6720349788666,2,Stim_B.csv,Read.csv,Read,B,breathe,,Win_12,,,13,Study,User,1.25,,Window,Win_12,1488,,,-1,-1,,,,1
653001ecaa6552b09aa80c1e,8meih3g6qs,Ex2A_Prolific,1,15,2024-02-27T21:56:59+00:00,2.0957570075989,2,Stim_B.csv,Read.csv,Read,B,,,,,,0,Instruct,User,-,"You have completed this section. Please click next.",,Instruct166,1902,,,-1,-1,,,,1
653001ecaa6552b09aa80c1e,8meih3g6qs,Ex2A_Prolific,1,16,2024-02-27T21:57:29+00:00,30.191338062286,2,Stim_B.csv,Read.csv,Read,B,,,,,,0,FreeRecall,30,30,"Please type as many words as you can that begin with the letter ""K"". The computer will automatically advance to the next screen in 30 seconds.",,FILLER,30001,"Kill kid kill kind koala ",0,19022,29966,0,0,,1
653001ecaa6552b09aa80c1e,8meih3g6qs,Ex2A_Prolific,1,17,2024-02-27T21:57:35+00:00,5.4047589302063,2,Stim_B.csv,Read.csv,Read,B,,,,,,0,Instruct,User,4,"You have completed this section. Please click next.",,Instruct166,5207,,,-1,-1,,,,1
653001ecaa6552b09aa80c1e,8meih3g6qs,Ex2A_Prolific,1,18,2024-02-27T21:57:45+00:00,10.51106595993,2,Stim_B.csv,Read.csv,Read,B,,,,,,0,Instruct,User,4,"You will now complete a memory test for the words you just studied. Please type as many words from the previous list as you can seperated by a comma. Spelling will not count against you and you can recall the words in any order. This test will be timed for one minute, and the computer will automatically advance once time is up. Click next when you are ready to begin.",,Instruct1666,10316,,,-1,-1,,,,1
653001ecaa6552b09aa80c1e,8meih3g6qs,Ex2A_Prolific,1,19,2024-02-27T21:58:45+00:00,60.200992107391,2,Stim_B.csv,Read.csv,Read,B,,,,,,0,FreeRecall,60,60,"Please type as many words as you can from the previous study list in any order. Please separate each word with a comma. Spelling will not count against you. This screen will automatically advance in one minute.",,RECALL_Test,60002,"perfume fragrance scent whiff reek scent salt rose nose smell sniff breathe ",0,1317,53339,0,0,,1
653001ecaa6552b09aa80c1e,8meih3g6qs,Ex2A_Prolific,1,20,2024-02-27T21:58:49+00:00,3.9969670772552,2,Stim_B.csv,Read.csv,Read,B,,,,,,0,Instruct,User,3,"You will now be presented with a new study list. Click next when you are ready to begin.",,NEXT_LIST,3800,,,-1,-1,,,,1
653001ecaa6552b09aa80c1e,8meih3g6qs,Ex2A_Prolific,1,21,2024-02-27T21:58:52+00:00,3.152951002121,2,Stim_B.csv,Read.csv,Read,B,hard,,R1,,,14,Study,User,1.25,,Rough,R1,2961,,,-1,-1,,,,1
653001ecaa6552b09aa80c1e,8meih3g6qs,Ex2A_Prolific,1,22,2024-02-27T21:58:55+00:00,2.1472899913788,2,Stim_B.csv,Read.csv,Read,B,loud,,R2,,,15,Study,User,1.25,,Rough,R2,1925,,,-1,-1,,,,1
653001ecaa6552b09aa80c1e,8meih3g6qs,Ex2A_Prolific,1,23,2024-02-27T21:58:57+00:00,2.1774039268494,2,Stim_B.csv,Read.csv,Read,B,tender,,R3,,,16,Study,User,1.25,,Rough,R3,1994,,,-1,-1,,,,1
653001ecaa6552b09aa80c1e,8meih3g6qs,Ex2A_Prolific,1,24,2024-02-27T21:58:59+00:00,1.9072248935699,2,Stim_B.csv,Read.csv,Read,B,fluffy,,R4,,,17,Study,User,1.25,,Rough,R4,1719,,,-1,-1,,,,1
653001ecaa6552b09aa80c1e,8meih3g6qs,Ex2A_Prolific,1,25,2024-02-27T21:59:01+00:00,1.9722220897675,2,Stim_B.csv,Read.csv,Read,B,pillow,,R5,,,18,Study,User,1.25,,Rough,R5,1769,,,-1,-1,,,,1
653001ecaa6552b09aa80c1e,8meih3g6qs,Ex2A_Prolific,1,26,2024-02-27T21:59:03+00:00,2.0044500827789,2,Stim_B.csv,Read.csv,Read,B,downy,,R6,,,19,Study,User,1.25,,Rough,R6,1812,,,-1,-1,,,,1
653001ecaa6552b09aa80c1e,8meih3g6qs,Ex2A_Prolific,1,27,2024-02-27T21:59:04+00:00,1.8055958747864,2,Stim_B.csv,Read.csv,Read,B,plush,,R7,,,20,Study,User,1.25,,Rough,R7,1611,,,-1,-1,,,,1
653001ecaa6552b09aa80c1e,8meih3g6qs,Ex2A_Prolific,1,28,2024-02-27T21:59:06+00:00,1.8101780414581,2,Stim_B.csv,Read.csv,Read,B,cotton,,R8,,,21,Study,User,1.25,,Rough,R8,1626,,,-1,-1,,,,1
653001ecaa6552b09aa80c1e,8meih3g6qs,Ex2A_Prolific,1,29,2024-02-27T21:59:08+00:00,1.9883079528809,2,Stim_B.csv,Read.csv,Read,B,skin,,R9,,,22,Study,User,1.25,,Rough,R9,1777,,,-1,-1,,,,1
653001ecaa6552b09aa80c1e,8meih3g6qs,Ex2A_Prolific,1,30,2024-02-27T21:59:10+00:00,1.5155701637268,2,Stim_B.csv,Read.csv,Read,B,fur,,R10,,,23,Study,User,1.25,,Rough,R10,1328,,,-1,-1,,,,1
653001ecaa6552b09aa80c1e,8meih3g6qs,Ex2A_Prolific,1,31,2024-02-27T21:59:12+00:00,1.9615287780762,2,Stim_B.csv,Read.csv,Read,B,touch,,R11,,,24,Study,User,1.25,,Rough,R11,1766,,,-1,-1,,,,1
653001ecaa6552b09aa80c1e,8meih3g6qs,Ex2A_Prolific,1,32,2024-02-27T21:59:14+00:00,1.9144530296326,2,Stim_B.csv,Read.csv,Read,B,furry,,R12,,,25,Study,User,1.25,,Rough,R12,1716,,,-1,-1,,,,1
653001ecaa6552b09aa80c1e,8meih3g6qs,Ex2A_Prolific,1,33,2024-02-27T21:59:19+00:00,4.8960750102997,2,Stim_B.csv,Read.csv,Read,B,,,,,,0,Instruct,User,4,"You have completed this section. Please click next.",,Instruct166,4694,,,-1,-1,,,,1
653001ecaa6552b09aa80c1e,8meih3g6qs,Ex2A_Prolific,1,34,2024-02-27T21:59:49+00:00,30.223684072495,2,Stim_B.csv,Read.csv,Read,B,,,,,,0,FreeRecall,30,30,"Please type as many words as you can that begin with the letter ""K"". The computer will automatically advance to the next screen in 30 seconds.",,FILLER,30001,"kin kid kind koala kill kinda k",0,2688,26330,0,0,,1
653001ecaa6552b09aa80c1e,8meih3g6qs,Ex2A_Prolific,1,35,2024-02-27T21:59:51+00:00,2.5491468906403,2,Stim_B.csv,Read.csv,Read,B,,,,,,0,Instruct,User,-,"You have completed this section. Please click next.",,Instruct166,2345,,,-1,-1,,,,1
653001ecaa6552b09aa80c1e,8meih3g6qs,Ex2A_Prolific,1,36,2024-02-27T21:59:56+00:00,5.0057961940765,2,Stim_B.csv,Read.csv,Read,B,,,,,,0,Instruct,User,4,"You will now complete a memory test for the words you just studied. Please type as many words from the previous list as you can seperated by a comma. Spelling will not count against you and you can recall the words in any order. This test will be timed for one minute, and the computer will automatically advance once time is up. Click next when you are ready to begin.",,Instruct1666,4813,,,-1,-1,,,,1
653001ecaa6552b09aa80c1e,8meih3g6qs,Ex2A_Prolific,1,37,2024-02-27T22:00:57+00:00,60.200354814529,2,Stim_B.csv,Read.csv,Read,B,,,,,,0,FreeRecall,60,60,"Please type as many words as you can from the previous study list in any order. Please separate each word with a comma. Spelling will not count against you. This screen will automatically advance in one minute.",,RECALL_Test,60001,"hard soft fluffy cotton touch sheets pillow ",0,3573,50390,0,0,,1
653001ecaa6552b09aa80c1e,8meih3g6qs,Ex2A_Prolific,1,38,2024-02-27T22:01:00+00:00,3.8431251049042,2,Stim_B.csv,Read.csv,Read,B,,,,,,0,Instruct,User,3,"You will now be presented with a new study list. Click next when you are ready to begin.",,NEXT_LIST,3651,,,-1,-1,,,,1
653001ecaa6552b09aa80c1e,8meih3g6qs,Ex2A_Prolific,1,39,2024-02-27T22:01:03+00:00,2.2906310558319,2,Stim_B.csv,Read.csv,Read,B,honey,,A1,,,26,Study,User,1.25,,Anger,A1,1769,,,-1,-1,,,,1
653001ecaa6552b09aa80c1e,8meih3g6qs,Ex2A_Prolific,1,40,2024-02-27T22:01:06+00:00,3.6249599456787,2,Stim_B.csv,Read.csv,Read,B,bitter,,A2,,,27,Study,User,1.25,,Anger,A2,3429,,,-1,-1,,,,1
653001ecaa6552b09aa80c1e,8meih3g6qs,Ex2A_Prolific,1,41,2024-02-27T22:01:08+00:00,1.9048628807068,2,Stim_B.csv,Read.csv,Read,B,sugar,,A3,,,28,Study,User,1.25,,Anger,A3,1705,,,-1,-1,,,,1
653001ecaa6552b09aa80c1e,8meih3g6qs,Ex2A_Prolific,1,42,2024-02-27T22:01:10+00:00,2.2053790092468,2,Stim_B.csv,Read.csv,Read,B,sour,,A4,,,29,Study,User,1.25,,Anger,A4,2015,,,-1,-1,,,,1
653001ecaa6552b09aa80c1e,8meih3g6qs,Ex2A_Prolific,1,43,2024-02-27T22:01:13+00:00,2.1360590457916,2,Stim_B.csv,Read.csv,Read,B,candy,,A5,,,30,Study,User,1.25,,Anger,A5,1925,,,-1,-1,,,,1
653001ecaa6552b09aa80c1e,8meih3g6qs,Ex2A_Prolific,1,44,2024-02-27T22:01:14+00:00,1.8358299732208,2,Stim_B.csv,Read.csv,Read,B,tart,,A6,,,31,Study,User,1.25,,Anger,A6,1649,,,-1,-1,,,,1
653001ecaa6552b09aa80c1e,8meih3g6qs,Ex2A_Prolific,1,45,2024-02-27T22:01:16+00:00,1.9656519889832,2,Stim_B.csv,Read.csv,Read,B,chocolate,,A7,,,32,Study,User,1.25,,Anger,A7,1785,,,-1,-1,,,,1
653001ecaa6552b09aa80c1e,8meih3g6qs,Ex2A_Prolific,1,46,2024-02-27T22:01:18+00:00,1.5725400447845,2,Stim_B.csv,Read.csv,Read,B,nice,,A8,,,33,Study,User,1.25,,Anger,A8,1376,,,-1,-1,,,,1
653001ecaa6552b09aa80c1e,8meih3g6qs,Ex2A_Prolific,1,47,2024-02-27T22:01:20+00:00,1.8636350631714,2,Stim_B.csv,Read.csv,Read,B,taste,,A9,,,34,Study,User,1.25,,Anger,A9,1663,,,-1,-1,,,,1
653001ecaa6552b09aa80c1e,8meih3g6qs,Ex2A_Prolific,1,48,2024-02-27T22:01:22+00:00,1.9314849376678,2,Stim_B.csv,Read.csv,Read,B,cake,,A10,,,35,Study,User,1.25,,Anger,A10,1738,,,-1,-1,,,,1
653001ecaa6552b09aa80c1e,8meih3g6qs,Ex2A_Prolific,1,49,2024-02-27T22:01:24+00:00,1.8381330966949,2,Stim_B.csv,Read.csv,Read,B,good,,A11,,,36,Study,User,1.25,,Anger,A11,1651,,,-1,-1,,,,1
653001ecaa6552b09aa80c1e,8meih3g6qs,Ex2A_Prolific,1,50,2024-02-27T22:01:25+00:00,1.826721906662,2,Stim_B.csv,Read.csv,Read,B,tooth,,A12,,,37,Study,User,1.25,,Anger,A12,1454,,,-1,-1,,,,1
653001ecaa6552b09aa80c1e,8meih3g6qs,Ex2A_Prolific,1,51,2024-02-27T22:01:30+00:00,4.9742150306702,2,Stim_B.csv,Read.csv,Read,B,,,,,,0,Instruct,User,4,"You have completed this section. Please click next.",,Instruct166,4767,,,-1,-1,,,,1
653001ecaa6552b09aa80c1e,8meih3g6qs,Ex2A_Prolific,1,52,2024-02-27T22:02:01+00:00,30.208616018295,2,Stim_B.csv,Read.csv,Read,B,,,,,,0,FreeRecall,30,30,"Please type as many words as you can that begin with the letter ""K"". The computer will automatically advance to the next screen in 30 seconds.",,FILLER,30001,"kin kid kill krill kind kinda keep kept keeper ",0,3017,29729,0,0,,1
653001ecaa6552b09aa80c1e,8meih3g6qs,Ex2A_Prolific,1,53,2024-02-27T22:02:03+00:00,2.2593479156494,2,Stim_B.csv,Read.csv,Read,B,,,,,,0,Instruct,User,-,"You have completed this section. Please click next.",,Instruct166,2064,,,-1,-1,,,,1
653001ecaa6552b09aa80c1e,8meih3g6qs,Ex2A_Prolific,1,54,2024-02-27T22:02:11+00:00,8.1828601360321,2,Stim_B.csv,Read.csv,Read,B,,,,,,0,Instruct,User,4,"You will now complete a memory test for the words you just studied. Please type as many words from the previous list as you can seperated by a comma. Spelling will not count against you and you can recall the words in any order. This test will be timed for one minute, and the computer will automatically advance once time is up. Click next when you are ready to begin.",,Instruct1666,7913,,,-1,-1,,,,1
653001ecaa6552b09aa80c1e,8meih3g6qs,Ex2A_Prolific,1,55,2024-02-27T22:03:11+00:00,60.194884061813,2,Stim_B.csv,Read.csv,Read,B,,,,,,0,FreeRecall,60,60,"Please type as many words as you can from the previous study list in any order. Please separate each word with a comma. Spelling will not count against you. This screen will automatically advance in one minute.",,RECALL_Test,60002,"cake, taste, sour, bitter, chocolate, sweet, sugar, honey, tart",0,3519,57617,0,0,,1
653001ecaa6552b09aa80c1e,8meih3g6qs,Ex2A_Prolific,1,56,2024-02-27T22:03:16+00:00,4.5419998168945,2,Stim_B.csv,Read.csv,Read,B,,,,,,0,Instruct,User,3,"You will now be presented with a new study list. Click next when you are ready to begin.",,NEXT_LIST,4350,,,-1,-1,,,,1
653001ecaa6552b09aa80c1e,8meih3g6qs,Ex2A_Prolific,1,57,2024-02-27T22:03:18+00:00,2.3555560112,2,Stim_B.csv,Read.csv,Read,B,table,,T1,,,38,Study,User,1.25,,Trash,T1,2158,,,-1,-1,,,,1
653001ecaa6552b09aa80c1e,8meih3g6qs,Ex2A_Prolific,1,58,2024-02-27T22:03:20+00:00,1.9038660526276,2,Stim_B.csv,Read.csv,Read,B,swivel,,T2,,,39,Study,User,1.25,,Trash,T2,1708,,,-1,-1,,,,1
653001ecaa6552b09aa80c1e,8meih3g6qs,Ex2A_Prolific,1,59,2024-02-27T22:03:22+00:00,1.999274969101,2,Stim_B.csv,Read.csv,Read,B,rocking,,T3,,,40,Study,User,1.25,,Trash,T3,1801,,,-1,-1,,,,1
653001ecaa6552b09aa80c1e,8meih3g6qs,Ex2A_Prolific,1,60,2024-02-27T22:03:24+00:00,1.970253944397,2,Stim_B.csv,Read.csv,Read,B,recliner,,T4,,,41,Study,User,1.25,,Trash,T4,1779,,,-1,-1,,,,1
653001ecaa6552b09aa80c1e,8meih3g6qs,Ex2A_Prolific,1,61,2024-02-27T22:03:26+00:00,1.9240581989288,2,Stim_B.csv,Read.csv,Read,B,seat,,T5,,,42,Study,User,1.25,,Trash,T5,1713,,,-1,-1,,,,1
653001ecaa6552b09aa80c1e,8meih3g6qs,Ex2A_Prolific,1,62,2024-02-27T22:03:28+00:00,2.0888829231262,2,Stim_B.csv,Read.csv,Read,B,stool,,T6,,,43,Study,User,1.25,,Trash,T6,1790,,,-1,-1,,,,1
653001ecaa6552b09aa80c1e,8meih3g6qs,Ex2A_Prolific,1,63,2024-02-27T22:03:30+00:00,2.0308079719543,2,Stim_B.csv,Read.csv,Read,B,desk,,T7,,,44,Study,User,1.25,,Trash,T7,1831,,,-1,-1,,,,1
653001ecaa6552b09aa80c1e,8meih3g6qs,Ex2A_Prolific,1,64,2024-02-27T22:03:32+00:00,2.0080170631409,2,Stim_B.csv,Read.csv,Read,B,couch,,T8,,,45,Study,User,1.25,,Trash,T8,1811,,,-1,-1,,,,1
653001ecaa6552b09aa80c1e,8meih3g6qs,Ex2A_Prolific,1,65,2024-02-27T22:03:34+00:00,1.9408438205719,2,Stim_B.csv,Read.csv,Read,B,sit,,T9,,,46,Study,User,1.25,,Trash,T9,1742,,,-1,-1,,,,1
653001ecaa6552b09aa80c1e,8meih3g6qs,Ex2A_Prolific,1,66,2024-02-27T22:03:36+00:00,1.9876511096954,2,Stim_B.csv,Read.csv,Read,B,sofa,,T10,,,47,Study,User,1.25,,Trash,T10,1784,,,-1,-1,,,,1
653001ecaa6552b09aa80c1e,8meih3g6qs,Ex2A_Prolific,1,67,2024-02-27T22:03:38+00:00,1.9762489795685,2,Stim_B.csv,Read.csv,Read,B,bench,,T11,,,48,Study,User,1.25,,Trash,T11,1787,,,-1,-1,,,,1
653001ecaa6552b09aa80c1e,8meih3g6qs,Ex2A_Prolific,1,68,2024-02-27T22:03:40+00:00,2.3262591362,2,Stim_B.csv,Read.csv,Read,B,sitting,,T12,,,49,Study,User,1.25,,Trash,T12,2135,,,-1,-1,,,,1
653001ecaa6552b09aa80c1e,8meih3g6qs,Ex2A_Prolific,1,69,2024-02-27T22:03:45+00:00,5.0791738033295,2,Stim_B.csv,Read.csv,Read,B,,,,,,0,Instruct,User,4,"You have completed this section. Please click next.",,Instruct166,4648,,,-1,-1,,,,1
653001ecaa6552b09aa80c1e,8meih3g6qs,Ex2A_Prolific,1,70,2024-02-27T22:04:16+00:00,30.203845024109,2,Stim_B.csv,Read.csv,Read,B,,,,,,0,FreeRecall,30,30,"Please type as many words as you can that begin with the letter ""K"". The computer will automatically advance to the next screen in 30 seconds.",,FILLER,30001,"kin kid kinda kind krill kill kiln kept keep keeps keeper kre",0,2084,29090,0,0,,1
653001ecaa6552b09aa80c1e,8meih3g6qs,Ex2A_Prolific,1,71,2024-02-27T22:04:20+00:00,4.7641670703888,2,Stim_B.csv,Read.csv,Read,B,,,,,,0,Instruct,User,4,"You have completed this section. Please click next.",,Instruct166,4563,,,-1,-1,,,,1
653001ecaa6552b09aa80c1e,8meih3g6qs,Ex2A_Prolific,1,72,2024-02-27T22:04:25+00:00,4.9026880264282,2,Stim_B.csv,Read.csv,Read,B,,,,,,0,Instruct,User,4,"You will now complete a memory test for the words you just studied. Please type as many words from the previous list as you can seperated by a comma. Spelling will not count against you and you can recall the words in any order. This test will be timed for one minute, and the computer will automatically advance once time is up. Click next when you are ready to begin.",,Instruct1666,4680,,,-1,-1,,,,1
653001ecaa6552b09aa80c1e,8meih3g6qs,Ex2A_Prolific,1,73,2024-02-27T22:05:25+00:00,60.211168050766,2,Stim_B.csv,Read.csv,Read,B,,,,,,0,FreeRecall,60,60,"Please type as many words as you can from the previous study list in any order. Please separate each word with a comma. Spelling will not count against you. This screen will automatically advance in one minute.",,RECALL_Test,60001,"sit, sitting, couch, bench, sofa, desk, chair, seat, recliner, ottoman, table, rocker, rocking, ",0,983,57524,0,0,,1
653001ecaa6552b09aa80c1e,8meih3g6qs,Ex2A_Prolific,1,74,2024-02-27T22:05:29+00:00,3.9012928009033,2,Stim_B.csv,Read.csv,Read,B,,,,,,0,Instruct,User,3,"You will now be presented with a new study list. Click next when you are ready to begin.",,NEXT_LIST,3706,,,-1,-1,,,,1
653001ecaa6552b09aa80c1e,8meih3g6qs,Ex2A_Prolific,1,75,2024-02-27T22:05:31+00:00,2.041640996933,2,Stim_B.csv,Read.csv,Read,B,climber,,D1,,,50,Study,User,1.25,,Doctor,D1,1836,,,-1,-1,,,,1
653001ecaa6552b09aa80c1e,8meih3g6qs,Ex2A_Prolific,1,76,2024-02-27T22:05:33+00:00,1.90522813797,2,Stim_B.csv,Read.csv,Read,B,hill,,D2,,,51,Study,User,1.25,,Doctor,D2,1709,,,-1,-1,,,,1
653001ecaa6552b09aa80c1e,8meih3g6qs,Ex2A_Prolific,1,77,2024-02-27T22:05:35+00:00,1.9577119350433,2,Stim_B.csv,Read.csv,Read,B,climb,,D3,,,52,Study,User,1.25,,Doctor,D3,1755,,,-1,-1,,,,1
653001ecaa6552b09aa80c1e,8meih3g6qs,Ex2A_Prolific,1,78,2024-02-27T22:05:37+00:00,2.0382590293884,2,Stim_B.csv,Read.csv,Read,B,molehill,,D4,,,53,Study,User,1.25,,Doctor,D4,1842,,,-1,-1,,,,1
653001ecaa6552b09aa80c1e,8meih3g6qs,Ex2A_Prolific,1,79,2024-02-27T22:05:39+00:00,1.8258130550385,2,Stim_B.csv,Read.csv,Read,B,peak,,D5,,,54,Study,User,1.25,,Doctor,D5,1628,,,-1,-1,,,,1
653001ecaa6552b09aa80c1e,8meih3g6qs,Ex2A_Prolific,1,80,2024-02-27T22:05:41+00:00,1.8896808624268,2,Stim_B.csv,Read.csv,Read,B,valley,,D6,,,55,Study,User,1.25,,Doctor,D6,1683,,,-1,-1,,,,1
653001ecaa6552b09aa80c1e,8meih3g6qs,Ex2A_Prolific,1,81,2024-02-27T22:05:43+00:00,1.9937841892242,2,Stim_B.csv,Read.csv,Read,B,summit,,D7,,,56,Study,User,1.25,,Doctor,D7,1801,,,-1,-1,,,,1
653001ecaa6552b09aa80c1e,8meih3g6qs,Ex2A_Prolific,1,82,2024-02-27T22:05:45+00:00,1.9765758514404,2,Stim_B.csv,Read.csv,Read,B,steep,,D8,,,57,Study,User,1.25,,Doctor,D8,1783,,,-1,-1,,,,1
653001ecaa6552b09aa80c1e,8meih3g6qs,Ex2A_Prolific,1,83,2024-02-27T22:05:47+00:00,1.977429151535,2,Stim_B.csv,Read.csv,Read,B,ski,,D9,,,58,Study,User,1.25,,Doctor,D9,1785,,,-1,-1,,,,1
653001ecaa6552b09aa80c1e,8meih3g6qs,Ex2A_Prolific,1,84,2024-02-27T22:05:49+00:00,2.2261078357697,2,Stim_B.csv,Read.csv,Read,B,bike,,D10,,,59,Study,User,1.25,,Doctor,D10,2016,,,-1,-1,,,,1
653001ecaa6552b09aa80c1e,8meih3g6qs,Ex2A_Prolific,1,85,2024-02-27T22:05:51+00:00,1.8565590381622,2,Stim_B.csv,Read.csv,Read,B,goat,,D11,,,60,Study,User,1.25,,Doctor,D11,1655,,,-1,-1,,,,1
653001ecaa6552b09aa80c1e,8meih3g6qs,Ex2A_Prolific,1,86,2024-02-27T22:05:53+00:00,1.9326059818268,2,Stim_B.csv,Read.csv,Read,B,glacier,,D12,,,61,Study,User,1.25,,Doctor,D12,1735,,,-1,-1,,,,1
653001ecaa6552b09aa80c1e,8meih3g6qs,Ex2A_Prolific,1,87,2024-02-27T22:05:55+00:00,1.66974401474,2,Stim_B.csv,Read.csv,Read,B,,,,,,0,Instruct,User,-,"You have completed this section. Please click next.",,Instruct166,1454,,,-1,-1,,,,1
653001ecaa6552b09aa80c1e,8meih3g6qs,Ex2A_Prolific,1,88,2024-02-27T22:06:25+00:00,30.211236953735,2,Stim_B.csv,Read.csv,Read,B,,,,,,0,FreeRecall,30,30,"Please type as many words as you can that begin with the letter ""K"". The computer will automatically advance to the next screen in 30 seconds.",,FILLER,30001,"kid kin krill kind kinder keep keeper keeps kinds kids kidding kindling ",0,2845,25964,0,0,,1
653001ecaa6552b09aa80c1e,8meih3g6qs,Ex2A_Prolific,1,89,2024-02-27T22:06:27+00:00,2.2503201961517,2,Stim_B.csv,Read.csv,Read,B,,,,,,0,Instruct,User,-,"You have completed this section. Please click next.",,Instruct166,2018,,,-1,-1,,,,1
653001ecaa6552b09aa80c1e,8meih3g6qs,Ex2A_Prolific,1,90,2024-02-27T22:06:33+00:00,6.0838029384613,2,Stim_B.csv,Read.csv,Read,B,,,,,,0,Instruct,User,4,"You will now complete a memory test for the words you just studied. Please type as many words from the previous list as you can seperated by a comma. Spelling will not count against you and you can recall the words in any order. This test will be timed for one minute, and the computer will automatically advance once time is up. Click next when you are ready to begin.",,Instruct1666,5866,,,-1,-1,,,,1
653001ecaa6552b09aa80c1e,8meih3g6qs,Ex2A_Prolific,1,91,2024-02-27T22:07:33+00:00,60.198940992355,2,Stim_B.csv,Read.csv,Read,B,,,,,,0,FreeRecall,60,60,"Please type as many words as you can from the previous study list in any order. Please separate each word with a comma. Spelling will not count against you. This screen will automatically advance in one minute.",,RECALL_Test,60000,"climb climbing climber goat mountain glacier ",0,2634,24705,0,0,,0.993
653001ecaa6552b09aa80c1e,8meih3g6qs,Ex2A_Prolific,1,92,2024-02-27T22:07:39+00:00,5.3150899410248,2,Stim_B.csv,Read.csv,Read,B,,,,,,0,Instruct,User,3,"You will now be presented with a new study list. Click next when you are ready to begin.",,NEXT_LIST,5107,,,-1,-1,,,,0.615
653001ecaa6552b09aa80c1e,8meih3g6qs,Ex2A_Prolific,1,93,2024-02-27T22:07:41+00:00,2.0198991298676,2,Stim_B.csv,Read.csv,Read,B,band,,S1,,,62,Study,User,1.25,,Slow,S1,1824,,,-1,-1,,,,1
653001ecaa6552b09aa80c1e,8meih3g6qs,Ex2A_Prolific,1,94,2024-02-27T22:07:43+00:00,2.0059978961945,2,Stim_B.csv,Read.csv,Read,B,concert,,S2,,,63,Study,User,1.25,,Slow,S2,1806,,,-1,-1,,,,1
653001ecaa6552b09aa80c1e,8meih3g6qs,Ex2A_Prolific,1,95,2024-02-27T22:07:45+00:00,1.9433269500732,2,Stim_B.csv,Read.csv,Read,B,jazz,,S3,,,64,Study,User,1.25,,Slow,S3,1744,,,-1,-1,,,,1
653001ecaa6552b09aa80c1e,8meih3g6qs,Ex2A_Prolific,1,96,2024-02-27T22:07:47+00:00,1.9567880630493,2,Stim_B.csv,Read.csv,Read,B,symphony,,S4,,,65,Study,User,1.25,,Slow,S4,1743,,,-1,-1,,,,1
653001ecaa6552b09aa80c1e,8meih3g6qs,Ex2A_Prolific,1,97,2024-02-27T22:07:49+00:00,1.9207608699799,2,Stim_B.csv,Read.csv,Read,B,orchestra,,S5,,,66,Study,User,1.25,,Slow,S5,1727,,,-1,-1,,,,1
653001ecaa6552b09aa80c1e,8meih3g6qs,Ex2A_Prolific,1,98,2024-02-27T22:07:50+00:00,1.935072183609,2,Stim_B.csv,Read.csv,Read,B,rhythm,,S6,,,67,Study,User,1.25,,Slow,S6,1639,,,-1,-1,,,,1
653001ecaa6552b09aa80c1e,8meih3g6qs,Ex2A_Prolific,1,99,2024-02-27T22:07:52+00:00,1.9733459949493,2,Stim_B.csv,Read.csv,Read,B,radio,,S7,,,68,Study,User,1.25,,Slow,S7,1767,,,-1,-1,,,,1
653001ecaa6552b09aa80c1e,8meih3g6qs,Ex2A_Prolific,1,100,2024-02-27T22:07:54+00:00,1.9821119308472,2,Stim_B.csv,Read.csv,Read,B,melody,,S8,,,69,Study,User,1.25,,Slow,S8,1760,,,-1,-1,,,,1
653001ecaa6552b09aa80c1e,8meih3g6qs,Ex2A_Prolific,1,101,2024-02-27T22:07:56+00:00,1.9268929958344,2,Stim_B.csv,Read.csv,Read,B,piano,,S9,,,70,Study,User,1.25,,Slow,S9,1732,,,-1,-1,,,,1
653001ecaa6552b09aa80c1e,8meih3g6qs,Ex2A_Prolific,1,102,2024-02-27T22:07:58+00:00,1.7792429924011,2,Stim_B.csv,Read.csv,Read,B,sound,,S10,,,71,Study,User,1.25,,Slow,S10,1582,,,-1,-1,,,,1
653001ecaa6552b09aa80c1e,8meih3g6qs,Ex2A_Prolific,1,103,2024-02-27T22:08:00+00:00,1.9211270809174,2,Stim_B.csv,Read.csv,Read,B,instrument,,S11,,,72,Study,User,1.25,,Slow,S11,1705,,,-1,-1,,,,1
653001ecaa6552b09aa80c1e,8meih3g6qs,Ex2A_Prolific,1,104,2024-02-27T22:08:02+00:00,1.9226868152618,2,Stim_B.csv,Read.csv,Read,B,note,,S12,,,73,Study,User,1.25,,Slow,S12,1714,,,-1,-1,,,,1
653001ecaa6552b09aa80c1e,8meih3g6qs,Ex2A_Prolific,1,105,2024-02-27T22:08:07+00:00,4.836715221405,2,Stim_B.csv,Read.csv,Read,B,,,,,,0,Instruct,User,4,"You have completed this section. Please click next.",,Instruct166,4631,,,-1,-1,,,,1
653001ecaa6552b09aa80c1e,8meih3g6qs,Ex2A_Prolific,1,106,2024-02-27T22:08:37+00:00,30.205403804779,2,Stim_B.csv,Read.csv,Read,B,,,,,,0,FreeRecall,30,30,"Please type as many words as you can that begin with the letter ""K"". The computer will automatically advance to the next screen in 30 seconds.",,FILLER,30001,"kid kind kids kin kins kinds kinder kept keep keeps keeper ",0,2767,27607,0,0,,1
653001ecaa6552b09aa80c1e,8meih3g6qs,Ex2A_Prolific,1,107,2024-02-27T22:08:38+00:00,1.3621079921722,2,Stim_B.csv,Read.csv,Read,B,,,,,,0,Instruct,User,-,"You have completed this section. Please click next.",,Instruct166,1138,,,-1,-1,,,,1
653001ecaa6552b09aa80c1e,8meih3g6qs,Ex2A_Prolific,1,108,2024-02-27T22:08:44+00:00,5.3712980747223,2,Stim_B.csv,Read.csv,Read,B,,,,,,0,Instruct,User,4,"You will now complete a memory test for the words you just studied. Please type as many words from the previous list as you can seperated by a comma. Spelling will not count against you and you can recall the words in any order. This test will be timed for one minute, and the computer will automatically advance once time is up. Click next when you are ready to begin.",,Instruct1666,5169,,,-1,-1,,,,1
653001ecaa6552b09aa80c1e,8meih3g6qs,Ex2A_Prolific,1,109,2024-02-27T22:09:44+00:00,60.242739915848,2,Stim_B.csv,Read.csv,Read,B,,,,,,0,FreeRecall,60,60,"Please type as many words as you can from the previous study list in any order. Please separate each word with a comma. Spelling will not count against you. This screen will automatically advance in one minute.",,RECALL_Test,60002,"band concert orchestra jazz music note melody rhythm sound beat song instrument tone play musician",0,2385,50096,0,0,,1
653001ecaa6552b09aa80c1e,8meih3g6qs,Ex2A_Prolific,1,110,2024-02-27T22:09:58+00:00,14.454791069031,2,Stim_B.csv,Read.csv,Read,B,,,,,,0,Instruct,User,3,"You will now be presented with a new study list. Click next when you are ready to begin.",,NEXT_LIST,14253,,,-1,-1,,,,1
653001ecaa6552b09aa80c1e,8meih3g6qs,Ex2A_Prolific,1,111,2024-02-27T22:10:03+00:00,4.3146660327911,2,Stim_B.csv,Read.csv,Read,B,foam,,RR1,,,74,Study,User,1.25,,River,RR1,4120,,,-1,-1,,,,1
653001ecaa6552b09aa80c1e,8meih3g6qs,Ex2A_Prolific,1,112,2024-02-27T22:10:05+00:00,2.4268898963928,2,Stim_B.csv,Read.csv,Read,B,latex,,RR2,,,75,Study,User,1.25,,River,RR2,2214,,,-1,-1,,,,1
653001ecaa6552b09aa80c1e,8meih3g6qs,Ex2A_Prolific,1,113,2024-02-27T22:10:09+00:00,3.6333451271057,2,Stim_B.csv,Read.csv,Read,B,galoshes,,RR3,,,76,Study,User,1.25,,River,RR3,3437,,,-1,-1,,,,1
653001ecaa6552b09aa80c1e,8meih3g6qs,Ex2A_Prolific,1,114,2024-02-27T22:10:11+00:00,2.0954930782318,2,Stim_B.csv,Read.csv,Read,B,tire,,RR4,,,77,Study,User,1.25,,River,RR4,1900,,,-1,-1,,,,1
653001ecaa6552b09aa80c1e,8meih3g6qs,Ex2A_Prolific,1,115,2024-02-27T22:10:13+00:00,1.9011518955231,2,Stim_B.csv,Read.csv,Read,B,flexible,,RR5,,,78,Study,User,1.25,,River,RR5,1701,,,-1,-1,,,,1
653001ecaa6552b09aa80c1e,8meih3g6qs,Ex2A_Prolific,1,116,2024-02-27T22:10:15+00:00,1.8669669628143,2,Stim_B.csv,Read.csv,Read,B,elastic,,RR6,,,79,Study,User,1.25,,River,RR6,1670,,,-1,-1,,,,1
653001ecaa6552b09aa80c1e,8meih3g6qs,Ex2A_Prolific,1,117,2024-02-27T22:10:17+00:00,1.9640870094299,2,Stim_B.csv,Read.csv,Read,B,gloves,,RR7,,,80,Study,User,1.25,,River,RR7,1769,,,-1,-1,,,,1
653001ecaa6552b09aa80c1e,8meih3g6qs,Ex2A_Prolific,1,118,2024-02-27T22:10:18+00:00,1.8574459552765,2,Stim_B.csv,Read.csv,Read,B,eraser,,RR8,,,81,Study,User,1.25,,River,RR8,1639,,,-1,-1,,,,1
653001ecaa6552b09aa80c1e,8meih3g6qs,Ex2A_Prolific,1,119,2024-02-27T22:10:21+00:00,2.0133819580078,2,Stim_B.csv,Read.csv,Read,B,bounce,,RR9,,,82,Study,User,1.25,,River,RR9,1809,,,-1,-1,,,,1
653001ecaa6552b09aa80c1e,8meih3g6qs,Ex2A_Prolific,1,120,2024-02-27T22:10:22+00:00,1.9148051738739,2,Stim_B.csv,Read.csv,Read,B,ball,,RR10,,,83,Study,User,1.25,,River,RR10,1722,,,-1,-1,,,,1
653001ecaa6552b09aa80c1e,8meih3g6qs,Ex2A_Prolific,1,121,2024-02-27T22:10:24+00:00,1.8891680240631,2,Stim_B.csv,Read.csv,Read,B,soles,,RR11,,,84,Study,User,1.25,,River,RR11,1681,,,-1,-1,,,,1
653001ecaa6552b09aa80c1e,8meih3g6qs,Ex2A_Prolific,1,122,2024-02-27T22:10:26+00:00,1.9906189441681,2,Stim_B.csv,Read.csv,Read,B,springy,,RR12,,,85,Study,User,1.25,,River,RR12,1797,,,-1,-1,,,,1
653001ecaa6552b09aa80c1e,8meih3g6qs,Ex2A_Prolific,1,123,2024-02-27T22:10:31+00:00,4.972491979599,2,Stim_B.csv,Read.csv,Read,B,,,,,,0,Instruct,User,4,"You have completed this section. Please click next.",,Instruct166,4748,,,-1,-1,,,,1
653001ecaa6552b09aa80c1e,8meih3g6qs,Ex2A_Prolific,1,124,2024-02-27T22:11:01+00:00,30.203352928162,2,Stim_B.csv,Read.csv,Read,B,,,,,,0,FreeRecall,30,30,"Please type as many words as you can that begin with the letter ""K"". The computer will automatically advance to the next screen in 30 seconds.",,FILLER,30002,"kin kids kid kins kind kinder kept keep keeps keeper kiln ",0,1208,23311,0,0,,1
653001ecaa6552b09aa80c1e,8meih3g6qs,Ex2A_Prolific,1,125,2024-02-27T22:11:07+00:00,5.400887966156,2,Stim_B.csv,Read.csv,Read,B,,,,,,0,Instruct,User,4,"You have completed this section. Please click next.",,Instruct166,5198,,,-1,-1,,,,1
653001ecaa6552b09aa80c1e,8meih3g6qs,Ex2A_Prolific,1,126,2024-02-27T22:11:11+00:00,4.6000640392303,2,Stim_B.csv,Read.csv,Read,B,,,,,,0,Instruct,User,4,"You will now complete a memory test for the words you just studied. Please type as many words from the previous list as you can seperated by a comma. Spelling will not count against you and you can recall the words in any order. This test will be timed for one minute, and the computer will automatically advance once time is up. Click next when you are ready to begin.",,Instruct1666,4398,,,-1,-1,,,,1
653001ecaa6552b09aa80c1e,8meih3g6qs,Ex2A_Prolific,1,127,2024-02-27T22:12:12+00:00,60.197551012039,2,Stim_B.csv,Read.csv,Read,B,,,,,,0,FreeRecall,60,60,"Please type as many words as you can from the previous study list in any order. Please separate each word with a comma. Spelling will not count against you. This screen will automatically advance in one minute.",,RECALL_Test,60001,"foam sole shoe tire spring bounce ",0,2190,38702,0,0,,1
653001ecaa6552b09aa80c1e,8meih3g6qs,Ex2A_Prolific,1,128,2024-02-27T22:12:16+00:00,4.4960701465607,2,Stim_B.csv,Read.csv,Read,B,,,,,,0,Instruct,User,3,"You will now be presented with a new study list. Click next when you are ready to begin.",,NEXT_LIST,4261,,,-1,-1,,,,1
653001ecaa6552b09aa80c1e,8meih3g6qs,Ex2A_Prolific,1,129,2024-02-27T22:12:18+00:00,2.0093169212341,2,Stim_B.csv,Read.csv,Read,B,toe,,B1,,,86,Study,User,1.25,,Bread,B1,1809,,,-1,-1,,,,1
653001ecaa6552b09aa80c1e,8meih3g6qs,Ex2A_Prolific,1,130,2024-02-27T22:12:20+00:00,1.9160358905792,2,Stim_B.csv,Read.csv,Read,B,inch,,B2,,,87,Study,User,1.25,,Bread,B2,1724,,,-1,-1,,,,1
653001ecaa6552b09aa80c1e,8meih3g6qs,Ex2A_Prolific,1,131,2024-02-27T22:12:22+00:00,2.2932960987091,2,Stim_B.csv,Read.csv,Read,B,ankle,,B3,,,88,Study,User,1.25,,Bread,B3,2089,,,-1,-1,,,,1
653001ecaa6552b09aa80c1e,8meih3g6qs,Ex2A_Prolific,1,132,2024-02-27T22:12:24+00:00,1.9997470378876,2,Stim_B.csv,Read.csv,Read,B,shoe,,B4,,,89,Study,User,1.25,,Bread,B4,1801,,,-1,-1,,,,1
653001ecaa6552b09aa80c1e,8meih3g6qs,Ex2A_Prolific,1,133,2024-02-27T22:12:27+00:00,2.7400438785553,2,Stim_B.csv,Read.csv,Read,B,sandals,,B5,,,90,Study,User,1.25,,Bread,B5,2547,,,-1,-1,,,,1
653001ecaa6552b09aa80c1e,8meih3g6qs,Ex2A_Prolific,1,134,2024-02-27T22:12:29+00:00,1.9060430526733,2,Stim_B.csv,Read.csv,Read,B,sock,,B6,,,91,Study,User,1.25,,Bread,B6,1712,,,-1,-1,,,,1
653001ecaa6552b09aa80c1e,8meih3g6qs,Ex2A_Prolific,1,135,2024-02-27T22:12:31+00:00,1.9674370288849,2,Stim_B.csv,Read.csv,Read,B,hand,,B7,,,92,Study,User,1.25,,Bread,B7,1773,,,-1,-1,,,,1
653001ecaa6552b09aa80c1e,8meih3g6qs,Ex2A_Prolific,1,136,2024-02-27T22:12:33+00:00,1.8505320549011,2,Stim_B.csv,Read.csv,Read,B,boot,,B8,,,93,Study,User,1.25,,Bread,B8,1639,,,-1,-1,,,,1
653001ecaa6552b09aa80c1e,8meih3g6qs,Ex2A_Prolific,1,137,2024-02-27T22:12:35+00:00,2.5515329837799,2,Stim_B.csv,Read.csv,Read,B,yard,,B9,,,94,Study,User,1.25,,Bread,B9,2328,,,-1,-1,,,,1
653001ecaa6552b09aa80c1e,8meih3g6qs,Ex2A_Prolific,1,138,2024-02-27T22:12:38+00:00,2.5411570072174,2,Stim_B.csv,Read.csv,Read,B,kick,,B10,,,95,Study,User,1.25,,Bread,B10,2340,,,-1,-1,,,,1
653001ecaa6552b09aa80c1e,8meih3g6qs,Ex2A_Prolific,1,139,2024-02-27T22:12:40+00:00,1.8174719810486,2,Stim_B.csv,Read.csv,Read,B,knee,,B11,,,96,Study,User,1.25,,Bread,B11,1622,,,-1,-1,,,,1
653001ecaa6552b09aa80c1e,8meih3g6qs,Ex2A_Prolific,1,140,2024-02-27T22:12:42+00:00,1.9170908927917,2,Stim_B.csv,Read.csv,Read,B,walk,,B12,,,97,Study,User,1.25,,Bread,B12,1708,,,-1,-1,,,,1
653001ecaa6552b09aa80c1e,8meih3g6qs,Ex2A_Prolific,1,141,2024-02-27T22:12:43+00:00,1.4905731678009,2,Stim_B.csv,Read.csv,Read,B,,,,,,0,Instruct,User,-,"You have completed this section. Please click next.",,Instruct166,1266,,,-1,-1,,,,1
653001ecaa6552b09aa80c1e,8meih3g6qs,Ex2A_Prolific,1,142,2024-02-27T22:13:13+00:00,30.206561803818,2,Stim_B.csv,Read.csv,Read,B,,,,,,0,FreeRecall,30,30,"Please type as many words as you can that begin with the letter ""K"". The computer will automatically advance to the next screen in 30 seconds.",,FILLER,30000,"kin kind kins kid kids keep kept keeps keeper keepers khaki k",0,1372,19951,0,0,,1
653001ecaa6552b09aa80c1e,8meih3g6qs,Ex2A_Prolific,1,143,2024-02-27T22:13:18+00:00,4.7193720340729,2,Stim_B.csv,Read.csv,Read,B,,,,,,0,Instruct,User,4,"You have completed this section. Please click next.",,Instruct166,4519,,,-1,-1,,,,1
653001ecaa6552b09aa80c1e,8meih3g6qs,Ex2A_Prolific,1,144,2024-02-27T22:13:23+00:00,4.71222615242,2,Stim_B.csv,Read.csv,Read,B,,,,,,0,Instruct,User,4,"You will now complete a memory test for the words you just studied. Please type as many words from the previous list as you can seperated by a comma. Spelling will not count against you and you can recall the words in any order. This test will be timed for one minute, and the computer will automatically advance once time is up. Click next when you are ready to begin.",,Instruct1666,4515,,,-1,-1,,,,1
653001ecaa6552b09aa80c1e,8meih3g6qs,Ex2A_Prolific,1,145,2024-02-27T22:14:23+00:00,60.202287912369,2,Stim_B.csv,Read.csv,Read,B,,,,,,0,FreeRecall,60,60,"Please type as many words as you can from the previous study list in any order. Please separate each word with a comma. Spelling will not count against you. This screen will automatically advance in one minute.",,RECALL_Test,60002,"shoe boot inch toe walk ankle knee hand foot ",0,1627,20203,0,0,,1
653001ecaa6552b09aa80c1e,8meih3g6qs,Ex2A_Prolific,1,146,2024-02-27T22:14:27+00:00,4.2271099090576,2,Stim_B.csv,Read.csv,Read,B,,,,,,0,Instruct,User,3,"You will now be presented with a new study list. Click next when you are ready to begin.",,NEXT_LIST,4004,,,-1,-1,,,,1
653001ecaa6552b09aa80c1e,8meih3g6qs,Ex2A_Prolific,1,147,2024-02-27T22:14:29+00:00,1.9385411739349,2,Stim_B.csv,Read.csv,Read,B,boy,,F1,,,98,Study,User,1.25,,Flag,F1,1747,,,-1,-1,,,,1
653001ecaa6552b09aa80c1e,8meih3g6qs,Ex2A_Prolific,1,148,2024-02-27T22:14:31+00:00,1.8927829265594,2,Stim_B.csv,Read.csv,Read,B,dolls,,F2,,,99,Study,User,1.25,,Flag,F2,1697,,,-1,-1,,,,1
653001ecaa6552b09aa80c1e,8meih3g6qs,Ex2A_Prolific,1,149,2024-02-27T22:14:33+00:00,2.2788319587708,2,Stim_B.csv,Read.csv,Read,B,pretty,,F3,,,100,Study,User,1.25,,Flag,F3,2060,,,-1,-1,,,,1
653001ecaa6552b09aa80c1e,8meih3g6qs,Ex2A_Prolific,1,150,2024-02-27T22:14:35+00:00,1.8750529289246,2,Stim_B.csv,Read.csv,Read,B,female,,F4,,,101,Study,User,1.25,,Flag,F4,1669,,,-1,-1,,,,1
653001ecaa6552b09aa80c1e,8meih3g6qs,Ex2A_Prolific,1,151,2024-02-27T22:14:38+00:00,3.1684350967407,2,Stim_B.csv,Read.csv,Read,B,dress,,F5,,,102,Study,User,1.25,,Flag,F5,2824,,,-1,-1,,,,1
653001ecaa6552b09aa80c1e,8meih3g6qs,Ex2A_Prolific,1,152,2024-02-27T22:14:40+00:00,2.0651049613953,2,Stim_B.csv,Read.csv,Read,B,date,,F6,,,103,Study,User,1.25,,Flag,F6,1687,,,-1,-1,,,,1
653001ecaa6552b09aa80c1e,8meih3g6qs,Ex2A_Prolific,1,153,2024-02-27T22:14:42+00:00,1.8965301513672,2,Stim_B.csv,Read.csv,Read,B,beautiful,,F7,,,104,Study,User,1.25,,Flag,F7,1701,,,-1,-1,,,,1
653001ecaa6552b09aa80c1e,8meih3g6qs,Ex2A_Prolific,1,154,2024-02-27T22:14:45+00:00,2.1619689464569,2,Stim_B.csv,Read.csv,Read,B,daughter,,F8,,,105,Study,User,1.25,,Flag,F8,1698,,,-1,-1,,,,1
653001ecaa6552b09aa80c1e,8meih3g6qs,Ex2A_Prolific,1,155,2024-02-27T22:14:47+00:00,2.0300979614258,2,Stim_B.csv,Read.csv,Read,B,sister,,F9,,,106,Study,User,1.25,,Flag,F9,1837,,,-1,-1,,,,1
653001ecaa6552b09aa80c1e,8meih3g6qs,Ex2A_Prolific,1,156,2024-02-27T22:14:49+00:00,2.0175058841705,2,Stim_B.csv,Read.csv,Read,B,cute,,F10,,,107,Study,User,1.25,,Flag,F10,1824,,,-1,-1,,,,1
653001ecaa6552b09aa80c1e,8meih3g6qs,Ex2A_Prolific,1,157,2024-02-27T22:14:50+00:00,1.9102129936218,2,Stim_B.csv,Read.csv,Read,B,niece,,F11,,,108,Study,User,1.25,,Flag,F11,1643,,,-1,-1,,,,1
653001ecaa6552b09aa80c1e,8meih3g6qs,Ex2A_Prolific,1,158,2024-02-27T22:14:52+00:00,1.8918750286102,2,Stim_B.csv,Read.csv,Read,B,young,,F12,,,109,Study,User,1.25,,Flag,F12,1696,,,-1,-1,,,,1
653001ecaa6552b09aa80c1e,8meih3g6qs,Ex2A_Prolific,1,159,2024-02-27T22:14:54+00:00,1.4096531867981,2,Stim_B.csv,Read.csv,Read,B,,,,,,0,Instruct,User,-,"You have completed this section. Please click next.",,Instruct166,1202,,,-1,-1,,,,1
653001ecaa6552b09aa80c1e,8meih3g6qs,Ex2A_Prolific,1,160,2024-02-27T22:15:24+00:00,30.202919960022,2,Stim_B.csv,Read.csv,Read,B,,,,,,0,FreeRecall,30,30,"Please type as many words as you can that begin with the letter ""K"". The computer will automatically advance to the next screen in 30 seconds.",,FILLER,30002,"kind kin kins kinds kinder keep keeps keeper keepers kids kid khaki ",0,2018,21657,0,0,,1
653001ecaa6552b09aa80c1e,8meih3g6qs,Ex2A_Prolific,1,161,2024-02-27T22:15:26+00:00,2.3362028598785,2,Stim_B.csv,Read.csv,Read,B,,,,,,0,Instruct,User,-,"You have completed this section. Please click next.",,Instruct166,2136,,,-1,-1,,,,1
653001ecaa6552b09aa80c1e,8meih3g6qs,Ex2A_Prolific,1,162,2024-02-27T22:15:31+00:00,4.7573590278625,2,Stim_B.csv,Read.csv,Read,B,,,,,,0,Instruct,User,4,"You will now complete a memory test for the words you just studied. Please type as many words from the previous list as you can seperated by a comma. Spelling will not count against you and you can recall the words in any order. This test will be timed for one minute, and the computer will automatically advance once time is up. Click next when you are ready to begin.",,Instruct1666,4549,,,-1,-1,,,,1
653001ecaa6552b09aa80c1e,8meih3g6qs,Ex2A_Prolific,1,163,2024-02-27T22:16:31+00:00,60.199716091156,2,Stim_B.csv,Read.csv,Read,B,,,,,,0,FreeRecall,60,60,"Please type as many words as you can from the previous study list in any order. Please separate each word with a comma. Spelling will not count against you. This screen will automatically advance in one minute.",,RECALL_Test,60001,"boy pretty niece beautiful cute daughter date nice good ",0,1144,32952,0,0,,1
653001ecaa6552b09aa80c1e,8meih3g6qs,Ex2A_Prolific,1,164,2024-02-27T22:16:35+00:00,3.8162260055542,2,Stim_B.csv,Read.csv,Read,B,,,,,,0,Instruct,User,3,"You will now be presented with a new study list. Click next when you are ready to begin.",,NEXT_LIST,3620,,,-1,-1,,,,1
653001ecaa6552b09aa80c1e,8meih3g6qs,Ex2A_Prolific,1,165,2024-02-27T22:16:38+00:00,2.8510718345642,2,Stim_B.csv,Read.csv,Read,B,white,,SS1,,,110,Study,User,1.25,,Shirt,SS1,2653,,,-1,-1,,,,1
653001ecaa6552b09aa80c1e,8meih3g6qs,Ex2A_Prolific,1,166,2024-02-27T22:16:40+00:00,2.1021461486816,2,Stim_B.csv,Read.csv,Read,B,gray,,SS2,,,111,Study,User,1.25,,Shirt,SS2,1909,,,-1,-1,,,,1
653001ecaa6552b09aa80c1e,8meih3g6qs,Ex2A_Prolific,1,167,2024-02-27T22:16:42+00:00,1.9307968616486,2,Stim_B.csv,Read.csv,Read,B,brown,,SS3,,,112,Study,User,1.25,,Shirt,SS3,1742,,,-1,-1,,,,1
653001ecaa6552b09aa80c1e,8meih3g6qs,Ex2A_Prolific,1,168,2024-02-27T22:16:44+00:00,2.0225291252136,2,Stim_B.csv,Read.csv,Read,B,coal,,SS4,,,113,Study,User,1.25,,Shirt,SS4,1822,,,-1,-1,,,,1
653001ecaa6552b09aa80c1e,8meih3g6qs,Ex2A_Prolific,1,169,2024-02-27T22:16:46+00:00,1.8960630893707,2,Stim_B.csv,Read.csv,Read,B,dark,,SS5,,,114,Study,User,1.25,,Shirt,SS5,1679,,,-1,-1,,,,1
653001ecaa6552b09aa80c1e,8meih3g6qs,Ex2A_Prolific,1,170,2024-02-27T22:16:48+00:00,1.9035859107971,2,Stim_B.csv,Read.csv,Read,B,color,,SS6,,,115,Study,User,1.25,,Shirt,SS6,1711,,,-1,-1,,,,1
653001ecaa6552b09aa80c1e,8meih3g6qs,Ex2A_Prolific,1,171,2024-02-27T22:16:50+00:00,2.0245230197906,2,Stim_B.csv,Read.csv,Read,B,funeral,,SS7,,,116,Study,User,1.25,,Shirt,SS7,1807,,,-1,-1,,,,1
653001ecaa6552b09aa80c1e,8meih3g6qs,Ex2A_Prolific,1,172,2024-02-27T22:16:52+00:00,1.9234900474548,2,Stim_B.csv,Read.csv,Read,B,blue,,SS8,,,117,Study,User,1.25,,Shirt,SS8,1714,,,-1,-1,,,,1
653001ecaa6552b09aa80c1e,8meih3g6qs,Ex2A_Prolific,1,173,2024-02-27T22:16:54+00:00,1.9022588729858,2,Stim_B.csv,Read.csv,Read,B,charred,,SS9,,,118,Study,User,1.25,,Shirt,SS9,1678,,,-1,-1,,,,1
653001ecaa6552b09aa80c1e,8meih3g6qs,Ex2A_Prolific,1,174,2024-02-27T22:16:56+00:00,1.8756041526794,2,Stim_B.csv,Read.csv,Read,B,ink,,SS10,,,119,Study,User,1.25,,Shirt,SS10,1682,,,-1,-1,,,,1
653001ecaa6552b09aa80c1e,8meih3g6qs,Ex2A_Prolific,1,175,2024-02-27T22:16:58+00:00,2.5898718833923,2,Stim_B.csv,Read.csv,Read,B,death,,SS11,,,120,Study,User,1.25,,Shirt,SS11,2385,,,-1,-1,,,,1
653001ecaa6552b09aa80c1e,8meih3g6qs,Ex2A_Prolific,1,176,2024-02-27T22:17:00+00:00,2.0141019821167,2,Stim_B.csv,Read.csv,Read,B,cat,,SS12,,,121,Study,User,1.25,,Shirt,SS12,1823,,,-1,-1,,,,1
653001ecaa6552b09aa80c1e,8meih3g6qs,Ex2A_Prolific,1,177,2024-02-27T22:17:05+00:00,4.9529209136963,2,Stim_B.csv,Read.csv,Read,B,,,,,,0,Instruct,User,4,"You have completed this section. Please click next.",,Instruct166,4740,,,-1,-1,,,,1
653001ecaa6552b09aa80c1e,8meih3g6qs,Ex2A_Prolific,1,178,2024-02-27T22:17:35+00:00,30.199817180634,2,Stim_B.csv,Read.csv,Read,B,,,,,,0,FreeRecall,30,30,"Please type as many words as you can that begin with the letter ""K"". The computer will automatically advance to the next screen in 30 seconds.",,FILLER,30001,"kind kid kids kinds kinder keep kept keeps keeper keepers khaki kin kins ",0,1690,23488,0,0,,1
653001ecaa6552b09aa80c1e,8meih3g6qs,Ex2A_Prolific,1,179,2024-02-27T22:17:37+00:00,2.0097219944,2,Stim_B.csv,Read.csv,Read,B,,,,,,0,Instruct,User,-,"You have completed this section. Please click next.",,Instruct166,1698,,,-1,-1,,,,1
653001ecaa6552b09aa80c1e,8meih3g6qs,Ex2A_Prolific,1,180,2024-02-27T22:17:42+00:00,4.7600839138031,2,Stim_B.csv,Read.csv,Read,B,,,,,,0,Instruct,User,4,"You will now complete a memory test for the words you just studied. Please type as many words from the previous list as you can seperated by a comma. Spelling will not count against you and you can recall the words in any order. This test will be timed for one minute, and the computer will automatically advance once time is up. Click next when you are ready to begin.",,Instruct1666,4563,,,-1,-1,,,,1
653001ecaa6552b09aa80c1e,8meih3g6qs,Ex2A_Prolific,1,181,2024-02-27T22:18:42+00:00,60.194263935089,2,Stim_B.csv,Read.csv,Read,B,,,,,,0,FreeRecall,60,60,"Please type as many words as you can from the previous study list in any order. Please separate each word with a comma. Spelling will not count against you. This screen will automatically advance in one minute.",,RECALL_Test,60001,"brown gray color charcoal cat funeral blue coal ink ",0,953,23431,0,0,,1
653001ecaa6552b09aa80c1e,8meih3g6qs,Ex2A_Prolific,1,182,2024-02-27T22:18:54+00:00,11.654582977295,2,Stim_B.csv,Read.csv,Read,B,,,,,,0,Instruct,User,-,"You have completed this section. Please click next.",,Instruct7,11456,,,-1,-1,,,,1
653001ecaa6552b09aa80c1e,8meih3g6qs,Ex2A_Prolific,1,183,2024-02-27T22:19:05+00:00,10.823689222336,2,Stim_B.csv,Read.csv,Read,B,,,,,,0,Instruct,User,-,"The following screen will ask you a few questions abour your experience today. You must complete these questions to receive credit.",,Instruct8,10627,,,-1,-1,,,,1
