Username,ID,ExperimentName,Session,Trial,Date,TimeDif,"Condition Number","Stimuli File","Order File","Condition Description","Condition Notes",Stimuli*Cue,Stimuli*Answer,Stimuli*Shuffle,"Stimuli*Stimuli Notes",Stimuli*Value,Procedure*Item,"Procedure*Trial Type","Procedure*Max Time","Procedure*Min Time",Procedure*Text,"Procedure*Procedure Notes",Procedure*Shuffle,Response*RT,Response*Response,Response*Accuracy,Response*RTfirst,Response*RTlast,Response*strictAcc,Response*lenientAcc,Response*focus,Response*Focus
5f3c33aded53341b4d51098a,jk6rzuw7mb,Ex2A_Prolific,1,1,2024-02-27T22:13:48+00:00,6.6861441135406,1,Stim_A.csv,Read.csv,Read,A,,,,,,0,Instruct,-,5,"In this section, you will be presented with a series of words. Please study each word carefully. Your memory will be tested! Click next when you are ready to begin.",Initial_Instruct,Instruct1,6496,,,-1,-1,,,,1
5f3c33aded53341b4d51098a,jk6rzuw7mb,Ex2A_Prolific,1,2,2024-02-27T22:13:53+00:00,4.6957240104675,1,Stim_A.csv,Read.csv,Read,A,,,,,,0,Instruct,User,-,"You will now begin the study. Click next when you are ready to begin.",,Instruct16,4533,,,-1,-1,,,,0.625
5f3c33aded53341b4d51098a,jk6rzuw7mb,Ex2A_Prolific,1,3,2024-02-27T22:13:56+00:00,3.3042829036713,1,Stim_A.csv,Read.csv,Read,A,pane,,Win_1,,,2,Study,User,1.25,,Window,Win_1,3150,,,-1,-1,,,,1
5f3c33aded53341b4d51098a,jk6rzuw7mb,Ex2A_Prolific,1,4,2024-02-27T22:14:00+00:00,3.5199129581451,1,Stim_A.csv,Read.csv,Read,A,sill,,Win_2,,,3,Study,User,1.25,,Window,Win_2,3372,,,-1,-1,,,,0.412
5f3c33aded53341b4d51098a,jk6rzuw7mb,Ex2A_Prolific,1,5,2024-02-27T22:14:02+00:00,2.211296081543,1,Stim_A.csv,Read.csv,Read,A,shutter,,Win_3,,,4,Study,User,1.25,,Window,Win_3,2054,,,-1,-1,,,,1
5f3c33aded53341b4d51098a,jk6rzuw7mb,Ex2A_Prolific,1,6,2024-02-27T22:14:04+00:00,1.8692569732666,1,Stim_A.csv,Read.csv,Read,A,curtain,,Win_4,,,5,Study,User,1.25,,Window,Win_4,1718,,,-1,-1,,,,1
5f3c33aded53341b4d51098a,jk6rzuw7mb,Ex2A_Prolific,1,7,2024-02-27T22:14:07+00:00,3.1133551597595,1,Stim_A.csv,Read.csv,Read,A,door,,Win_5,,,6,Study,User,1.25,,Window,Win_5,2956,,,-1,-1,,,,1
5f3c33aded53341b4d51098a,jk6rzuw7mb,Ex2A_Prolific,1,8,2024-02-27T22:14:10+00:00,2.3815469741821,1,Stim_A.csv,Read.csv,Read,A,ledge,,Win_6,,,7,Study,User,1.25,,Window,Win_6,2230,,,-1,-1,,,,1
5f3c33aded53341b4d51098a,jk6rzuw7mb,Ex2A_Prolific,1,9,2024-02-27T22:14:11+00:00,1.9068038463593,1,Stim_A.csv,Read.csv,Read,A,glass,,Win_7,,,8,Study,User,1.25,,Window,Win_7,1758,,,-1,-1,,,,1
5f3c33aded53341b4d51098a,jk6rzuw7mb,Ex2A_Prolific,1,10,2024-02-27T22:14:13+00:00,1.798947095871,1,Stim_A.csv,Read.csv,Read,A,view,,Win_8,,,9,Study,User,1.25,,Window,Win_8,1649,,,-1,-1,,,,1
5f3c33aded53341b4d51098a,jk6rzuw7mb,Ex2A_Prolific,1,11,2024-02-27T22:14:16+00:00,2.3584830760956,1,Stim_A.csv,Read.csv,Read,A,screen,,Win_9,,,10,Study,User,1.25,,Window,Win_9,2208,,,-1,-1,,,,1
5f3c33aded53341b4d51098a,jk6rzuw7mb,Ex2A_Prolific,1,12,2024-02-27T22:14:18+00:00,2.2634708881378,1,Stim_A.csv,Read.csv,Read,A,shade,,Win_10,,,11,Study,User,1.25,,Window,Win_10,2111,,,-1,-1,,,,1
5f3c33aded53341b4d51098a,jk6rzuw7mb,Ex2A_Prolific,1,13,2024-02-27T22:14:20+00:00,2.3651909828186,1,Stim_A.csv,Read.csv,Read,A,open,,Win_11,,,12,Study,User,1.25,,Window,Win_11,2214,,,-1,-1,,,,1
5f3c33aded53341b4d51098a,jk6rzuw7mb,Ex2A_Prolific,1,14,2024-02-27T22:14:23+00:00,3.081267118454,1,Stim_A.csv,Read.csv,Read,A,frame,,Win_12,,,13,Study,User,1.25,,Window,Win_12,2929,,,-1,-1,,,,1
5f3c33aded53341b4d51098a,jk6rzuw7mb,Ex2A_Prolific,1,15,2024-02-27T22:14:25+00:00,1.3813438415527,1,Stim_A.csv,Read.csv,Read,A,,,,,,0,Instruct,User,-,"You have completed this section. Please click next.",,Instruct166,1230,,,-1,-1,,,,1
5f3c33aded53341b4d51098a,jk6rzuw7mb,Ex2A_Prolific,1,16,2024-02-27T22:14:55+00:00,30.156720161438,1,Stim_A.csv,Read.csv,Read,A,,,,,,0,FreeRecall,30,30,"Please type as many words as you can that begin with the letter ""K"". The computer will automatically advance to the next screen in 30 seconds.",,FILLER,30001,,0,-1,-1,0,0,,0.52
5f3c33aded53341b4d51098a,jk6rzuw7mb,Ex2A_Prolific,1,17,2024-02-27T22:15:00+00:00,4.991486787796,1,Stim_A.csv,Read.csv,Read,A,,,,,,0,Instruct,User,4,"You have completed this section. Please click next.",,Instruct166,4841,,,-1,-1,,,,0.04
5f3c33aded53341b4d51098a,jk6rzuw7mb,Ex2A_Prolific,1,18,2024-02-27T22:15:06+00:00,5.7461252212524,1,Stim_A.csv,Read.csv,Read,A,,,,,,0,Instruct,User,4,"You will now complete a memory test for the words you just studied. Please type as many words from the previous list as you can seperated by a comma. Spelling will not count against you and you can recall the words in any order. This test will be timed for one minute, and the computer will automatically advance once time is up. Click next when you are ready to begin.",,Instruct1666,5588,,,-1,-1,,,,1
5f3c33aded53341b4d51098a,jk6rzuw7mb,Ex2A_Prolific,1,19,2024-02-27T22:16:06+00:00,60.161304950714,1,Stim_A.csv,Read.csv,Read,A,,,,,,0,FreeRecall,60,60,"Please type as many words as you can from the previous study list in any order. Please separate each word with a comma. Spelling will not count against you. This screen will automatically advance in one minute.",,RECALL_Test,60000,"pane, still, shutter, doors",0,1596,5701,0,0,,0.223
5f3c33aded53341b4d51098a,jk6rzuw7mb,Ex2A_Prolific,1,20,2024-02-27T22:16:09+00:00,3.7441298961639,1,Stim_A.csv,Read.csv,Read,A,,,,,,0,Instruct,User,3,"You will now be presented with a new study list. Click next when you are ready to begin.",,NEXT_LIST,3583,,,-1,-1,,,,0
5f3c33aded53341b4d51098a,jk6rzuw7mb,Ex2A_Prolific,1,21,2024-02-27T22:16:18+00:00,8.6405880451202,1,Stim_A.csv,Read.csv,Read,A,sandpaper,,R1,,,14,Study,User,1.25,,Rough,R1,8492,,,-1,-1,,,,0.605
5f3c33aded53341b4d51098a,jk6rzuw7mb,Ex2A_Prolific,1,22,2024-02-27T22:16:21+00:00,2.9231328964233,1,Stim_A.csv,Read.csv,Read,A,smooth,,R2,,,15,Study,User,1.25,,Rough,R2,2768,,,-1,-1,,,,1
5f3c33aded53341b4d51098a,jk6rzuw7mb,Ex2A_Prolific,1,23,2024-02-27T22:16:24+00:00,3.300234079361,1,Stim_A.csv,Read.csv,Read,A,coarse,,R3,,,16,Study,User,1.25,,Rough,R3,3147,,,-1,-1,,,,1
5f3c33aded53341b4d51098a,jk6rzuw7mb,Ex2A_Prolific,1,24,2024-02-27T22:16:27+00:00,2.5992560386658,1,Stim_A.csv,Read.csv,Read,A,tough,,R4,,,17,Study,User,1.25,,Rough,R4,2441,,,-1,-1,,,,1
5f3c33aded53341b4d51098a,jk6rzuw7mb,Ex2A_Prolific,1,25,2024-02-27T22:16:30+00:00,3.1517388820648,1,Stim_A.csv,Read.csv,Read,A,rugged,,R5,,,18,Study,User,1.25,,Rough,R5,2996,,,-1,-1,,,,1
5f3c33aded53341b4d51098a,jk6rzuw7mb,Ex2A_Prolific,1,26,2024-02-27T22:16:33+00:00,3.1686069965363,1,Stim_A.csv,Read.csv,Read,A,bumpy,,R6,,,19,Study,User,1.25,,Rough,R6,3017,,,-1,-1,,,,1
5f3c33aded53341b4d51098a,jk6rzuw7mb,Ex2A_Prolific,1,27,2024-02-27T22:16:35+00:00,2.0944700241089,1,Stim_A.csv,Read.csv,Read,A,jagged,,R7,,,20,Study,User,1.25,,Rough,R7,1930,,,-1,-1,,,,1
5f3c33aded53341b4d51098a,jk6rzuw7mb,Ex2A_Prolific,1,28,2024-02-27T22:16:38+00:00,2.5228931903839,1,Stim_A.csv,Read.csv,Read,A,riders,,R8,,,21,Study,User,1.25,,Rough,R8,2380,,,-1,-1,,,,1
5f3c33aded53341b4d51098a,jk6rzuw7mb,Ex2A_Prolific,1,29,2024-02-27T22:16:41+00:00,3.1864159107208,1,Stim_A.csv,Read.csv,Read,A,uneven,,R9,,,22,Study,User,1.25,,Rough,R9,3030,,,-1,-1,,,,1
5f3c33aded53341b4d51098a,jk6rzuw7mb,Ex2A_Prolific,1,30,2024-02-27T22:16:44+00:00,3.0669770240784,1,Stim_A.csv,Read.csv,Read,A,road,,R10,,,23,Study,User,1.25,,Rough,R10,2915,,,-1,-1,,,,1
5f3c33aded53341b4d51098a,jk6rzuw7mb,Ex2A_Prolific,1,31,2024-02-27T22:16:47+00:00,3.2812309265137,1,Stim_A.csv,Read.csv,Read,A,ready,,R11,,,24,Study,User,1.25,,Rough,R11,3128,,,-1,-1,,,,0.438
5f3c33aded53341b4d51098a,jk6rzuw7mb,Ex2A_Prolific,1,32,2024-02-27T22:16:50+00:00,2.7866201400757,1,Stim_A.csv,Read.csv,Read,A,sand,,R12,,,25,Study,User,1.25,,Rough,R12,2637,,,-1,-1,,,,1
5f3c33aded53341b4d51098a,jk6rzuw7mb,Ex2A_Prolific,1,33,2024-02-27T22:16:57+00:00,7.0460288524628,1,Stim_A.csv,Read.csv,Read,A,,,,,,0,Instruct,User,4,"You have completed this section. Please click next.",,Instruct166,6895,,,-1,-1,,,,1
5f3c33aded53341b4d51098a,jk6rzuw7mb,Ex2A_Prolific,1,34,2024-02-27T22:17:27+00:00,30.15493106842,1,Stim_A.csv,Read.csv,Read,A,,,,,,0,FreeRecall,30,30,"Please type as many words as you can that begin with the letter ""K"". The computer will automatically advance to the next screen in 30 seconds.",,FILLER,30000,,0,-1,-1,0,0,,1
5f3c33aded53341b4d51098a,jk6rzuw7mb,Ex2A_Prolific,1,35,2024-02-27T22:17:32+00:00,4.7670168876648,1,Stim_A.csv,Read.csv,Read,A,,,,,,0,Instruct,User,4,"You have completed this section. Please click next.",,Instruct166,4599,,,-1,-1,,,,1
5f3c33aded53341b4d51098a,jk6rzuw7mb,Ex2A_Prolific,1,36,2024-02-27T22:17:37+00:00,5.1372230052948,1,Stim_A.csv,Read.csv,Read,A,,,,,,0,Instruct,User,4,"You will now complete a memory test for the words you just studied. Please type as many words from the previous list as you can seperated by a comma. Spelling will not count against you and you can recall the words in any order. This test will be timed for one minute, and the computer will automatically advance once time is up. Click next when you are ready to begin.",,Instruct1666,4846,,,-1,-1,,,,1
5f3c33aded53341b4d51098a,jk6rzuw7mb,Ex2A_Prolific,1,37,2024-02-27T22:18:37+00:00,60.148336172104,1,Stim_A.csv,Read.csv,Read,A,,,,,,0,FreeRecall,60,60,"Please type as many words as you can from the previous study list in any order. Please separate each word with a comma. Spelling will not count against you. This screen will automatically advance in one minute.",,RECALL_Test,60002,"sandpaper, smooth, coarse, rugged",0,1739,7955,0,0,,0.163
5f3c33aded53341b4d51098a,jk6rzuw7mb,Ex2A_Prolific,1,38,2024-02-27T22:25:42+00:00,424.20996284485,1,Stim_A.csv,Read.csv,Read,A,,,,,,0,Instruct,User,3,"You will now be presented with a new study list. Click next when you are ready to begin.",,NEXT_LIST,423978,,,-1,-1,,,,0.002
5f3c33aded53341b4d51098a,jk6rzuw7mb,Ex2A_Prolific,1,39,2024-02-27T22:28:20+00:00,158.14034700394,1,Stim_A.csv,Read.csv,Read,A,rage,,A1,,,26,Study,User,1.25,,Anger,A1,157848,,,-1,-1,,,,0.085
5f3c33aded53341b4d51098a,jk6rzuw7mb,Ex2A_Prolific,1,40,2024-02-27T22:28:27+00:00,7.0636961460114,1,Stim_A.csv,Read.csv,Read,A,mad,,A2,,,27,Study,User,1.25,,Anger,A2,6887,,,-1,-1,,,,1
5f3c33aded53341b4d51098a,jk6rzuw7mb,Ex2A_Prolific,1,41,2024-02-27T22:28:29+00:00,1.8554999828339,1,Stim_A.csv,Read.csv,Read,A,enrage,,A3,,,28,Study,User,1.25,,Anger,A3,1683,,,-1,-1,,,,1
5f3c33aded53341b4d51098a,jk6rzuw7mb,Ex2A_Prolific,1,42,2024-02-27T22:28:31+00:00,1.8670890331268,1,Stim_A.csv,Read.csv,Read,A,fury,,A4,,,29,Study,User,1.25,,Anger,A4,1717,,,-1,-1,,,,1
5f3c33aded53341b4d51098a,jk6rzuw7mb,Ex2A_Prolific,1,43,2024-02-27T22:28:33+00:00,2.5658488273621,1,Stim_A.csv,Read.csv,Read,A,temper,,A5,,,30,Study,User,1.25,,Anger,A5,2414,,,-1,-1,,,,1
5f3c33aded53341b4d51098a,jk6rzuw7mb,Ex2A_Prolific,1,44,2024-02-27T22:28:37+00:00,3.9332060813904,1,Stim_A.csv,Read.csv,Read,A,ire,,A6,,,31,Study,User,1.25,,Anger,A6,3783,,,-1,-1,,,,1
5f3c33aded53341b4d51098a,jk6rzuw7mb,Ex2A_Prolific,1,45,2024-02-27T22:28:43+00:00,6.3845570087433,1,Stim_A.csv,Read.csv,Read,A,wrath,,A7,,,32,Study,User,1.25,,Anger,A7,6233,,,-1,-1,,,,0.188
5f3c33aded53341b4d51098a,jk6rzuw7mb,Ex2A_Prolific,1,46,2024-02-27T22:28:51+00:00,7.8329420089722,1,Stim_A.csv,Read.csv,Read,A,mean,,A8,,,33,Study,User,1.25,,Anger,A8,7681,,,-1,-1,,,,1
5f3c33aded53341b4d51098a,jk6rzuw7mb,Ex2A_Prolific,1,47,2024-02-27T22:28:55+00:00,3.4710988998413,1,Stim_A.csv,Read.csv,Read,A,hatred,,A9,,,34,Study,User,1.25,,Anger,A9,3322,,,-1,-1,,,,1
5f3c33aded53341b4d51098a,jk6rzuw7mb,Ex2A_Prolific,1,48,2024-02-27T22:28:59+00:00,4.2005541324615,1,Stim_A.csv,Read.csv,Read,A,fight,,A10,,,35,Study,User,1.25,,Anger,A10,4048,,,-1,-1,,,,1
5f3c33aded53341b4d51098a,jk6rzuw7mb,Ex2A_Prolific,1,49,2024-02-27T22:29:03+00:00,4.2036418914795,1,Stim_A.csv,Read.csv,Read,A,hate,,A11,,,36,Study,User,1.25,,Anger,A11,4052,,,-1,-1,,,,1
5f3c33aded53341b4d51098a,jk6rzuw7mb,Ex2A_Prolific,1,50,2024-02-27T22:29:08+00:00,4.5785369873047,1,Stim_A.csv,Read.csv,Read,A,fear,,A12,,,37,Study,User,1.25,,Anger,A12,4427,,,-1,-1,,,,1
5f3c33aded53341b4d51098a,jk6rzuw7mb,Ex2A_Prolific,1,51,2024-02-27T22:29:09+00:00,1.1783561706543,1,Stim_A.csv,Read.csv,Read,A,,,,,,0,Instruct,User,-,"You have completed this section. Please click next.",,Instruct166,1026,,,-1,-1,,,,1
5f3c33aded53341b4d51098a,jk6rzuw7mb,Ex2A_Prolific,1,52,2024-02-27T22:29:39+00:00,30.154413938522,1,Stim_A.csv,Read.csv,Read,A,,,,,,0,FreeRecall,30,30,"Please type as many words as you can that begin with the letter ""K"". The computer will automatically advance to the next screen in 30 seconds.",,FILLER,30001,,0,-1,-1,0,0,,1
5f3c33aded53341b4d51098a,jk6rzuw7mb,Ex2A_Prolific,1,53,2024-02-27T22:29:47+00:00,7.5651319026947,1,Stim_A.csv,Read.csv,Read,A,,,,,,0,Instruct,User,4,"You have completed this section. Please click next.",,Instruct166,7419,,,-1,-1,,,,1
5f3c33aded53341b4d51098a,jk6rzuw7mb,Ex2A_Prolific,1,54,2024-02-27T22:29:55+00:00,7.869246006012,1,Stim_A.csv,Read.csv,Read,A,,,,,,0,Instruct,User,4,"You will now complete a memory test for the words you just studied. Please type as many words from the previous list as you can seperated by a comma. Spelling will not count against you and you can recall the words in any order. This test will be timed for one minute, and the computer will automatically advance once time is up. Click next when you are ready to begin.",,Instruct1666,7708,,,-1,-1,,,,1
5f3c33aded53341b4d51098a,jk6rzuw7mb,Ex2A_Prolific,1,55,2024-02-27T22:30:55+00:00,60.16175699234,1,Stim_A.csv,Read.csv,Read,A,,,,,,0,FreeRecall,60,60,"Please type as many words as you can from the previous study list in any order. Please separate each word with a comma. Spelling will not count against you. This screen will automatically advance in one minute.",,RECALL_Test,60001,"rage, mad, engrage, fury, hatred, fight",0,1649,20465,0,0,,0.924
5f3c33aded53341b4d51098a,jk6rzuw7mb,Ex2A_Prolific,1,56,2024-02-27T22:31:12+00:00,17.495360136032,1,Stim_A.csv,Read.csv,Read,A,,,,,,0,Instruct,User,3,"You will now be presented with a new study list. Click next when you are ready to begin.",,NEXT_LIST,17331,,,-1,-1,,,,0
5f3c33aded53341b4d51098a,jk6rzuw7mb,Ex2A_Prolific,1,57,2024-02-27T22:31:20+00:00,7.8119938373566,1,Stim_A.csv,Read.csv,Read,A,garbage,,T1,,,38,Study,User,1.25,,Trash,T1,7651,,,-1,-1,,,,1
5f3c33aded53341b4d51098a,jk6rzuw7mb,Ex2A_Prolific,1,58,2024-02-27T22:31:23+00:00,2.7533571720123,1,Stim_A.csv,Read.csv,Read,A,rubbish,,T2,,,39,Study,User,1.25,,Trash,T2,2602,,,-1,-1,,,,1
5f3c33aded53341b4d51098a,jk6rzuw7mb,Ex2A_Prolific,1,59,2024-02-27T22:31:25+00:00,2.7601418495178,1,Stim_A.csv,Read.csv,Read,A,debris,,T3,,,40,Study,User,1.25,,Trash,T3,2608,,,-1,-1,,,,1
5f3c33aded53341b4d51098a,jk6rzuw7mb,Ex2A_Prolific,1,60,2024-02-27T22:31:28+00:00,2.4860830307007,1,Stim_A.csv,Read.csv,Read,A,dump,,T4,,,41,Study,User,1.25,,Trash,T4,2333,,,-1,-1,,,,1
5f3c33aded53341b4d51098a,jk6rzuw7mb,Ex2A_Prolific,1,61,2024-02-27T22:31:31+00:00,3.2038679122925,1,Stim_A.csv,Read.csv,Read,A,litter,,T5,,,42,Study,User,1.25,,Trash,T5,3057,,,-1,-1,,,,1
5f3c33aded53341b4d51098a,jk6rzuw7mb,Ex2A_Prolific,1,62,2024-02-27T22:31:38+00:00,6.326966047287,1,Stim_A.csv,Read.csv,Read,A,landfill,,T6,,,43,Study,User,1.25,,Trash,T6,6168,,,-1,-1,,,,1
5f3c33aded53341b4d51098a,jk6rzuw7mb,Ex2A_Prolific,1,63,2024-02-27T22:31:41+00:00,3.5032780170441,1,Stim_A.csv,Read.csv,Read,A,junk,,T7,,,44,Study,User,1.25,,Trash,T7,3338,,,-1,-1,,,,1
5f3c33aded53341b4d51098a,jk6rzuw7mb,Ex2A_Prolific,1,64,2024-02-27T22:31:44+00:00,2.6824231147766,1,Stim_A.csv,Read.csv,Read,A,waste,,T8,,,45,Study,User,1.25,,Trash,T8,2533,,,-1,-1,,,,1
5f3c33aded53341b4d51098a,jk6rzuw7mb,Ex2A_Prolific,1,65,2024-02-27T22:31:46+00:00,2.608067035675,1,Stim_A.csv,Read.csv,Read,A,sewage,,T9,,,46,Study,User,1.25,,Trash,T9,2445,,,-1,-1,,,,1
5f3c33aded53341b4d51098a,jk6rzuw7mb,Ex2A_Prolific,1,66,2024-02-27T22:31:49+00:00,2.735827922821,1,Stim_A.csv,Read.csv,Read,A,pile,,T10,,,47,Study,User,1.25,,Trash,T10,2588,,,-1,-1,,,,1
5f3c33aded53341b4d51098a,jk6rzuw7mb,Ex2A_Prolific,1,67,2024-02-27T22:31:51+00:00,2.0855178833008,1,Stim_A.csv,Read.csv,Read,A,scraps,,T11,,,48,Study,User,1.25,,Trash,T11,1925,,,-1,-1,,,,1
5f3c33aded53341b4d51098a,jk6rzuw7mb,Ex2A_Prolific,1,68,2024-02-27T22:31:53+00:00,1.9107151031494,1,Stim_A.csv,Read.csv,Read,A,refuse,,T12,,,49,Study,User,1.25,,Trash,T12,1752,,,-1,-1,,,,1
5f3c33aded53341b4d51098a,jk6rzuw7mb,Ex2A_Prolific,1,69,2024-02-27T22:31:54+00:00,0.98250007629395,1,Stim_A.csv,Read.csv,Read,A,,,,,,0,Instruct,User,-,"You have completed this section. Please click next.",,Instruct166,809,,,-1,-1,,,,1
5f3c33aded53341b4d51098a,jk6rzuw7mb,Ex2A_Prolific,1,70,2024-02-27T22:32:24+00:00,30.148723840714,1,Stim_A.csv,Read.csv,Read,A,,,,,,0,FreeRecall,30,30,"Please type as many words as you can that begin with the letter ""K"". The computer will automatically advance to the next screen in 30 seconds.",,FILLER,30000,,0,-1,-1,0,0,,0.167
5f3c33aded53341b4d51098a,jk6rzuw7mb,Ex2A_Prolific,1,71,2024-02-27T22:32:27+00:00,2.6986451148987,1,Stim_A.csv,Read.csv,Read,A,,,,,,0,Instruct,User,-,"You have completed this section. Please click next.",,Instruct166,2534,,,-1,-1,,,,0
5f3c33aded53341b4d51098a,jk6rzuw7mb,Ex2A_Prolific,1,72,2024-02-27T22:32:38+00:00,11.449947834015,1,Stim_A.csv,Read.csv,Read,A,,,,,,0,Instruct,User,4,"You will now complete a memory test for the words you just studied. Please type as many words from the previous list as you can seperated by a comma. Spelling will not count against you and you can recall the words in any order. This test will be timed for one minute, and the computer will automatically advance once time is up. Click next when you are ready to begin.",,Instruct1666,11295,,,-1,-1,,,,1
5f3c33aded53341b4d51098a,jk6rzuw7mb,Ex2A_Prolific,1,73,2024-02-27T22:33:38+00:00,60.165164232254,1,Stim_A.csv,Read.csv,Read,A,,,,,,0,FreeRecall,60,60,"Please type as many words as you can from the previous study list in any order. Please separate each word with a comma. Spelling will not count against you. This screen will automatically advance in one minute.",,RECALL_Test,60002,"garbage, dump, debris, landfill, scarp, waste",0,-1,-1,0,0,,0.363
5f3c33aded53341b4d51098a,jk6rzuw7mb,Ex2A_Prolific,1,74,2024-02-27T22:33:42+00:00,3.6219298839569,1,Stim_A.csv,Read.csv,Read,A,,,,,,0,Instruct,User,3,"You will now be presented with a new study list. Click next when you are ready to begin.",,NEXT_LIST,3448,,,-1,-1,,,,1
5f3c33aded53341b4d51098a,jk6rzuw7mb,Ex2A_Prolific,1,75,2024-02-27T22:33:44+00:00,2.2432999610901,1,Stim_A.csv,Read.csv,Read,A,physician,,D1,,,50,Study,User,1.25,,Doctor,D1,2099,,,-1,-1,,,,1
5f3c33aded53341b4d51098a,jk6rzuw7mb,Ex2A_Prolific,1,76,2024-02-27T22:33:46+00:00,2.1198070049286,1,Stim_A.csv,Read.csv,Read,A,nurse,,D2,,,51,Study,User,1.25,,Doctor,D2,1961,,,-1,-1,,,,1
5f3c33aded53341b4d51098a,jk6rzuw7mb,Ex2A_Prolific,1,77,2024-02-27T22:33:49+00:00,2.1485919952393,1,Stim_A.csv,Read.csv,Read,A,stethoscope,,D3,,,52,Study,User,1.25,,Doctor,D3,1995,,,-1,-1,,,,1
5f3c33aded53341b4d51098a,jk6rzuw7mb,Ex2A_Prolific,1,78,2024-02-27T22:33:51+00:00,1.962541103363,1,Stim_A.csv,Read.csv,Read,A,surgeon,,D4,,,53,Study,User,1.25,,Doctor,D4,1809,,,-1,-1,,,,1
5f3c33aded53341b4d51098a,jk6rzuw7mb,Ex2A_Prolific,1,79,2024-02-27T22:33:53+00:00,1.9444689750671,1,Stim_A.csv,Read.csv,Read,A,patient,,D5,,,54,Study,User,1.25,,Doctor,D5,1773,,,-1,-1,,,,1
5f3c33aded53341b4d51098a,jk6rzuw7mb,Ex2A_Prolific,1,80,2024-02-27T22:33:55+00:00,2.377690076828,1,Stim_A.csv,Read.csv,Read,A,clinic,,D6,,,55,Study,User,1.25,,Doctor,D6,2222,,,-1,-1,,,,1
5f3c33aded53341b4d51098a,jk6rzuw7mb,Ex2A_Prolific,1,81,2024-02-27T22:33:57+00:00,2.344997882843,1,Stim_A.csv,Read.csv,Read,A,dentist,,D7,,,56,Study,User,1.25,,Doctor,D7,2185,,,-1,-1,,,,1
5f3c33aded53341b4d51098a,jk6rzuw7mb,Ex2A_Prolific,1,82,2024-02-27T22:34:00+00:00,2.3777680397034,1,Stim_A.csv,Read.csv,Read,A,medicine,,D8,,,57,Study,User,1.25,,Doctor,D8,2226,,,-1,-1,,,,1
5f3c33aded53341b4d51098a,jk6rzuw7mb,Ex2A_Prolific,1,83,2024-02-27T22:34:02+00:00,2.1592800617218,1,Stim_A.csv,Read.csv,Read,A,lawyer,,D9,,,58,Study,User,1.25,,Doctor,D9,2005,,,-1,-1,,,,1
5f3c33aded53341b4d51098a,jk6rzuw7mb,Ex2A_Prolific,1,84,2024-02-27T22:34:05+00:00,2.9555349349976,1,Stim_A.csv,Read.csv,Read,A,health,,D10,,,59,Study,User,1.25,,Doctor,D10,2804,,,-1,-1,,,,1
5f3c33aded53341b4d51098a,jk6rzuw7mb,Ex2A_Prolific,1,85,2024-02-27T22:34:07+00:00,2.1767020225525,1,Stim_A.csv,Read.csv,Read,A,sick,,D11,,,60,Study,User,1.25,,Doctor,D11,2022,,,-1,-1,,,,1
5f3c33aded53341b4d51098a,jk6rzuw7mb,Ex2A_Prolific,1,86,2024-02-27T22:34:09+00:00,2.1824898719788,1,Stim_A.csv,Read.csv,Read,A,cure,,D12,,,61,Study,User,1.25,,Doctor,D12,2027,,,-1,-1,,,,1
5f3c33aded53341b4d51098a,jk6rzuw7mb,Ex2A_Prolific,1,87,2024-02-27T22:34:10+00:00,0.9298300743103,1,Stim_A.csv,Read.csv,Read,A,,,,,,0,Instruct,User,-,"You have completed this section. Please click next.",,Instruct166,781,,,-1,-1,,,,1
5f3c33aded53341b4d51098a,jk6rzuw7mb,Ex2A_Prolific,1,88,2024-02-27T22:34:40+00:00,30.156810998917,1,Stim_A.csv,Read.csv,Read,A,,,,,,0,FreeRecall,30,30,"Please type as many words as you can that begin with the letter ""K"". The computer will automatically advance to the next screen in 30 seconds.",,FILLER,30000,,0,-1,-1,0,0,,1
5f3c33aded53341b4d51098a,jk6rzuw7mb,Ex2A_Prolific,1,89,2024-02-27T22:34:45+00:00,4.6061398983002,1,Stim_A.csv,Read.csv,Read,A,,,,,,0,Instruct,User,4,"You have completed this section. Please click next.",,Instruct166,4454,,,-1,-1,,,,1
5f3c33aded53341b4d51098a,jk6rzuw7mb,Ex2A_Prolific,1,90,2024-02-27T22:34:50+00:00,4.7599310874939,1,Stim_A.csv,Read.csv,Read,A,,,,,,0,Instruct,User,4,"You will now complete a memory test for the words you just studied. Please type as many words from the previous list as you can seperated by a comma. Spelling will not count against you and you can recall the words in any order. This test will be timed for one minute, and the computer will automatically advance once time is up. Click next when you are ready to begin.",,Instruct1666,4598,,,-1,-1,,,,1
5f3c33aded53341b4d51098a,jk6rzuw7mb,Ex2A_Prolific,1,91,2024-02-27T22:35:50+00:00,60.19673705101,1,Stim_A.csv,Read.csv,Read,A,,,,,,0,FreeRecall,60,60,"Please type as many words as you can from the previous study list in any order. Please separate each word with a comma. Spelling will not count against you. This screen will automatically advance in one minute.",,RECALL_Test,60001,"surgeon, patient, lawyer, cure, sick, health, medicine, dentist",0,1528,25691,0,0,,0.51
5f3c33aded53341b4d51098a,jk6rzuw7mb,Ex2A_Prolific,1,92,2024-02-27T22:35:57+00:00,7.4074699878693,1,Stim_A.csv,Read.csv,Read,A,,,,,,0,Instruct,User,3,"You will now be presented with a new study list. Click next when you are ready to begin.",,NEXT_LIST,7252,,,-1,-1,,,,0.027
5f3c33aded53341b4d51098a,jk6rzuw7mb,Ex2A_Prolific,1,93,2024-02-27T22:35:59+00:00,2.1098799705505,1,Stim_A.csv,Read.csv,Read,A,fast,,S1,,,62,Study,User,1.25,,Slow,S1,1913,,,-1,-1,,,,1
5f3c33aded53341b4d51098a,jk6rzuw7mb,Ex2A_Prolific,1,94,2024-02-27T22:36:06+00:00,6.6519749164581,1,Stim_A.csv,Read.csv,Read,A,snail,,S2,,,63,Study,User,1.25,,Slow,S2,6494,,,-1,-1,,,,0.485
5f3c33aded53341b4d51098a,jk6rzuw7mb,Ex2A_Prolific,1,95,2024-02-27T22:36:08+00:00,1.742448091507,1,Stim_A.csv,Read.csv,Read,A,turtle,,S3,,,64,Study,User,1.25,,Slow,S3,1589,,,-1,-1,,,,1
5f3c33aded53341b4d51098a,jk6rzuw7mb,Ex2A_Prolific,1,96,2024-02-27T22:36:10+00:00,1.8983340263367,1,Stim_A.csv,Read.csv,Read,A,sluggish,,S4,,,65,Study,User,1.25,,Slow,S4,1748,,,-1,-1,,,,1
5f3c33aded53341b4d51098a,jk6rzuw7mb,Ex2A_Prolific,1,97,2024-02-27T22:36:12+00:00,2.3315138816833,1,Stim_A.csv,Read.csv,Read,A,quick,,S5,,,66,Study,User,1.25,,Slow,S5,2176,,,-1,-1,,,,1
5f3c33aded53341b4d51098a,jk6rzuw7mb,Ex2A_Prolific,1,98,2024-02-27T22:36:14+00:00,1.987960100174,1,Stim_A.csv,Read.csv,Read,A,molasses,,S6,,,67,Study,User,1.25,,Slow,S6,1832,,,-1,-1,,,,1
5f3c33aded53341b4d51098a,jk6rzuw7mb,Ex2A_Prolific,1,99,2024-02-27T22:36:17+00:00,3.2832119464874,1,Stim_A.csv,Read.csv,Read,A,lethargic,,S7,,,68,Study,User,1.25,,Slow,S7,3113,,,-1,-1,,,,1
5f3c33aded53341b4d51098a,jk6rzuw7mb,Ex2A_Prolific,1,100,2024-02-27T22:36:23+00:00,5.8847169876099,1,Stim_A.csv,Read.csv,Read,A,speed,,S8,,,69,Study,User,1.25,,Slow,S8,5729,,,-1,-1,,,,1
5f3c33aded53341b4d51098a,jk6rzuw7mb,Ex2A_Prolific,1,101,2024-02-27T22:36:27+00:00,3.8308601379395,1,Stim_A.csv,Read.csv,Read,A,delay,,S9,,,70,Study,User,1.25,,Slow,S9,3682,,,-1,-1,,,,1
5f3c33aded53341b4d51098a,jk6rzuw7mb,Ex2A_Prolific,1,102,2024-02-27T22:36:29+00:00,2.3500089645386,1,Stim_A.csv,Read.csv,Read,A,hesitant,,S10,,,71,Study,User,1.25,,Slow,S10,2203,,,-1,-1,,,,1
5f3c33aded53341b4d51098a,jk6rzuw7mb,Ex2A_Prolific,1,103,2024-02-27T22:36:31+00:00,1.9197928905487,1,Stim_A.csv,Read.csv,Read,A,cautious,,S11,,,72,Study,User,1.25,,Slow,S11,1765,,,-1,-1,,,,1
5f3c33aded53341b4d51098a,jk6rzuw7mb,Ex2A_Prolific,1,104,2024-02-27T22:36:33+00:00,1.9197821617126,1,Stim_A.csv,Read.csv,Read,A,traffic,,S12,,,73,Study,User,1.25,,Slow,S12,1764,,,-1,-1,,,,1
5f3c33aded53341b4d51098a,jk6rzuw7mb,Ex2A_Prolific,1,105,2024-02-27T22:36:38+00:00,5.2813289165497,1,Stim_A.csv,Read.csv,Read,A,,,,,,0,Instruct,User,4,"You have completed this section. Please click next.",,Instruct166,5126,,,-1,-1,,,,1
5f3c33aded53341b4d51098a,jk6rzuw7mb,Ex2A_Prolific,1,106,2024-02-27T22:37:09+00:00,30.162342071533,1,Stim_A.csv,Read.csv,Read,A,,,,,,0,FreeRecall,30,30,"Please type as many words as you can that begin with the letter ""K"". The computer will automatically advance to the next screen in 30 seconds.",,FILLER,30002,,0,-1,-1,0,0,,0.78
5f3c33aded53341b4d51098a,jk6rzuw7mb,Ex2A_Prolific,1,107,2024-02-27T22:37:10+00:00,1.1247580051422,1,Stim_A.csv,Read.csv,Read,A,,,,,,0,Instruct,User,-,"You have completed this section. Please click next.",,Instruct166,975,,,-1,-1,,,,0.6
5f3c33aded53341b4d51098a,jk6rzuw7mb,Ex2A_Prolific,1,108,2024-02-27T22:37:20+00:00,10.807884931564,1,Stim_A.csv,Read.csv,Read,A,,,,,,0,Instruct,User,4,"You will now complete a memory test for the words you just studied. Please type as many words from the previous list as you can seperated by a comma. Spelling will not count against you and you can recall the words in any order. This test will be timed for one minute, and the computer will automatically advance once time is up. Click next when you are ready to begin.",,Instruct1666,10646,,,-1,-1,,,,1
5f3c33aded53341b4d51098a,jk6rzuw7mb,Ex2A_Prolific,1,109,2024-02-27T22:38:21+00:00,60.15558385849,1,Stim_A.csv,Read.csv,Read,A,,,,,,0,FreeRecall,60,60,"Please type as many words as you can from the previous study list in any order. Please separate each word with a comma. Spelling will not count against you. This screen will automatically advance in one minute.",,RECALL_Test,60002,"fast, sluggish, turtle, quick, traffic, lethargic",0,852,20518,0,0,,0.714
5f3c33aded53341b4d51098a,jk6rzuw7mb,Ex2A_Prolific,1,110,2024-02-27T22:38:24+00:00,3.7897260189056,1,Stim_A.csv,Read.csv,Read,A,,,,,,0,Instruct,User,3,"You will now be presented with a new study list. Click next when you are ready to begin.",,NEXT_LIST,3634,,,-1,-1,,,,0.053
5f3c33aded53341b4d51098a,jk6rzuw7mb,Ex2A_Prolific,1,111,2024-02-27T22:38:27+00:00,2.292927980423,1,Stim_A.csv,Read.csv,Read,A,mississippi,,RR1,,,74,Study,User,1.25,,River,RR1,2119,,,-1,-1,,,,1
5f3c33aded53341b4d51098a,jk6rzuw7mb,Ex2A_Prolific,1,112,2024-02-27T22:38:29+00:00,1.9551231861115,1,Stim_A.csv,Read.csv,Read,A,creek,,RR2,,,75,Study,User,1.25,,River,RR2,1800,,,-1,-1,,,,1
5f3c33aded53341b4d51098a,jk6rzuw7mb,Ex2A_Prolific,1,113,2024-02-27T22:38:31+00:00,1.8729958534241,1,Stim_A.csv,Read.csv,Read,A,stream,,RR3,,,76,Study,User,1.25,,River,RR3,1716,,,-1,-1,,,,1
5f3c33aded53341b4d51098a,jk6rzuw7mb,Ex2A_Prolific,1,114,2024-02-27T22:38:33+00:00,2.8662891387939,1,Stim_A.csv,Read.csv,Read,A,flow,,RR4,,,77,Study,User,1.25,,River,RR4,2716,,,-1,-1,,,,1
5f3c33aded53341b4d51098a,jk6rzuw7mb,Ex2A_Prolific,1,115,2024-02-27T22:38:36+00:00,2.1942219734192,1,Stim_A.csv,Read.csv,Read,A,bridge,,RR5,,,78,Study,User,1.25,,River,RR5,2045,,,-1,-1,,,,1
5f3c33aded53341b4d51098a,jk6rzuw7mb,Ex2A_Prolific,1,116,2024-02-27T22:38:38+00:00,2.3589198589325,1,Stim_A.csv,Read.csv,Read,A,brook,,RR6,,,79,Study,User,1.25,,River,RR6,2206,,,-1,-1,,,,1
5f3c33aded53341b4d51098a,jk6rzuw7mb,Ex2A_Prolific,1,117,2024-02-27T22:38:40+00:00,2.1400780677795,1,Stim_A.csv,Read.csv,Read,A,lake,,RR7,,,80,Study,User,1.25,,River,RR7,1985,,,-1,-1,,,,1
5f3c33aded53341b4d51098a,jk6rzuw7mb,Ex2A_Prolific,1,118,2024-02-27T22:38:43+00:00,2.4731349945068,1,Stim_A.csv,Read.csv,Read,A,barge,,RR8,,,81,Study,User,1.25,,River,RR8,2320,,,-1,-1,,,,1
5f3c33aded53341b4d51098a,jk6rzuw7mb,Ex2A_Prolific,1,119,2024-02-27T22:38:45+00:00,2.6119999885559,1,Stim_A.csv,Read.csv,Read,A,water,,RR9,,,82,Study,User,1.25,,River,RR9,2461,,,-1,-1,,,,1
5f3c33aded53341b4d51098a,jk6rzuw7mb,Ex2A_Prolific,1,120,2024-02-27T22:38:47+00:00,2.0326581001282,1,Stim_A.csv,Read.csv,Read,A,boat,,RR10,,,83,Study,User,1.25,,River,RR10,1873,,,-1,-1,,,,1
5f3c33aded53341b4d51098a,jk6rzuw7mb,Ex2A_Prolific,1,121,2024-02-27T22:38:50+00:00,2.411062002182,1,Stim_A.csv,Read.csv,Read,A,tide,,RR11,,,84,Study,User,1.25,,River,RR11,2269,,,-1,-1,,,,1
5f3c33aded53341b4d51098a,jk6rzuw7mb,Ex2A_Prolific,1,122,2024-02-27T22:38:52+00:00,2.6630680561066,1,Stim_A.csv,Read.csv,Read,A,swim,,RR12,,,85,Study,User,1.25,,River,RR12,2504,,,-1,-1,,,,1
5f3c33aded53341b4d51098a,jk6rzuw7mb,Ex2A_Prolific,1,123,2024-02-27T22:38:57+00:00,4.805764913559,1,Stim_A.csv,Read.csv,Read,A,,,,,,0,Instruct,User,4,"You have completed this section. Please click next.",,Instruct166,4643,,,-1,-1,,,,1
5f3c33aded53341b4d51098a,jk6rzuw7mb,Ex2A_Prolific,1,124,2024-02-27T22:39:27+00:00,30.152396917343,1,Stim_A.csv,Read.csv,Read,A,,,,,,0,FreeRecall,30,30,"Please type as many words as you can that begin with the letter ""K"". The computer will automatically advance to the next screen in 30 seconds.",,FILLER,30000,,0,-1,-1,0,0,,1
5f3c33aded53341b4d51098a,jk6rzuw7mb,Ex2A_Prolific,1,125,2024-02-27T22:39:32+00:00,5.0836541652679,1,Stim_A.csv,Read.csv,Read,A,,,,,,0,Instruct,User,4,"You have completed this section. Please click next.",,Instruct166,4918,,,-1,-1,,,,1
5f3c33aded53341b4d51098a,jk6rzuw7mb,Ex2A_Prolific,1,126,2024-02-27T22:39:39+00:00,6.2020199298859,1,Stim_A.csv,Read.csv,Read,A,,,,,,0,Instruct,User,4,"You will now complete a memory test for the words you just studied. Please type as many words from the previous list as you can seperated by a comma. Spelling will not count against you and you can recall the words in any order. This test will be timed for one minute, and the computer will automatically advance once time is up. Click next when you are ready to begin.",,Instruct1666,6039,,,-1,-1,,,,1
5f3c33aded53341b4d51098a,jk6rzuw7mb,Ex2A_Prolific,1,127,2024-02-27T22:40:39+00:00,60.163568019867,1,Stim_A.csv,Read.csv,Read,A,,,,,,0,FreeRecall,60,60,"Please type as many words as you can from the previous study list in any order. Please separate each word with a comma. Spelling will not count against you. This screen will automatically advance in one minute.",,RECALL_Test,60001,"creek, stream, bridge, flow, water, swim, lake, mississipi, boat ",0,1466,33936,0,0,,1
5f3c33aded53341b4d51098a,jk6rzuw7mb,Ex2A_Prolific,1,128,2024-02-27T22:40:42+00:00,3.6324529647827,1,Stim_A.csv,Read.csv,Read,A,,,,,,0,Instruct,User,3,"You will now be presented with a new study list. Click next when you are ready to begin.",,NEXT_LIST,3481,,,-1,-1,,,,1
5f3c33aded53341b4d51098a,jk6rzuw7mb,Ex2A_Prolific,1,129,2024-02-27T22:40:44+00:00,2.0424919128418,1,Stim_A.csv,Read.csv,Read,A,rye,,B1,,,86,Study,User,1.25,,Bread,B1,1880,,,-1,-1,,,,1
5f3c33aded53341b4d51098a,jk6rzuw7mb,Ex2A_Prolific,1,130,2024-02-27T22:40:47+00:00,2.5367481708527,1,Stim_A.csv,Read.csv,Read,A,loaf,,B2,,,87,Study,User,1.25,,Bread,B2,2377,,,-1,-1,,,,1
5f3c33aded53341b4d51098a,jk6rzuw7mb,Ex2A_Prolific,1,131,2024-02-27T22:40:49+00:00,1.8997609615326,1,Stim_A.csv,Read.csv,Read,A,butter,,B3,,,88,Study,User,1.25,,Bread,B3,1747,,,-1,-1,,,,1
5f3c33aded53341b4d51098a,jk6rzuw7mb,Ex2A_Prolific,1,132,2024-02-27T22:40:51+00:00,2.2968699932098,1,Stim_A.csv,Read.csv,Read,A,toast,,B4,,,89,Study,User,1.25,,Bread,B4,2134,,,-1,-1,,,,1
5f3c33aded53341b4d51098a,jk6rzuw7mb,Ex2A_Prolific,1,133,2024-02-27T22:40:53+00:00,2.0604069232941,1,Stim_A.csv,Read.csv,Read,A,dough,,B5,,,90,Study,User,1.25,,Bread,B5,1901,,,-1,-1,,,,1
5f3c33aded53341b4d51098a,jk6rzuw7mb,Ex2A_Prolific,1,134,2024-02-27T22:40:55+00:00,2.004252910614,1,Stim_A.csv,Read.csv,Read,A,crust,,B6,,,91,Study,User,1.25,,Bread,B6,1850,,,-1,-1,,,,1
5f3c33aded53341b4d51098a,jk6rzuw7mb,Ex2A_Prolific,1,135,2024-02-27T22:40:57+00:00,2.1626410484314,1,Stim_A.csv,Read.csv,Read,A,flour,,B7,,,92,Study,User,1.25,,Bread,B7,2004,,,-1,-1,,,,1
5f3c33aded53341b4d51098a,jk6rzuw7mb,Ex2A_Prolific,1,136,2024-02-27T22:40:59+00:00,1.8984971046448,1,Stim_A.csv,Read.csv,Read,A,sandwich,,B8,,,93,Study,User,1.25,,Bread,B8,1739,,,-1,-1,,,,1
5f3c33aded53341b4d51098a,jk6rzuw7mb,Ex2A_Prolific,1,137,2024-02-27T22:41:01+00:00,1.9145510196686,1,Stim_A.csv,Read.csv,Read,A,jam,,B9,,,94,Study,User,1.25,,Bread,B9,1763,,,-1,-1,,,,1
5f3c33aded53341b4d51098a,jk6rzuw7mb,Ex2A_Prolific,1,138,2024-02-27T22:41:03+00:00,1.9725270271301,1,Stim_A.csv,Read.csv,Read,A,jelly,,B10,,,95,Study,User,1.25,,Bread,B10,1815,,,-1,-1,,,,1
5f3c33aded53341b4d51098a,jk6rzuw7mb,Ex2A_Prolific,1,139,2024-02-27T22:41:05+00:00,1.8953409194946,1,Stim_A.csv,Read.csv,Read,A,slice,,B11,,,96,Study,User,1.25,,Bread,B11,1742,,,-1,-1,,,,1
5f3c33aded53341b4d51098a,jk6rzuw7mb,Ex2A_Prolific,1,140,2024-02-27T22:41:07+00:00,1.7807040214539,1,Stim_A.csv,Read.csv,Read,A,milk,,B12,,,97,Study,User,1.25,,Bread,B12,1613,,,-1,-1,,,,1
5f3c33aded53341b4d51098a,jk6rzuw7mb,Ex2A_Prolific,1,141,2024-02-27T22:41:08+00:00,0.99105405807495,1,Stim_A.csv,Read.csv,Read,A,,,,,,0,Instruct,User,-,"You have completed this section. Please click next.",,Instruct166,829,,,-1,-1,,,,1
5f3c33aded53341b4d51098a,jk6rzuw7mb,Ex2A_Prolific,1,142,2024-02-27T22:41:38+00:00,30.165262937546,1,Stim_A.csv,Read.csv,Read,A,,,,,,0,FreeRecall,30,30,"Please type as many words as you can that begin with the letter ""K"". The computer will automatically advance to the next screen in 30 seconds.",,FILLER,30001,,0,-1,-1,0,0,,1
5f3c33aded53341b4d51098a,jk6rzuw7mb,Ex2A_Prolific,1,143,2024-02-27T22:41:39+00:00,1.1246209144592,1,Stim_A.csv,Read.csv,Read,A,,,,,,0,Instruct,User,-,"You have completed this section. Please click next.",,Instruct166,973,,,-1,-1,,,,1
5f3c33aded53341b4d51098a,jk6rzuw7mb,Ex2A_Prolific,1,144,2024-02-27T22:41:44+00:00,4.7359240055084,1,Stim_A.csv,Read.csv,Read,A,,,,,,0,Instruct,User,4,"You will now complete a memory test for the words you just studied. Please type as many words from the previous list as you can seperated by a comma. Spelling will not count against you and you can recall the words in any order. This test will be timed for one minute, and the computer will automatically advance once time is up. Click next when you are ready to begin.",,Instruct1666,4576,,,-1,-1,,,,1
5f3c33aded53341b4d51098a,jk6rzuw7mb,Ex2A_Prolific,1,145,2024-02-27T22:42:44+00:00,60.157850027084,1,Stim_A.csv,Read.csv,Read,A,,,,,,0,FreeRecall,60,60,"Please type as many words as you can from the previous study list in any order. Please separate each word with a comma. Spelling will not count against you. This screen will automatically advance in one minute.",,RECALL_Test,60001,"rye, loaf, toast, butter, crust, jam, jelly, sandwich ",0,1323,39217,0,0,,1
5f3c33aded53341b4d51098a,jk6rzuw7mb,Ex2A_Prolific,1,146,2024-02-27T22:42:49+00:00,5.4861829280853,1,Stim_A.csv,Read.csv,Read,A,,,,,,0,Instruct,User,3,"You will now be presented with a new study list. Click next when you are ready to begin.",,NEXT_LIST,5335,,,-1,-1,,,,1
5f3c33aded53341b4d51098a,jk6rzuw7mb,Ex2A_Prolific,1,147,2024-02-27T22:42:51+00:00,1.8291161060333,1,Stim_A.csv,Read.csv,Read,A,banner,,F1,,,98,Study,User,1.25,,Flag,F1,1662,,,-1,-1,,,,1
5f3c33aded53341b4d51098a,jk6rzuw7mb,Ex2A_Prolific,1,148,2024-02-27T22:42:53+00:00,1.9190769195557,1,Stim_A.csv,Read.csv,Read,A,checkered,,F2,,,99,Study,User,1.25,,Flag,F2,1752,,,-1,-1,,,,1
5f3c33aded53341b4d51098a,jk6rzuw7mb,Ex2A_Prolific,1,149,2024-02-27T22:42:55+00:00,1.7347240447998,1,Stim_A.csv,Read.csv,Read,A,american,,F3,,,100,Study,User,1.25,,Flag,F3,1571,,,-1,-1,,,,1
5f3c33aded53341b4d51098a,jk6rzuw7mb,Ex2A_Prolific,1,150,2024-02-27T22:42:57+00:00,1.9737141132355,1,Stim_A.csv,Read.csv,Read,A,stripes,,F4,,,101,Study,User,1.25,,Flag,F4,1809,,,-1,-1,,,,1
5f3c33aded53341b4d51098a,jk6rzuw7mb,Ex2A_Prolific,1,151,2024-02-27T22:42:59+00:00,2.0805208683014,1,Stim_A.csv,Read.csv,Read,A,pole,,F5,,,102,Study,User,1.25,,Flag,F5,1927,,,-1,-1,,,,1
5f3c33aded53341b4d51098a,jk6rzuw7mb,Ex2A_Prolific,1,152,2024-02-27T22:43:01+00:00,1.9721620082855,1,Stim_A.csv,Read.csv,Read,A,anthem,,F6,,,103,Study,User,1.25,,Flag,F6,1820,,,-1,-1,,,,1
5f3c33aded53341b4d51098a,jk6rzuw7mb,Ex2A_Prolific,1,153,2024-02-27T22:43:03+00:00,2.0064790248871,1,Stim_A.csv,Read.csv,Read,A,emblem,,F7,,,104,Study,User,1.25,,Flag,F7,1851,,,-1,-1,,,,1
5f3c33aded53341b4d51098a,jk6rzuw7mb,Ex2A_Prolific,1,154,2024-02-27T22:43:07+00:00,3.9242730140686,1,Stim_A.csv,Read.csv,Read,A,national,,F8,,,105,Study,User,1.25,,Flag,F8,3766,,,-1,-1,,,,1
5f3c33aded53341b4d51098a,jk6rzuw7mb,Ex2A_Prolific,1,155,2024-02-27T22:43:09+00:00,2.3227341175079,1,Stim_A.csv,Read.csv,Read,A,freedom,,F9,,,106,Study,User,1.25,,Flag,F9,2173,,,-1,-1,,,,1
5f3c33aded53341b4d51098a,jk6rzuw7mb,Ex2A_Prolific,1,156,2024-02-27T22:43:11+00:00,2.2533659934998,1,Stim_A.csv,Read.csv,Read,A,symbol,,F10,,,107,Study,User,1.25,,Flag,F10,2098,,,-1,-1,,,,1
5f3c33aded53341b4d51098a,jk6rzuw7mb,Ex2A_Prolific,1,157,2024-02-27T22:43:13+00:00,2.0048429965973,1,Stim_A.csv,Read.csv,Read,A,wave,,F11,,,108,Study,User,1.25,,Flag,F11,1848,,,-1,-1,,,,1
5f3c33aded53341b4d51098a,jk6rzuw7mb,Ex2A_Prolific,1,158,2024-02-27T22:43:18+00:00,4.212014913559,1,Stim_A.csv,Read.csv,Read,A,stars,,F12,,,109,Study,User,1.25,,Flag,F12,4057,,,-1,-1,,,,1
5f3c33aded53341b4d51098a,jk6rzuw7mb,Ex2A_Prolific,1,159,2024-02-27T22:43:19+00:00,0.96253395080566,1,Stim_A.csv,Read.csv,Read,A,,,,,,0,Instruct,User,-,"You have completed this section. Please click next.",,Instruct166,810,,,-1,-1,,,,1
5f3c33aded53341b4d51098a,jk6rzuw7mb,Ex2A_Prolific,1,160,2024-02-27T22:43:49+00:00,30.155650138855,1,Stim_A.csv,Read.csv,Read,A,,,,,,0,FreeRecall,30,30,"Please type as many words as you can that begin with the letter ""K"". The computer will automatically advance to the next screen in 30 seconds.",,FILLER,30000,,0,-1,-1,0,0,,1
5f3c33aded53341b4d51098a,jk6rzuw7mb,Ex2A_Prolific,1,161,2024-02-27T22:43:53+00:00,4.6792089939117,1,Stim_A.csv,Read.csv,Read,A,,,,,,0,Instruct,User,4,"You have completed this section. Please click next.",,Instruct166,4528,,,-1,-1,,,,1
5f3c33aded53341b4d51098a,jk6rzuw7mb,Ex2A_Prolific,1,162,2024-02-27T22:43:58+00:00,4.6343328952789,1,Stim_A.csv,Read.csv,Read,A,,,,,,0,Instruct,User,4,"You will now complete a memory test for the words you just studied. Please type as many words from the previous list as you can seperated by a comma. Spelling will not count against you and you can recall the words in any order. This test will be timed for one minute, and the computer will automatically advance once time is up. Click next when you are ready to begin.",,Instruct1666,4462,,,-1,-1,,,,1
5f3c33aded53341b4d51098a,jk6rzuw7mb,Ex2A_Prolific,1,163,2024-02-27T22:44:58+00:00,60.163192033768,1,Stim_A.csv,Read.csv,Read,A,,,,,,0,FreeRecall,60,60,"Please type as many words as you can from the previous study list in any order. Please separate each word with a comma. Spelling will not count against you. This screen will automatically advance in one minute.",,RECALL_Test,60000,"bannered, star, stripes, pole, freedom, national, emblem, symbol",0,1514,20305,0,0,,0.993
5f3c33aded53341b4d51098a,jk6rzuw7mb,Ex2A_Prolific,1,164,2024-02-27T22:45:02+00:00,4.0603840351105,1,Stim_A.csv,Read.csv,Read,A,,,,,,0,Instruct,User,3,"You will now be presented with a new study list. Click next when you are ready to begin.",,NEXT_LIST,3899,,,-1,-1,,,,1
5f3c33aded53341b4d51098a,jk6rzuw7mb,Ex2A_Prolific,1,165,2024-02-27T22:45:04+00:00,2.0076069831848,1,Stim_A.csv,Read.csv,Read,A,blouse,,SS1,,,110,Study,User,1.25,,Shirt,SS1,1838,,,-1,-1,,,,1
5f3c33aded53341b4d51098a,jk6rzuw7mb,Ex2A_Prolific,1,166,2024-02-27T22:45:06+00:00,1.903776884079,1,Stim_A.csv,Read.csv,Read,A,sleeves,,SS2,,,111,Study,User,1.25,,Shirt,SS2,1751,,,-1,-1,,,,1
5f3c33aded53341b4d51098a,jk6rzuw7mb,Ex2A_Prolific,1,167,2024-02-27T22:45:09+00:00,2.3370270729065,1,Stim_A.csv,Read.csv,Read,A,collar,,SS3,,,112,Study,User,1.25,,Shirt,SS3,2186,,,-1,-1,,,,1
5f3c33aded53341b4d51098a,jk6rzuw7mb,Ex2A_Prolific,1,168,2024-02-27T22:45:12+00:00,3.001993894577,1,Stim_A.csv,Read.csv,Read,A,shorts,,SS4,,,113,Study,User,1.25,,Shirt,SS4,2845,,,-1,-1,,,,1
5f3c33aded53341b4d51098a,jk6rzuw7mb,Ex2A_Prolific,1,169,2024-02-27T22:45:14+00:00,2.166787147522,1,Stim_A.csv,Read.csv,Read,A,button,,SS5,,,114,Study,User,1.25,,Shirt,SS5,2021,,,-1,-1,,,,1
5f3c33aded53341b4d51098a,jk6rzuw7mb,Ex2A_Prolific,1,170,2024-02-27T22:45:16+00:00,1.9401469230652,1,Stim_A.csv,Read.csv,Read,A,pants,,SS6,,,115,Study,User,1.25,,Shirt,SS6,1780,,,-1,-1,,,,1
5f3c33aded53341b4d51098a,jk6rzuw7mb,Ex2A_Prolific,1,171,2024-02-27T22:45:18+00:00,2.385162115097,1,Stim_A.csv,Read.csv,Read,A,polo,,SS7,,,116,Study,User,1.25,,Shirt,SS7,2226,,,-1,-1,,,,1
5f3c33aded53341b4d51098a,jk6rzuw7mb,Ex2A_Prolific,1,172,2024-02-27T22:45:20+00:00,2.0037508010864,1,Stim_A.csv,Read.csv,Read,A,jersey,,SS8,,,117,Study,User,1.25,,Shirt,SS8,1847,,,-1,-1,,,,1
5f3c33aded53341b4d51098a,jk6rzuw7mb,Ex2A_Prolific,1,173,2024-02-27T22:45:22+00:00,1.9759922027588,1,Stim_A.csv,Read.csv,Read,A,vest,,SS9,,,118,Study,User,1.25,,Shirt,SS9,1801,,,-1,-1,,,,1
5f3c33aded53341b4d51098a,jk6rzuw7mb,Ex2A_Prolific,1,174,2024-02-27T22:45:24+00:00,2.1404538154602,1,Stim_A.csv,Read.csv,Read,A,cuffs,,SS10,,,119,Study,User,1.25,,Shirt,SS10,1985,,,-1,-1,,,,1
5f3c33aded53341b4d51098a,jk6rzuw7mb,Ex2A_Prolific,1,175,2024-02-27T22:45:26+00:00,2.1650671958923,1,Stim_A.csv,Read.csv,Read,A,tie,,SS11,,,120,Study,User,1.25,,Shirt,SS11,1999,,,-1,-1,,,,1
5f3c33aded53341b4d51098a,jk6rzuw7mb,Ex2A_Prolific,1,176,2024-02-27T22:45:28+00:00,2.0039458274841,1,Stim_A.csv,Read.csv,Read,A,pocket,,SS12,,,121,Study,User,1.25,,Shirt,SS12,1849,,,-1,-1,,,,1
5f3c33aded53341b4d51098a,jk6rzuw7mb,Ex2A_Prolific,1,177,2024-02-27T22:45:33+00:00,5.1265320777893,1,Stim_A.csv,Read.csv,Read,A,,,,,,0,Instruct,User,4,"You have completed this section. Please click next.",,Instruct166,4970,,,-1,-1,,,,1
5f3c33aded53341b4d51098a,jk6rzuw7mb,Ex2A_Prolific,1,178,2024-02-27T22:46:04+00:00,30.178869962692,1,Stim_A.csv,Read.csv,Read,A,,,,,,0,FreeRecall,30,30,"Please type as many words as you can that begin with the letter ""K"". The computer will automatically advance to the next screen in 30 seconds.",,FILLER,30001,,0,-1,-1,0,0,,1
5f3c33aded53341b4d51098a,jk6rzuw7mb,Ex2A_Prolific,1,179,2024-02-27T22:46:04+00:00,0.82907199859619,1,Stim_A.csv,Read.csv,Read,A,,,,,,0,Instruct,User,-,"You have completed this section. Please click next.",,Instruct166,676,,,-1,-1,,,,1
5f3c33aded53341b4d51098a,jk6rzuw7mb,Ex2A_Prolific,1,180,2024-02-27T22:46:09+00:00,4.7922830581665,1,Stim_A.csv,Read.csv,Read,A,,,,,,0,Instruct,User,4,"You will now complete a memory test for the words you just studied. Please type as many words from the previous list as you can seperated by a comma. Spelling will not count against you and you can recall the words in any order. This test will be timed for one minute, and the computer will automatically advance once time is up. Click next when you are ready to begin.",,Instruct1666,4634,,,-1,-1,,,,1
5f3c33aded53341b4d51098a,jk6rzuw7mb,Ex2A_Prolific,1,181,2024-02-27T22:47:09+00:00,60.155055999756,1,Stim_A.csv,Read.csv,Read,A,,,,,,0,FreeRecall,60,60,"Please type as many words as you can from the previous study list in any order. Please separate each word with a comma. Spelling will not count against you. This screen will automatically advance in one minute.",,RECALL_Test,60000,"blouse, sleeve, collar, shirt, jersey, pocket, cuffs, pants",0,1046,11560,0,0,,0.969
5f3c33aded53341b4d51098a,jk6rzuw7mb,Ex2A_Prolific,1,182,2024-02-27T22:47:11+00:00,1.801775932312,1,Stim_A.csv,Read.csv,Read,A,,,,,,0,Instruct,User,-,"You have completed this section. Please click next.",,Instruct7,1646,,,-1,-1,,,,1
5f3c33aded53341b4d51098a,jk6rzuw7mb,Ex2A_Prolific,1,183,2024-02-27T22:47:14+00:00,2.6216671466827,1,Stim_A.csv,Read.csv,Read,A,,,,,,0,Instruct,User,-,"The following screen will ask you a few questions abour your experience today. You must complete these questions to receive credit.",,Instruct8,2463,,,-1,-1,,,,1
