Username,ID,ExperimentName,Session,Trial,Date,TimeDif,"Condition Number","Stimuli File","Order File","Condition Description","Condition Notes",Stimuli*Cue,Stimuli*Answer,Stimuli*Shuffle,"Stimuli*Stimuli Notes",Stimuli*Value,Procedure*Item,"Procedure*Trial Type","Procedure*Max Time","Procedure*Min Time",Procedure*Text,"Procedure*Procedure Notes",Procedure*Shuffle,Response*RT,Response*Response,Response*Accuracy,Response*RTfirst,Response*RTlast,Response*strictAcc,Response*lenientAcc,Response*focus,Response*Focus
6583773bb83c230e7271378c,nld5ooi9lp,Ex2A_Prolific,1,1,2024-02-28T01:18:59+00:00,28.745987892151,1,Stim_A.csv,Read.csv,Read,A,,,,,,0,Instruct,-,5,"In this section, you will be presented with a series of words. Please study each word carefully. Your memory will be tested! Click next when you are ready to begin.",Initial_Instruct,Instruct1,28592,,,-1,-1,,,,1
6583773bb83c230e7271378c,nld5ooi9lp,Ex2A_Prolific,1,2,2024-02-28T01:19:04+00:00,5.227881193161,1,Stim_A.csv,Read.csv,Read,A,,,,,,0,Instruct,User,-,"You will now begin the study. Click next when you are ready to begin.",,Instruct16,5029,,,-1,-1,,,,1
6583773bb83c230e7271378c,nld5ooi9lp,Ex2A_Prolific,1,3,2024-02-28T01:19:13+00:00,9.1451959609985,1,Stim_A.csv,Read.csv,Read,A,pane,,Win_1,,,2,Study,User,1.25,,Window,Win_1,8922,,,-1,-1,,,,1
6583773bb83c230e7271378c,nld5ooi9lp,Ex2A_Prolific,1,4,2024-02-28T01:19:20+00:00,6.9511229991913,1,Stim_A.csv,Read.csv,Read,A,sill,,Win_2,,,3,Study,User,1.25,,Window,Win_2,6749,,,-1,-1,,,,1
6583773bb83c230e7271378c,nld5ooi9lp,Ex2A_Prolific,1,5,2024-02-28T01:19:30+00:00,9.8917999267578,1,Stim_A.csv,Read.csv,Read,A,shutter,,Win_3,,,4,Study,User,1.25,,Window,Win_3,9678,,,-1,-1,,,,1
6583773bb83c230e7271378c,nld5ooi9lp,Ex2A_Prolific,1,6,2024-02-28T01:19:43+00:00,13.642375946045,1,Stim_A.csv,Read.csv,Read,A,curtain,,Win_4,,,5,Study,User,1.25,,Window,Win_4,13389,,,-1,-1,,,,1
6583773bb83c230e7271378c,nld5ooi9lp,Ex2A_Prolific,1,7,2024-02-28T01:20:03+00:00,19.394112110138,1,Stim_A.csv,Read.csv,Read,A,door,,Win_5,,,6,Study,User,1.25,,Window,Win_5,19189,,,-1,-1,,,,1
6583773bb83c230e7271378c,nld5ooi9lp,Ex2A_Prolific,1,8,2024-02-28T01:20:12+00:00,9.3679819107056,1,Stim_A.csv,Read.csv,Read,A,ledge,,Win_6,,,7,Study,User,1.25,,Window,Win_6,9162,,,-1,-1,,,,1
6583773bb83c230e7271378c,nld5ooi9lp,Ex2A_Prolific,1,9,2024-02-28T01:20:42+00:00,30.220343112946,1,Stim_A.csv,Read.csv,Read,A,glass,,Win_7,,,8,Study,User,1.25,,Window,Win_7,29745,,,-1,-1,,,,1
6583773bb83c230e7271378c,nld5ooi9lp,Ex2A_Prolific,1,10,2024-02-28T01:20:54+00:00,11.524520874023,1,Stim_A.csv,Read.csv,Read,A,view,,Win_8,,,9,Study,User,1.25,,Window,Win_8,11319,,,-1,-1,,,,1
6583773bb83c230e7271378c,nld5ooi9lp,Ex2A_Prolific,1,11,2024-02-28T01:21:04+00:00,10.406046152115,1,Stim_A.csv,Read.csv,Read,A,screen,,Win_9,,,10,Study,User,1.25,,Window,Win_9,10195,,,-1,-1,,,,1
6583773bb83c230e7271378c,nld5ooi9lp,Ex2A_Prolific,1,12,2024-02-28T01:21:37+00:00,32.862206935883,1,Stim_A.csv,Read.csv,Read,A,shade,,Win_10,,,11,Study,User,1.25,,Window,Win_10,32668,,,-1,-1,,,,1
6583773bb83c230e7271378c,nld5ooi9lp,Ex2A_Prolific,1,13,2024-02-28T01:22:02+00:00,24.94543504715,1,Stim_A.csv,Read.csv,Read,A,open,,Win_11,,,12,Study,User,1.25,,Window,Win_11,24721,,,-1,-1,,,,1
6583773bb83c230e7271378c,nld5ooi9lp,Ex2A_Prolific,1,14,2024-02-28T01:22:06+00:00,4.0549068450928,1,Stim_A.csv,Read.csv,Read,A,frame,,Win_12,,,13,Study,User,1.25,,Window,Win_12,3853,,,-1,-1,,,,1
6583773bb83c230e7271378c,nld5ooi9lp,Ex2A_Prolific,1,15,2024-02-28T01:22:10+00:00,3.7525770664215,1,Stim_A.csv,Read.csv,Read,A,,,,,,0,Instruct,User,-,"You have completed this section. Please click next.",,Instruct166,3536,,,-1,-1,,,,1
6583773bb83c230e7271378c,nld5ooi9lp,Ex2A_Prolific,1,16,2024-02-28T01:22:40+00:00,30.219264984131,1,Stim_A.csv,Read.csv,Read,A,,,,,,0,FreeRecall,30,30,"Please type as many words as you can that begin with the letter ""K"". The computer will automatically advance to the next screen in 30 seconds.",,FILLER,30004,,0,-1,-1,0,0,,1
6583773bb83c230e7271378c,nld5ooi9lp,Ex2A_Prolific,1,17,2024-02-28T01:22:45+00:00,5.3690450191498,1,Stim_A.csv,Read.csv,Read,A,,,,,,0,Instruct,User,4,"You have completed this section. Please click next.",,Instruct166,5154,,,-1,-1,,,,1
6583773bb83c230e7271378c,nld5ooi9lp,Ex2A_Prolific,1,18,2024-02-28T01:23:01+00:00,15.898317098618,1,Stim_A.csv,Read.csv,Read,A,,,,,,0,Instruct,User,4,"You will now complete a memory test for the words you just studied. Please type as many words from the previous list as you can seperated by a comma. Spelling will not count against you and you can recall the words in any order. This test will be timed for one minute, and the computer will automatically advance once time is up. Click next when you are ready to begin.",,Instruct1666,15661,,,-1,-1,,,,1
6583773bb83c230e7271378c,nld5ooi9lp,Ex2A_Prolific,1,19,2024-02-28T01:24:02+00:00,60.185328006744,1,Stim_A.csv,Read.csv,Read,A,,,,,,0,FreeRecall,60,60,"Please type as many words as you can from the previous study list in any order. Please separate each word with a comma. Spelling will not count against you. This screen will automatically advance in one minute.",,RECALL_Test,60002,"pane, shill, shutter, curtain, door, ledge, glass, view, shade, open, frame",0,865,21073,0,0,,1
6583773bb83c230e7271378c,nld5ooi9lp,Ex2A_Prolific,1,20,2024-02-28T01:24:06+00:00,4.1892549991608,1,Stim_A.csv,Read.csv,Read,A,,,,,,0,Instruct,User,3,"You will now be presented with a new study list. Click next when you are ready to begin.",,NEXT_LIST,3995,,,-1,-1,,,,1
6583773bb83c230e7271378c,nld5ooi9lp,Ex2A_Prolific,1,21,2024-02-28T01:24:09+00:00,2.9629678726196,1,Stim_A.csv,Read.csv,Read,A,sandpaper,,R1,,,14,Study,User,1.25,,Rough,R1,2738,,,-1,-1,,,,1
6583773bb83c230e7271378c,nld5ooi9lp,Ex2A_Prolific,1,22,2024-02-28T01:24:13+00:00,4.0305891036987,1,Stim_A.csv,Read.csv,Read,A,smooth,,R2,,,15,Study,User,1.25,,Rough,R2,3827,,,-1,-1,,,,1
6583773bb83c230e7271378c,nld5ooi9lp,Ex2A_Prolific,1,23,2024-02-28T01:24:19+00:00,5.8193418979645,1,Stim_A.csv,Read.csv,Read,A,coarse,,R3,,,16,Study,User,1.25,,Rough,R3,5611,,,-1,-1,,,,1
6583773bb83c230e7271378c,nld5ooi9lp,Ex2A_Prolific,1,24,2024-02-28T01:24:22+00:00,3.4757490158081,1,Stim_A.csv,Read.csv,Read,A,tough,,R4,,,17,Study,User,1.25,,Rough,R4,3247,,,-1,-1,,,,1
6583773bb83c230e7271378c,nld5ooi9lp,Ex2A_Prolific,1,25,2024-02-28T01:24:53+00:00,30.573223114014,1,Stim_A.csv,Read.csv,Read,A,rugged,,R5,,,18,Study,User,1.25,,Rough,R5,30353,,,-1,-1,,,,1
6583773bb83c230e7271378c,nld5ooi9lp,Ex2A_Prolific,1,26,2024-02-28T01:24:55+00:00,2.3045969009399,1,Stim_A.csv,Read.csv,Read,A,bumpy,,R6,,,19,Study,User,1.25,,Rough,R6,2068,,,-1,-1,,,,1
6583773bb83c230e7271378c,nld5ooi9lp,Ex2A_Prolific,1,27,2024-02-28T01:25:05+00:00,9.7200210094452,1,Stim_A.csv,Read.csv,Read,A,jagged,,R7,,,20,Study,User,1.25,,Rough,R7,9515,,,-1,-1,,,,1
6583773bb83c230e7271378c,nld5ooi9lp,Ex2A_Prolific,1,28,2024-02-28T01:25:33+00:00,28.654587030411,1,Stim_A.csv,Read.csv,Read,A,riders,,R8,,,21,Study,User,1.25,,Rough,R8,28435,,,-1,-1,,,,1
6583773bb83c230e7271378c,nld5ooi9lp,Ex2A_Prolific,1,29,2024-02-28T01:25:38+00:00,4.6880719661713,1,Stim_A.csv,Read.csv,Read,A,uneven,,R9,,,22,Study,User,1.25,,Rough,R9,4204,,,-1,-1,,,,1
6583773bb83c230e7271378c,nld5ooi9lp,Ex2A_Prolific,1,30,2024-02-28T01:25:40+00:00,2.1372230052948,1,Stim_A.csv,Read.csv,Read,A,road,,R10,,,23,Study,User,1.25,,Rough,R10,1918,,,-1,-1,,,,1
6583773bb83c230e7271378c,nld5ooi9lp,Ex2A_Prolific,1,31,2024-02-28T01:25:46+00:00,5.4156129360199,1,Stim_A.csv,Read.csv,Read,A,ready,,R11,,,24,Study,User,1.25,,Rough,R11,4914,,,-1,-1,,,,1
6583773bb83c230e7271378c,nld5ooi9lp,Ex2A_Prolific,1,32,2024-02-28T01:25:48+00:00,2.1868650913239,1,Stim_A.csv,Read.csv,Read,A,sand,,R12,,,25,Study,User,1.25,,Rough,R12,1973,,,-1,-1,,,,1
6583773bb83c230e7271378c,nld5ooi9lp,Ex2A_Prolific,1,33,2024-02-28T01:25:53+00:00,5.3013119697571,1,Stim_A.csv,Read.csv,Read,A,,,,,,0,Instruct,User,4,"You have completed this section. Please click next.",,Instruct166,5083,,,-1,-1,,,,1
6583773bb83c230e7271378c,nld5ooi9lp,Ex2A_Prolific,1,34,2024-02-28T01:26:23+00:00,30.215774059296,1,Stim_A.csv,Read.csv,Read,A,,,,,,0,FreeRecall,30,30,"Please type as many words as you can that begin with the letter ""K"". The computer will automatically advance to the next screen in 30 seconds.",,FILLER,30003,,0,-1,-1,0,0,,1
6583773bb83c230e7271378c,nld5ooi9lp,Ex2A_Prolific,1,35,2024-02-28T01:26:28+00:00,5.0992560386658,1,Stim_A.csv,Read.csv,Read,A,,,,,,0,Instruct,User,4,"You have completed this section. Please click next.",,Instruct166,4903,,,-1,-1,,,,1
6583773bb83c230e7271378c,nld5ooi9lp,Ex2A_Prolific,1,36,2024-02-28T01:26:34+00:00,5.8977689743042,1,Stim_A.csv,Read.csv,Read,A,,,,,,0,Instruct,User,4,"You will now complete a memory test for the words you just studied. Please type as many words from the previous list as you can seperated by a comma. Spelling will not count against you and you can recall the words in any order. This test will be timed for one minute, and the computer will automatically advance once time is up. Click next when you are ready to begin.",,Instruct1666,5704,,,-1,-1,,,,1
6583773bb83c230e7271378c,nld5ooi9lp,Ex2A_Prolific,1,37,2024-02-28T01:27:35+00:00,60.29350399971,1,Stim_A.csv,Read.csv,Read,A,,,,,,0,FreeRecall,60,60,"Please type as many words as you can from the previous study list in any order. Please separate each word with a comma. Spelling will not count against you. This screen will automatically advance in one minute.",,RECALL_Test,60001,"sandpaper, smooth, coarse, rugged, uneven, bumpy, jagged, riders, road, ready, tough, ",0,1460,34210,0,0,,0.958
6583773bb83c230e7271378c,nld5ooi9lp,Ex2A_Prolific,1,38,2024-02-28T01:27:39+00:00,4.1689429283142,1,Stim_A.csv,Read.csv,Read,A,,,,,,0,Instruct,User,3,"You will now be presented with a new study list. Click next when you are ready to begin.",,NEXT_LIST,3948,,,-1,-1,,,,1
6583773bb83c230e7271378c,nld5ooi9lp,Ex2A_Prolific,1,39,2024-02-28T01:27:41+00:00,2.3169779777527,1,Stim_A.csv,Read.csv,Read,A,rage,,A1,,,26,Study,User,1.25,,Anger,A1,2094,,,-1,-1,,,,1
6583773bb83c230e7271378c,nld5ooi9lp,Ex2A_Prolific,1,40,2024-02-28T01:27:44+00:00,3.2675790786743,1,Stim_A.csv,Read.csv,Read,A,mad,,A2,,,27,Study,User,1.25,,Anger,A2,3041,,,-1,-1,,,,1
6583773bb83c230e7271378c,nld5ooi9lp,Ex2A_Prolific,1,41,2024-02-28T01:27:52+00:00,7.9731810092926,1,Stim_A.csv,Read.csv,Read,A,enrage,,A3,,,28,Study,User,1.25,,Anger,A3,7751,,,-1,-1,,,,1
6583773bb83c230e7271378c,nld5ooi9lp,Ex2A_Prolific,1,42,2024-02-28T01:27:56+00:00,3.7175569534302,1,Stim_A.csv,Read.csv,Read,A,fury,,A4,,,29,Study,User,1.25,,Anger,A4,3498,,,-1,-1,,,,1
6583773bb83c230e7271378c,nld5ooi9lp,Ex2A_Prolific,1,43,2024-02-28T01:28:13+00:00,16.922664880753,1,Stim_A.csv,Read.csv,Read,A,temper,,A5,,,30,Study,User,1.25,,Anger,A5,16663,,,-1,-1,,,,1
6583773bb83c230e7271378c,nld5ooi9lp,Ex2A_Prolific,1,44,2024-02-28T01:28:34+00:00,20.831319093704,1,Stim_A.csv,Read.csv,Read,A,ire,,A6,,,31,Study,User,1.25,,Anger,A6,20629,,,-1,-1,,,,1
6583773bb83c230e7271378c,nld5ooi9lp,Ex2A_Prolific,1,45,2024-02-28T01:28:39+00:00,5.4622330665588,1,Stim_A.csv,Read.csv,Read,A,wrath,,A7,,,32,Study,User,1.25,,Anger,A7,5251,,,-1,-1,,,,1
6583773bb83c230e7271378c,nld5ooi9lp,Ex2A_Prolific,1,46,2024-02-28T01:28:45+00:00,5.4485709667206,1,Stim_A.csv,Read.csv,Read,A,mean,,A8,,,33,Study,User,1.25,,Anger,A8,5240,,,-1,-1,,,,1
6583773bb83c230e7271378c,nld5ooi9lp,Ex2A_Prolific,1,47,2024-02-28T01:29:06+00:00,20.85049200058,1,Stim_A.csv,Read.csv,Read,A,hatred,,A9,,,34,Study,User,1.25,,Anger,A9,20615,,,-1,-1,,,,1
6583773bb83c230e7271378c,nld5ooi9lp,Ex2A_Prolific,1,48,2024-02-28T01:29:09+00:00,3.8932499885559,1,Stim_A.csv,Read.csv,Read,A,fight,,A10,,,35,Study,User,1.25,,Anger,A10,3693,,,-1,-1,,,,1
6583773bb83c230e7271378c,nld5ooi9lp,Ex2A_Prolific,1,49,2024-02-28T01:29:12+00:00,2.9655110836029,1,Stim_A.csv,Read.csv,Read,A,hate,,A11,,,36,Study,User,1.25,,Anger,A11,2769,,,-1,-1,,,,1
6583773bb83c230e7271378c,nld5ooi9lp,Ex2A_Prolific,1,50,2024-02-28T01:29:15+00:00,3.0720489025116,1,Stim_A.csv,Read.csv,Read,A,fear,,A12,,,37,Study,User,1.25,,Anger,A12,2876,,,-1,-1,,,,1
6583773bb83c230e7271378c,nld5ooi9lp,Ex2A_Prolific,1,51,2024-02-28T01:29:20+00:00,4.9241819381714,1,Stim_A.csv,Read.csv,Read,A,,,,,,0,Instruct,User,4,"You have completed this section. Please click next.",,Instruct166,4739,,,-1,-1,,,,1
6583773bb83c230e7271378c,nld5ooi9lp,Ex2A_Prolific,1,52,2024-02-28T01:29:51+00:00,30.208750009537,1,Stim_A.csv,Read.csv,Read,A,,,,,,0,FreeRecall,30,30,"Please type as many words as you can that begin with the letter ""K"". The computer will automatically advance to the next screen in 30 seconds.",,FILLER,30002,,0,-1,-1,0,0,,1
6583773bb83c230e7271378c,nld5ooi9lp,Ex2A_Prolific,1,53,2024-02-28T01:29:55+00:00,4.87380194664,1,Stim_A.csv,Read.csv,Read,A,,,,,,0,Instruct,User,4,"You have completed this section. Please click next.",,Instruct166,4654,,,-1,-1,,,,1
6583773bb83c230e7271378c,nld5ooi9lp,Ex2A_Prolific,1,54,2024-02-28T01:30:00+00:00,4.8092911243439,1,Stim_A.csv,Read.csv,Read,A,,,,,,0,Instruct,User,4,"You will now complete a memory test for the words you just studied. Please type as many words from the previous list as you can seperated by a comma. Spelling will not count against you and you can recall the words in any order. This test will be timed for one minute, and the computer will automatically advance once time is up. Click next when you are ready to begin.",,Instruct1666,4603,,,-1,-1,,,,1
6583773bb83c230e7271378c,nld5ooi9lp,Ex2A_Prolific,1,55,2024-02-28T01:31:01+00:00,60.341600894928,1,Stim_A.csv,Read.csv,Read,A,,,,,,0,FreeRecall,60,60,"Please type as many words as you can from the previous study list in any order. Please separate each word with a comma. Spelling will not count against you. This screen will automatically advance in one minute.",,RECALL_Test,60152,"rage, enrage, mad, fear, temper, ire, hate, hateful, fight",0,1675,33005,0,0,,0.971
6583773bb83c230e7271378c,nld5ooi9lp,Ex2A_Prolific,1,56,2024-02-28T01:31:05+00:00,3.9273920059204,1,Stim_A.csv,Read.csv,Read,A,,,,,,0,Instruct,User,3,"You will now be presented with a new study list. Click next when you are ready to begin.",,NEXT_LIST,3724,,,-1,-1,,,,0.875
6583773bb83c230e7271378c,nld5ooi9lp,Ex2A_Prolific,1,57,2024-02-28T01:31:07+00:00,2.6531381607056,1,Stim_A.csv,Read.csv,Read,A,garbage,,T1,,,38,Study,User,1.25,,Trash,T1,2431,,,-1,-1,,,,1
6583773bb83c230e7271378c,nld5ooi9lp,Ex2A_Prolific,1,58,2024-02-28T01:31:10+00:00,2.6059598922729,1,Stim_A.csv,Read.csv,Read,A,rubbish,,T2,,,39,Study,User,1.25,,Trash,T2,2409,,,-1,-1,,,,1
6583773bb83c230e7271378c,nld5ooi9lp,Ex2A_Prolific,1,59,2024-02-28T01:31:16+00:00,5.783518075943,1,Stim_A.csv,Read.csv,Read,A,debris,,T3,,,40,Study,User,1.25,,Trash,T3,5581,,,-1,-1,,,,1
6583773bb83c230e7271378c,nld5ooi9lp,Ex2A_Prolific,1,60,2024-02-28T01:31:35+00:00,19.314936876297,1,Stim_A.csv,Read.csv,Read,A,dump,,T4,,,41,Study,User,1.25,,Trash,T4,19054,,,-1,-1,,,,1
6583773bb83c230e7271378c,nld5ooi9lp,Ex2A_Prolific,1,61,2024-02-28T01:31:44+00:00,9.491879940033,1,Stim_A.csv,Read.csv,Read,A,litter,,T5,,,42,Study,User,1.25,,Trash,T5,9273,,,-1,-1,,,,1
6583773bb83c230e7271378c,nld5ooi9lp,Ex2A_Prolific,1,62,2024-02-28T01:32:16+00:00,31.312400102615,1,Stim_A.csv,Read.csv,Read,A,landfill,,T6,,,43,Study,User,1.25,,Trash,T6,31101,,,-1,-1,,,,1
6583773bb83c230e7271378c,nld5ooi9lp,Ex2A_Prolific,1,63,2024-02-28T01:32:22+00:00,6.7366471290588,1,Stim_A.csv,Read.csv,Read,A,junk,,T7,,,44,Study,User,1.25,,Trash,T7,6467,,,-1,-1,,,,1
6583773bb83c230e7271378c,nld5ooi9lp,Ex2A_Prolific,1,64,2024-02-28T01:32:34+00:00,11.600699901581,1,Stim_A.csv,Read.csv,Read,A,waste,,T8,,,45,Study,User,1.25,,Trash,T8,11366,,,-1,-1,,,,1
6583773bb83c230e7271378c,nld5ooi9lp,Ex2A_Prolific,1,65,2024-02-28T01:32:43+00:00,8.7663810253143,1,Stim_A.csv,Read.csv,Read,A,sewage,,T9,,,46,Study,User,1.25,,Trash,T9,8516,,,-1,-1,,,,1
6583773bb83c230e7271378c,nld5ooi9lp,Ex2A_Prolific,1,66,2024-02-28T01:32:57+00:00,14.597375869751,1,Stim_A.csv,Read.csv,Read,A,pile,,T10,,,47,Study,User,1.25,,Trash,T10,14396,,,-1,-1,,,,1
6583773bb83c230e7271378c,nld5ooi9lp,Ex2A_Prolific,1,67,2024-02-28T01:33:11+00:00,13.475350141525,1,Stim_A.csv,Read.csv,Read,A,scraps,,T11,,,48,Study,User,1.25,,Trash,T11,13264,,,-1,-1,,,,1
6583773bb83c230e7271378c,nld5ooi9lp,Ex2A_Prolific,1,68,2024-02-28T01:33:14+00:00,3.0703010559082,1,Stim_A.csv,Read.csv,Read,A,refuse,,T12,,,49,Study,User,1.25,,Trash,T12,2877,,,-1,-1,,,,1
6583773bb83c230e7271378c,nld5ooi9lp,Ex2A_Prolific,1,69,2024-02-28T01:33:21+00:00,7.280660867691,1,Stim_A.csv,Read.csv,Read,A,,,,,,0,Instruct,User,4,"You have completed this section. Please click next.",,Instruct166,7056,,,-1,-1,,,,1
6583773bb83c230e7271378c,nld5ooi9lp,Ex2A_Prolific,1,70,2024-02-28T01:33:51+00:00,30.195934057236,1,Stim_A.csv,Read.csv,Read,A,,,,,,0,FreeRecall,30,30,"Please type as many words as you can that begin with the letter ""K"". The computer will automatically advance to the next screen in 30 seconds.",,FILLER,30005,,0,3958,4764,0,0,,1
6583773bb83c230e7271378c,nld5ooi9lp,Ex2A_Prolific,1,71,2024-02-28T01:33:54+00:00,2.320720911026,1,Stim_A.csv,Read.csv,Read,A,,,,,,0,Instruct,User,-,"You have completed this section. Please click next.",,Instruct166,2095,,,-1,-1,,,,1
6583773bb83c230e7271378c,nld5ooi9lp,Ex2A_Prolific,1,72,2024-02-28T01:33:59+00:00,5.4580931663513,1,Stim_A.csv,Read.csv,Read,A,,,,,,0,Instruct,User,4,"You will now complete a memory test for the words you just studied. Please type as many words from the previous list as you can seperated by a comma. Spelling will not count against you and you can recall the words in any order. This test will be timed for one minute, and the computer will automatically advance once time is up. Click next when you are ready to begin.",,Instruct1666,5254,,,-1,-1,,,,1
6583773bb83c230e7271378c,nld5ooi9lp,Ex2A_Prolific,1,73,2024-02-28T01:34:59+00:00,60.217399835587,1,Stim_A.csv,Read.csv,Read,A,,,,,,0,FreeRecall,60,60,"Please type as many words as you can from the previous study list in any order. Please separate each word with a comma. Spelling will not count against you. This screen will automatically advance in one minute.",,RECALL_Test,60001,"Garbage, rubbish, debris, dump, litter, landfill, waste, pile, refuse, scraps",0,1689,58526,0,0,,1
6583773bb83c230e7271378c,nld5ooi9lp,Ex2A_Prolific,1,74,2024-02-28T01:35:03+00:00,3.9677650928497,1,Stim_A.csv,Read.csv,Read,A,,,,,,0,Instruct,User,3,"You will now be presented with a new study list. Click next when you are ready to begin.",,NEXT_LIST,3735,,,-1,-1,,,,1
6583773bb83c230e7271378c,nld5ooi9lp,Ex2A_Prolific,1,75,2024-02-28T01:35:06+00:00,2.2179238796234,1,Stim_A.csv,Read.csv,Read,A,physician,,D1,,,50,Study,User,1.25,,Doctor,D1,2012,,,-1,-1,,,,1
6583773bb83c230e7271378c,nld5ooi9lp,Ex2A_Prolific,1,76,2024-02-28T01:35:07+00:00,1.8798501491547,1,Stim_A.csv,Read.csv,Read,A,nurse,,D2,,,51,Study,User,1.25,,Doctor,D2,1664,,,-1,-1,,,,1
6583773bb83c230e7271378c,nld5ooi9lp,Ex2A_Prolific,1,77,2024-02-28T01:35:11+00:00,3.9672939777374,1,Stim_A.csv,Read.csv,Read,A,stethoscope,,D3,,,52,Study,User,1.25,,Doctor,D3,3746,,,-1,-1,,,,1
6583773bb83c230e7271378c,nld5ooi9lp,Ex2A_Prolific,1,78,2024-02-28T01:35:24+00:00,12.668483972549,1,Stim_A.csv,Read.csv,Read,A,surgeon,,D4,,,53,Study,User,1.25,,Doctor,D4,12455,,,-1,-1,,,,1
6583773bb83c230e7271378c,nld5ooi9lp,Ex2A_Prolific,1,79,2024-02-28T01:35:31+00:00,6.7601580619812,1,Stim_A.csv,Read.csv,Read,A,patient,,D5,,,54,Study,User,1.25,,Doctor,D5,6539,,,-1,-1,,,,1
6583773bb83c230e7271378c,nld5ooi9lp,Ex2A_Prolific,1,80,2024-02-28T01:35:34+00:00,3.5227448940277,1,Stim_A.csv,Read.csv,Read,A,clinic,,D6,,,55,Study,User,1.25,,Doctor,D6,3265,,,-1,-1,,,,1
6583773bb83c230e7271378c,nld5ooi9lp,Ex2A_Prolific,1,81,2024-02-28T01:35:43+00:00,8.1821351051331,1,Stim_A.csv,Read.csv,Read,A,dentist,,D7,,,56,Study,User,1.25,,Doctor,D7,7973,,,-1,-1,,,,1
6583773bb83c230e7271378c,nld5ooi9lp,Ex2A_Prolific,1,82,2024-02-28T01:35:56+00:00,13.31432890892,1,Stim_A.csv,Read.csv,Read,A,medicine,,D8,,,57,Study,User,1.25,,Doctor,D8,13077,,,-1,-1,,,,1
6583773bb83c230e7271378c,nld5ooi9lp,Ex2A_Prolific,1,83,2024-02-28T01:35:59+00:00,3.0768640041351,1,Stim_A.csv,Read.csv,Read,A,lawyer,,D9,,,58,Study,User,1.25,,Doctor,D9,2806,,,-1,-1,,,,1
6583773bb83c230e7271378c,nld5ooi9lp,Ex2A_Prolific,1,84,2024-02-28T01:36:01+00:00,2.3534829616547,1,Stim_A.csv,Read.csv,Read,A,health,,D10,,,59,Study,User,1.25,,Doctor,D10,2142,,,-1,-1,,,,1
6583773bb83c230e7271378c,nld5ooi9lp,Ex2A_Prolific,1,85,2024-02-28T01:36:04+00:00,2.3400030136108,1,Stim_A.csv,Read.csv,Read,A,sick,,D11,,,60,Study,User,1.25,,Doctor,D11,2124,,,-1,-1,,,,1
6583773bb83c230e7271378c,nld5ooi9lp,Ex2A_Prolific,1,86,2024-02-28T01:36:06+00:00,2.6162509918213,1,Stim_A.csv,Read.csv,Read,A,cure,,D12,,,61,Study,User,1.25,,Doctor,D12,2054,,,-1,-1,,,,1
6583773bb83c230e7271378c,nld5ooi9lp,Ex2A_Prolific,1,87,2024-02-28T01:36:17+00:00,10.758801937103,1,Stim_A.csv,Read.csv,Read,A,,,,,,0,Instruct,User,-,"You have completed this section. Please click next.",,Instruct166,10570,,,-1,-1,,,,1
6583773bb83c230e7271378c,nld5ooi9lp,Ex2A_Prolific,1,88,2024-02-28T01:36:47+00:00,30.242240190506,1,Stim_A.csv,Read.csv,Read,A,,,,,,0,FreeRecall,30,30,"Please type as many words as you can that begin with the letter ""K"". The computer will automatically advance to the next screen in 30 seconds.",,FILLER,30001,,0,-1,-1,0,0,,1
6583773bb83c230e7271378c,nld5ooi9lp,Ex2A_Prolific,1,89,2024-02-28T01:36:49+00:00,1.2770400047302,1,Stim_A.csv,Read.csv,Read,A,,,,,,0,Instruct,User,-,"You have completed this section. Please click next.",,Instruct166,1062,,,-1,-1,,,,1
6583773bb83c230e7271378c,nld5ooi9lp,Ex2A_Prolific,1,90,2024-02-28T01:36:54+00:00,5.236799955368,1,Stim_A.csv,Read.csv,Read,A,,,,,,0,Instruct,User,4,"You will now complete a memory test for the words you just studied. Please type as many words from the previous list as you can seperated by a comma. Spelling will not count against you and you can recall the words in any order. This test will be timed for one minute, and the computer will automatically advance once time is up. Click next when you are ready to begin.",,Instruct1666,5005,,,-1,-1,,,,1
6583773bb83c230e7271378c,nld5ooi9lp,Ex2A_Prolific,1,91,2024-02-28T01:37:54+00:00,60.276371955872,1,Stim_A.csv,Read.csv,Read,A,,,,,,0,FreeRecall,60,60,"Please type as many words as you can from the previous study list in any order. Please separate each word with a comma. Spelling will not count against you. This screen will automatically advance in one minute.",,RECALL_Test,60003,"Lawyer, health, sick, cure, physician, nurse, dentist, patient, clinic, medicine, stethoscope",0,879,37825,0,0,,1
6583773bb83c230e7271378c,nld5ooi9lp,Ex2A_Prolific,1,92,2024-02-28T01:37:58+00:00,4.0434880256653,1,Stim_A.csv,Read.csv,Read,A,,,,,,0,Instruct,User,3,"You will now be presented with a new study list. Click next when you are ready to begin.",,NEXT_LIST,3819,,,-1,-1,,,,1
6583773bb83c230e7271378c,nld5ooi9lp,Ex2A_Prolific,1,93,2024-02-28T01:38:00+00:00,2.1323919296265,1,Stim_A.csv,Read.csv,Read,A,fast,,S1,,,62,Study,User,1.25,,Slow,S1,1861,,,-1,-1,,,,1
6583773bb83c230e7271378c,nld5ooi9lp,Ex2A_Prolific,1,94,2024-02-28T01:38:03+00:00,2.2595701217651,1,Stim_A.csv,Read.csv,Read,A,snail,,S2,,,63,Study,User,1.25,,Slow,S2,1993,,,-1,-1,,,,1
6583773bb83c230e7271378c,nld5ooi9lp,Ex2A_Prolific,1,95,2024-02-28T01:38:07+00:00,4.7604718208313,1,Stim_A.csv,Read.csv,Read,A,turtle,,S3,,,64,Study,User,1.25,,Slow,S3,4528,,,-1,-1,,,,1
6583773bb83c230e7271378c,nld5ooi9lp,Ex2A_Prolific,1,96,2024-02-28T01:38:16+00:00,9.1023080348969,1,Stim_A.csv,Read.csv,Read,A,sluggish,,S4,,,65,Study,User,1.25,,Slow,S4,8866,,,-1,-1,,,,1
6583773bb83c230e7271378c,nld5ooi9lp,Ex2A_Prolific,1,97,2024-02-28T01:38:24+00:00,7.1963529586792,1,Stim_A.csv,Read.csv,Read,A,quick,,S5,,,66,Study,User,1.25,,Slow,S5,6987,,,-1,-1,,,,1
6583773bb83c230e7271378c,nld5ooi9lp,Ex2A_Prolific,1,98,2024-02-28T01:38:48+00:00,24.079577207565,1,Stim_A.csv,Read.csv,Read,A,molasses,,S6,,,67,Study,User,1.25,,Slow,S6,23857,,,-1,-1,,,,1
6583773bb83c230e7271378c,nld5ooi9lp,Ex2A_Prolific,1,99,2024-02-28T01:38:54+00:00,6.0226948261261,1,Stim_A.csv,Read.csv,Read,A,lethargic,,S7,,,68,Study,User,1.25,,Slow,S7,5770,,,-1,-1,,,,1
6583773bb83c230e7271378c,nld5ooi9lp,Ex2A_Prolific,1,100,2024-02-28T01:39:04+00:00,10.327172994614,1,Stim_A.csv,Read.csv,Read,A,speed,,S8,,,69,Study,User,1.25,,Slow,S8,10114,,,-1,-1,,,,1
6583773bb83c230e7271378c,nld5ooi9lp,Ex2A_Prolific,1,101,2024-02-28T01:39:08+00:00,4.3249251842499,1,Stim_A.csv,Read.csv,Read,A,delay,,S9,,,70,Study,User,1.25,,Slow,S9,4093,,,-1,-1,,,,1
6583773bb83c230e7271378c,nld5ooi9lp,Ex2A_Prolific,1,102,2024-02-28T01:39:11+00:00,2.2605488300323,1,Stim_A.csv,Read.csv,Read,A,hesitant,,S10,,,71,Study,User,1.25,,Slow,S10,2056,,,-1,-1,,,,1
6583773bb83c230e7271378c,nld5ooi9lp,Ex2A_Prolific,1,103,2024-02-28T01:39:14+00:00,3.6011090278625,1,Stim_A.csv,Read.csv,Read,A,cautious,,S11,,,72,Study,User,1.25,,Slow,S11,3318,,,-1,-1,,,,1
6583773bb83c230e7271378c,nld5ooi9lp,Ex2A_Prolific,1,104,2024-02-28T01:39:19+00:00,4.6784760951996,1,Stim_A.csv,Read.csv,Read,A,traffic,,S12,,,73,Study,User,1.25,,Slow,S12,4475,,,-1,-1,,,,1
6583773bb83c230e7271378c,nld5ooi9lp,Ex2A_Prolific,1,105,2024-02-28T01:39:21+00:00,1.7607319355011,1,Stim_A.csv,Read.csv,Read,A,,,,,,0,Instruct,User,-,"You have completed this section. Please click next.",,Instruct166,1539,,,-1,-1,,,,1
6583773bb83c230e7271378c,nld5ooi9lp,Ex2A_Prolific,1,106,2024-02-28T01:39:51+00:00,30.245028972626,1,Stim_A.csv,Read.csv,Read,A,,,,,,0,FreeRecall,30,30,"Please type as many words as you can that begin with the letter ""K"". The computer will automatically advance to the next screen in 30 seconds.",,FILLER,30002,,0,-1,-1,0,0,,0.98
6583773bb83c230e7271378c,nld5ooi9lp,Ex2A_Prolific,1,107,2024-02-28T01:39:52+00:00,1.6157050132751,1,Stim_A.csv,Read.csv,Read,A,,,,,,0,Instruct,User,-,"You have completed this section. Please click next.",,Instruct166,1400,,,-1,-1,,,,1
6583773bb83c230e7271378c,nld5ooi9lp,Ex2A_Prolific,1,108,2024-02-28T01:39:58+00:00,5.7168700695038,1,Stim_A.csv,Read.csv,Read,A,,,,,,0,Instruct,User,4,"You will now complete a memory test for the words you just studied. Please type as many words from the previous list as you can seperated by a comma. Spelling will not count against you and you can recall the words in any order. This test will be timed for one minute, and the computer will automatically advance once time is up. Click next when you are ready to begin.",,Instruct1666,5517,,,-1,-1,,,,1
6583773bb83c230e7271378c,nld5ooi9lp,Ex2A_Prolific,1,109,2024-02-28T01:40:59+00:00,60.315815925598,1,Stim_A.csv,Read.csv,Read,A,,,,,,0,FreeRecall,60,60,"Please type as many words as you can from the previous study list in any order. Please separate each word with a comma. Spelling will not count against you. This screen will automatically advance in one minute.",,RECALL_Test,60001,"speed, hesitant, cautious, traffic, snail, sluggish, turtle, fast, molasses, ",0,750,40157,0,0,,1
6583773bb83c230e7271378c,nld5ooi9lp,Ex2A_Prolific,1,110,2024-02-28T01:41:02+00:00,3.7641980648041,1,Stim_A.csv,Read.csv,Read,A,,,,,,0,Instruct,User,3,"You will now be presented with a new study list. Click next when you are ready to begin.",,NEXT_LIST,3557,,,-1,-1,,,,1
6583773bb83c230e7271378c,nld5ooi9lp,Ex2A_Prolific,1,111,2024-02-28T01:41:08+00:00,6.0728759765625,1,Stim_A.csv,Read.csv,Read,A,mississippi,,RR1,,,74,Study,User,1.25,,River,RR1,5865,,,-1,-1,,,,0.789
6583773bb83c230e7271378c,nld5ooi9lp,Ex2A_Prolific,1,112,2024-02-28T01:41:11+00:00,2.552365064621,1,Stim_A.csv,Read.csv,Read,A,creek,,RR2,,,75,Study,User,1.25,,River,RR2,2331,,,-1,-1,,,,1
6583773bb83c230e7271378c,nld5ooi9lp,Ex2A_Prolific,1,113,2024-02-28T01:41:14+00:00,3.3745470046997,1,Stim_A.csv,Read.csv,Read,A,stream,,RR3,,,76,Study,User,1.25,,River,RR3,3159,,,-1,-1,,,,1
6583773bb83c230e7271378c,nld5ooi9lp,Ex2A_Prolific,1,114,2024-02-28T01:41:19+00:00,4.9276859760284,1,Stim_A.csv,Read.csv,Read,A,flow,,RR4,,,77,Study,User,1.25,,River,RR4,4714,,,-1,-1,,,,1
6583773bb83c230e7271378c,nld5ooi9lp,Ex2A_Prolific,1,115,2024-02-28T01:41:24+00:00,4.5399968624115,1,Stim_A.csv,Read.csv,Read,A,bridge,,RR5,,,78,Study,User,1.25,,River,RR5,4320,,,-1,-1,,,,1
6583773bb83c230e7271378c,nld5ooi9lp,Ex2A_Prolific,1,116,2024-02-28T01:41:49+00:00,25.648599147797,1,Stim_A.csv,Read.csv,Read,A,brook,,RR6,,,79,Study,User,1.25,,River,RR6,25432,,,-1,-1,,,,1
6583773bb83c230e7271378c,nld5ooi9lp,Ex2A_Prolific,1,117,2024-02-28T01:42:11+00:00,21.321019887924,1,Stim_A.csv,Read.csv,Read,A,lake,,RR7,,,80,Study,User,1.25,,River,RR7,21095,,,-1,-1,,,,1
6583773bb83c230e7271378c,nld5ooi9lp,Ex2A_Prolific,1,118,2024-02-28T01:42:23+00:00,12.148828983307,1,Stim_A.csv,Read.csv,Read,A,barge,,RR8,,,81,Study,User,1.25,,River,RR8,11932,,,-1,-1,,,,1
6583773bb83c230e7271378c,nld5ooi9lp,Ex2A_Prolific,1,119,2024-02-28T01:42:25+00:00,2.4349901676178,1,Stim_A.csv,Read.csv,Read,A,water,,RR9,,,82,Study,User,1.25,,River,RR9,2171,,,-1,-1,,,,1
6583773bb83c230e7271378c,nld5ooi9lp,Ex2A_Prolific,1,120,2024-02-28T01:42:28+00:00,3.0798709392548,1,Stim_A.csv,Read.csv,Read,A,boat,,RR10,,,83,Study,User,1.25,,River,RR10,2880,,,-1,-1,,,,1
6583773bb83c230e7271378c,nld5ooi9lp,Ex2A_Prolific,1,121,2024-02-28T01:42:31+00:00,2.3855469226837,1,Stim_A.csv,Read.csv,Read,A,tide,,RR11,,,84,Study,User,1.25,,River,RR11,2155,,,-1,-1,,,,1
6583773bb83c230e7271378c,nld5ooi9lp,Ex2A_Prolific,1,122,2024-02-28T01:42:34+00:00,2.919242143631,1,Stim_A.csv,Read.csv,Read,A,swim,,RR12,,,85,Study,User,1.25,,River,RR12,2681,,,-1,-1,,,,1
6583773bb83c230e7271378c,nld5ooi9lp,Ex2A_Prolific,1,123,2024-02-28T01:42:35+00:00,1.6556448936462,1,Stim_A.csv,Read.csv,Read,A,,,,,,0,Instruct,User,-,"You have completed this section. Please click next.",,Instruct166,1441,,,-1,-1,,,,1
6583773bb83c230e7271378c,nld5ooi9lp,Ex2A_Prolific,1,124,2024-02-28T01:43:06+00:00,30.242018938065,1,Stim_A.csv,Read.csv,Read,A,,,,,,0,FreeRecall,30,30,"Please type as many words as you can that begin with the letter ""K"". The computer will automatically advance to the next screen in 30 seconds.",,FILLER,30002,,0,-1,-1,0,0,,1
6583773bb83c230e7271378c,nld5ooi9lp,Ex2A_Prolific,1,125,2024-02-28T01:43:07+00:00,1.5197520256042,1,Stim_A.csv,Read.csv,Read,A,,,,,,0,Instruct,User,-,"You have completed this section. Please click next.",,Instruct166,1312,,,-1,-1,,,,1
6583773bb83c230e7271378c,nld5ooi9lp,Ex2A_Prolific,1,126,2024-02-28T01:43:14+00:00,6.9032011032104,1,Stim_A.csv,Read.csv,Read,A,,,,,,0,Instruct,User,4,"You will now complete a memory test for the words you just studied. Please type as many words from the previous list as you can seperated by a comma. Spelling will not count against you and you can recall the words in any order. This test will be timed for one minute, and the computer will automatically advance once time is up. Click next when you are ready to begin.",,Instruct1666,6697,,,-1,-1,,,,1
6583773bb83c230e7271378c,nld5ooi9lp,Ex2A_Prolific,1,127,2024-02-28T01:44:14+00:00,60.229955911636,1,Stim_A.csv,Read.csv,Read,A,,,,,,0,FreeRecall,60,60,"Please type as many words as you can from the previous study list in any order. Please separate each word with a comma. Spelling will not count against you. This screen will automatically advance in one minute.",,RECALL_Test,60002,"Mississippi, creek, river, flow, bridge, brook, lake, swim, tide, water",0,4086,28209,0,0,,1
6583773bb83c230e7271378c,nld5ooi9lp,Ex2A_Prolific,1,128,2024-02-28T01:44:18+00:00,3.96413397789,1,Stim_A.csv,Read.csv,Read,A,,,,,,0,Instruct,User,3,"You will now be presented with a new study list. Click next when you are ready to begin.",,NEXT_LIST,3776,,,-1,-1,,,,1
6583773bb83c230e7271378c,nld5ooi9lp,Ex2A_Prolific,1,129,2024-02-28T01:44:22+00:00,3.4250581264496,1,Stim_A.csv,Read.csv,Read,A,rye,,B1,,,86,Study,User,1.25,,Bread,B1,3227,,,-1,-1,,,,1
6583773bb83c230e7271378c,nld5ooi9lp,Ex2A_Prolific,1,130,2024-02-28T01:44:23+00:00,1.5171179771423,1,Stim_A.csv,Read.csv,Read,A,loaf,,B2,,,87,Study,User,1.25,,Bread,B2,1302,,,-1,-1,,,,1
6583773bb83c230e7271378c,nld5ooi9lp,Ex2A_Prolific,1,131,2024-02-28T01:44:27+00:00,3.5645248889923,1,Stim_A.csv,Read.csv,Read,A,butter,,B3,,,88,Study,User,1.25,,Bread,B3,3322,,,-1,-1,,,,1
6583773bb83c230e7271378c,nld5ooi9lp,Ex2A_Prolific,1,132,2024-02-28T01:44:33+00:00,6.7211019992828,1,Stim_A.csv,Read.csv,Read,A,toast,,B4,,,89,Study,User,1.25,,Bread,B4,6472,,,-1,-1,,,,1
6583773bb83c230e7271378c,nld5ooi9lp,Ex2A_Prolific,1,133,2024-02-28T01:44:40+00:00,6.3327429294586,1,Stim_A.csv,Read.csv,Read,A,dough,,B5,,,90,Study,User,1.25,,Bread,B5,6133,,,-1,-1,,,,1
6583773bb83c230e7271378c,nld5ooi9lp,Ex2A_Prolific,1,134,2024-02-28T01:44:55+00:00,15.483307123184,1,Stim_A.csv,Read.csv,Read,A,crust,,B6,,,91,Study,User,1.25,,Bread,B6,15205,,,-1,-1,,,,1
6583773bb83c230e7271378c,nld5ooi9lp,Ex2A_Prolific,1,135,2024-02-28T01:44:58+00:00,3.2436020374298,1,Stim_A.csv,Read.csv,Read,A,flour,,B7,,,92,Study,User,1.25,,Bread,B7,3006,,,-1,-1,,,,1
6583773bb83c230e7271378c,nld5ooi9lp,Ex2A_Prolific,1,136,2024-02-28T01:45:18+00:00,19.064146995544,1,Stim_A.csv,Read.csv,Read,A,sandwich,,B8,,,93,Study,User,1.25,,Bread,B8,18842,,,-1,-1,,,,1
6583773bb83c230e7271378c,nld5ooi9lp,Ex2A_Prolific,1,137,2024-02-28T01:45:21+00:00,3.3926570415497,1,Stim_A.csv,Read.csv,Read,A,jam,,B9,,,94,Study,User,1.25,,Bread,B9,3179,,,-1,-1,,,,1
6583773bb83c230e7271378c,nld5ooi9lp,Ex2A_Prolific,1,138,2024-02-28T01:45:23+00:00,2.3368599414825,1,Stim_A.csv,Read.csv,Read,A,jelly,,B10,,,95,Study,User,1.25,,Bread,B10,2102,,,-1,-1,,,,1
6583773bb83c230e7271378c,nld5ooi9lp,Ex2A_Prolific,1,139,2024-02-28T01:45:25+00:00,2.0609490871429,1,Stim_A.csv,Read.csv,Read,A,slice,,B11,,,96,Study,User,1.25,,Bread,B11,1856,,,-1,-1,,,,1
6583773bb83c230e7271378c,nld5ooi9lp,Ex2A_Prolific,1,140,2024-02-28T01:45:27+00:00,1.9525139331818,1,Stim_A.csv,Read.csv,Read,A,milk,,B12,,,97,Study,User,1.25,,Bread,B12,1709,,,-1,-1,,,,1
6583773bb83c230e7271378c,nld5ooi9lp,Ex2A_Prolific,1,141,2024-02-28T01:45:33+00:00,5.7619700431824,1,Stim_A.csv,Read.csv,Read,A,,,,,,0,Instruct,User,4,"You have completed this section. Please click next.",,Instruct166,5535,,,-1,-1,,,,1
6583773bb83c230e7271378c,nld5ooi9lp,Ex2A_Prolific,1,142,2024-02-28T01:46:03+00:00,30.241932868958,1,Stim_A.csv,Read.csv,Read,A,,,,,,0,FreeRecall,30,30,"Please type as many words as you can that begin with the letter ""K"". The computer will automatically advance to the next screen in 30 seconds.",,FILLER,30002,,0,-1,-1,0,0,,1
6583773bb83c230e7271378c,nld5ooi9lp,Ex2A_Prolific,1,143,2024-02-28T01:46:09+00:00,5.3030030727386,1,Stim_A.csv,Read.csv,Read,A,,,,,,0,Instruct,User,4,"You have completed this section. Please click next.",,Instruct166,5023,,,-1,-1,,,,0.909
6583773bb83c230e7271378c,nld5ooi9lp,Ex2A_Prolific,1,144,2024-02-28T01:46:14+00:00,5.2337219715118,1,Stim_A.csv,Read.csv,Read,A,,,,,,0,Instruct,User,4,"You will now complete a memory test for the words you just studied. Please type as many words from the previous list as you can seperated by a comma. Spelling will not count against you and you can recall the words in any order. This test will be timed for one minute, and the computer will automatically advance once time is up. Click next when you are ready to begin.",,Instruct1666,5020,,,-1,-1,,,,1
6583773bb83c230e7271378c,nld5ooi9lp,Ex2A_Prolific,1,145,2024-02-28T01:47:14+00:00,60.566307067871,1,Stim_A.csv,Read.csv,Read,A,,,,,,0,FreeRecall,60,60,"Please type as many words as you can from the previous study list in any order. Please separate each word with a comma. Spelling will not count against you. This screen will automatically advance in one minute.",,RECALL_Test,60005,"rye, loaf, butter, toast, dough, crust, flour, sandwich, jam, jelly, milk",0,979,20202,0,0,,0.976
6583773bb83c230e7271378c,nld5ooi9lp,Ex2A_Prolific,1,146,2024-02-28T01:47:18+00:00,4.0717089176178,1,Stim_A.csv,Read.csv,Read,A,,,,,,0,Instruct,User,3,"You will now be presented with a new study list. Click next when you are ready to begin.",,NEXT_LIST,3861,,,-1,-1,,,,1
6583773bb83c230e7271378c,nld5ooi9lp,Ex2A_Prolific,1,147,2024-02-28T01:47:21+00:00,2.350683927536,1,Stim_A.csv,Read.csv,Read,A,banner,,F1,,,98,Study,User,1.25,,Flag,F1,2140,,,-1,-1,,,,1
6583773bb83c230e7271378c,nld5ooi9lp,Ex2A_Prolific,1,148,2024-02-28T01:47:24+00:00,2.7612051963806,1,Stim_A.csv,Read.csv,Read,A,checkered,,F2,,,99,Study,User,1.25,,Flag,F2,2531,,,-1,-1,,,,1
6583773bb83c230e7271378c,nld5ooi9lp,Ex2A_Prolific,1,149,2024-02-28T01:47:28+00:00,4.4520897865295,1,Stim_A.csv,Read.csv,Read,A,american,,F3,,,100,Study,User,1.25,,Flag,F3,4247,,,-1,-1,,,,1
6583773bb83c230e7271378c,nld5ooi9lp,Ex2A_Prolific,1,150,2024-02-28T01:47:34+00:00,6.0294229984283,1,Stim_A.csv,Read.csv,Read,A,stripes,,F4,,,101,Study,User,1.25,,Flag,F4,5834,,,-1,-1,,,,1
6583773bb83c230e7271378c,nld5ooi9lp,Ex2A_Prolific,1,151,2024-02-28T01:47:37+00:00,2.486563205719,1,Stim_A.csv,Read.csv,Read,A,pole,,F5,,,102,Study,User,1.25,,Flag,F5,2288,,,-1,-1,,,,1
6583773bb83c230e7271378c,nld5ooi9lp,Ex2A_Prolific,1,152,2024-02-28T01:47:45+00:00,8.3547699451447,1,Stim_A.csv,Read.csv,Read,A,anthem,,F6,,,103,Study,User,1.25,,Flag,F6,8133,,,-1,-1,,,,1
6583773bb83c230e7271378c,nld5ooi9lp,Ex2A_Prolific,1,153,2024-02-28T01:47:56+00:00,11.479413986206,1,Stim_A.csv,Read.csv,Read,A,emblem,,F7,,,104,Study,User,1.25,,Flag,F7,11281,,,-1,-1,,,,1
6583773bb83c230e7271378c,nld5ooi9lp,Ex2A_Prolific,1,154,2024-02-28T01:47:59+00:00,2.1626088619232,1,Stim_A.csv,Read.csv,Read,A,national,,F8,,,105,Study,User,1.25,,Flag,F8,1890,,,-1,-1,,,,1
6583773bb83c230e7271378c,nld5ooi9lp,Ex2A_Prolific,1,155,2024-02-28T01:48:01+00:00,2.5155341625214,1,Stim_A.csv,Read.csv,Read,A,freedom,,F9,,,106,Study,User,1.25,,Flag,F9,1989,,,-1,-1,,,,1
6583773bb83c230e7271378c,nld5ooi9lp,Ex2A_Prolific,1,156,2024-02-28T01:48:03+00:00,2.2053799629211,1,Stim_A.csv,Read.csv,Read,A,symbol,,F10,,,107,Study,User,1.25,,Flag,F10,1987,,,-1,-1,,,,1
6583773bb83c230e7271378c,nld5ooi9lp,Ex2A_Prolific,1,157,2024-02-28T01:48:05+00:00,2.1305370330811,1,Stim_A.csv,Read.csv,Read,A,wave,,F11,,,108,Study,User,1.25,,Flag,F11,1907,,,-1,-1,,,,1
6583773bb83c230e7271378c,nld5ooi9lp,Ex2A_Prolific,1,158,2024-02-28T01:48:08+00:00,2.2616858482361,1,Stim_A.csv,Read.csv,Read,A,stars,,F12,,,109,Study,User,1.25,,Flag,F12,2012,,,-1,-1,,,,1
6583773bb83c230e7271378c,nld5ooi9lp,Ex2A_Prolific,1,159,2024-02-28T01:48:09+00:00,1.6931509971619,1,Stim_A.csv,Read.csv,Read,A,,,,,,0,Instruct,User,-,"You have completed this section. Please click next.",,Instruct166,1463,,,-1,-1,,,,1
6583773bb83c230e7271378c,nld5ooi9lp,Ex2A_Prolific,1,160,2024-02-28T01:48:40+00:00,30.260869979858,1,Stim_A.csv,Read.csv,Read,A,,,,,,0,FreeRecall,30,30,"Please type as many words as you can that begin with the letter ""K"". The computer will automatically advance to the next screen in 30 seconds.",,FILLER,30004,,0,-1,-1,0,0,,1
6583773bb83c230e7271378c,nld5ooi9lp,Ex2A_Prolific,1,161,2024-02-28T01:48:45+00:00,5.433342218399,1,Stim_A.csv,Read.csv,Read,A,,,,,,0,Instruct,User,4,"You have completed this section. Please click next.",,Instruct166,5205,,,-1,-1,,,,1
6583773bb83c230e7271378c,nld5ooi9lp,Ex2A_Prolific,1,162,2024-02-28T01:48:50+00:00,5.1286818981171,1,Stim_A.csv,Read.csv,Read,A,,,,,,0,Instruct,User,4,"You will now complete a memory test for the words you just studied. Please type as many words from the previous list as you can seperated by a comma. Spelling will not count against you and you can recall the words in any order. This test will be timed for one minute, and the computer will automatically advance once time is up. Click next when you are ready to begin.",,Instruct1666,4846,,,-1,-1,,,,1
6583773bb83c230e7271378c,nld5ooi9lp,Ex2A_Prolific,1,163,2024-02-28T01:49:51+00:00,60.418636083603,1,Stim_A.csv,Read.csv,Read,A,,,,,,0,FreeRecall,60,60,"Please type as many words as you can from the previous study list in any order. Please separate each word with a comma. Spelling will not count against you. This screen will automatically advance in one minute.",,RECALL_Test,60178,"banner, checkered, american, stripes, pole, wave, national, anthem, emblem",0,1591,22266,0,0,,0.967
6583773bb83c230e7271378c,nld5ooi9lp,Ex2A_Prolific,1,164,2024-02-28T01:49:54+00:00,3.5330798625946,1,Stim_A.csv,Read.csv,Read,A,,,,,,0,Instruct,User,3,"You will now be presented with a new study list. Click next when you are ready to begin.",,NEXT_LIST,3316,,,-1,-1,,,,0.667
6583773bb83c230e7271378c,nld5ooi9lp,Ex2A_Prolific,1,165,2024-02-28T01:49:56+00:00,2.2529320716858,1,Stim_A.csv,Read.csv,Read,A,blouse,,SS1,,,110,Study,User,1.25,,Shirt,SS1,1982,,,-1,-1,,,,1
6583773bb83c230e7271378c,nld5ooi9lp,Ex2A_Prolific,1,166,2024-02-28T01:49:59+00:00,2.2101500034332,1,Stim_A.csv,Read.csv,Read,A,sleeves,,SS2,,,111,Study,User,1.25,,Shirt,SS2,1994,,,-1,-1,,,,1
6583773bb83c230e7271378c,nld5ooi9lp,Ex2A_Prolific,1,167,2024-02-28T01:50:02+00:00,3.5005040168762,1,Stim_A.csv,Read.csv,Read,A,collar,,SS3,,,112,Study,User,1.25,,Shirt,SS3,3258,,,-1,-1,,,,1
6583773bb83c230e7271378c,nld5ooi9lp,Ex2A_Prolific,1,168,2024-02-28T01:50:05+00:00,2.473051071167,1,Stim_A.csv,Read.csv,Read,A,shorts,,SS4,,,113,Study,User,1.25,,Shirt,SS4,2263,,,-1,-1,,,,1
6583773bb83c230e7271378c,nld5ooi9lp,Ex2A_Prolific,1,169,2024-02-28T01:50:11+00:00,5.9689497947693,1,Stim_A.csv,Read.csv,Read,A,button,,SS5,,,114,Study,User,1.25,,Shirt,SS5,5748,,,-1,-1,,,,1
6583773bb83c230e7271378c,nld5ooi9lp,Ex2A_Prolific,1,170,2024-02-28T01:50:13+00:00,2.4085431098938,1,Stim_A.csv,Read.csv,Read,A,pants,,SS6,,,115,Study,User,1.25,,Shirt,SS6,2213,,,-1,-1,,,,1
6583773bb83c230e7271378c,nld5ooi9lp,Ex2A_Prolific,1,171,2024-02-28T01:50:16+00:00,2.7623069286346,1,Stim_A.csv,Read.csv,Read,A,polo,,SS7,,,116,Study,User,1.25,,Shirt,SS7,2556,,,-1,-1,,,,1
6583773bb83c230e7271378c,nld5ooi9lp,Ex2A_Prolific,1,172,2024-02-28T01:50:20+00:00,4.1027431488037,1,Stim_A.csv,Read.csv,Read,A,jersey,,SS8,,,117,Study,User,1.25,,Shirt,SS8,3614,,,-1,-1,,,,1
6583773bb83c230e7271378c,nld5ooi9lp,Ex2A_Prolific,1,173,2024-02-28T01:50:25+00:00,4.9459578990936,1,Stim_A.csv,Read.csv,Read,A,vest,,SS9,,,118,Study,User,1.25,,Shirt,SS9,4706,,,-1,-1,,,,1
6583773bb83c230e7271378c,nld5ooi9lp,Ex2A_Prolific,1,174,2024-02-28T01:50:28+00:00,2.8931820392609,1,Stim_A.csv,Read.csv,Read,A,cuffs,,SS10,,,119,Study,User,1.25,,Shirt,SS10,2672,,,-1,-1,,,,1
6583773bb83c230e7271378c,nld5ooi9lp,Ex2A_Prolific,1,175,2024-02-28T01:50:29+00:00,1.6210858821869,1,Stim_A.csv,Read.csv,Read,A,tie,,SS11,,,120,Study,User,1.25,,Shirt,SS11,1395,,,-1,-1,,,,1
6583773bb83c230e7271378c,nld5ooi9lp,Ex2A_Prolific,1,176,2024-02-28T01:50:32+00:00,2.2651951313019,1,Stim_A.csv,Read.csv,Read,A,pocket,,SS12,,,121,Study,User,1.25,,Shirt,SS12,2050,,,-1,-1,,,,1
6583773bb83c230e7271378c,nld5ooi9lp,Ex2A_Prolific,1,177,2024-02-28T01:50:38+00:00,6.8858778476715,1,Stim_A.csv,Read.csv,Read,A,,,,,,0,Instruct,User,4,"You have completed this section. Please click next.",,Instruct166,6682,,,-1,-1,,,,1
6583773bb83c230e7271378c,nld5ooi9lp,Ex2A_Prolific,1,178,2024-02-28T01:51:09+00:00,30.890758991241,1,Stim_A.csv,Read.csv,Read,A,,,,,,0,FreeRecall,30,30,"Please type as many words as you can that begin with the letter ""K"". The computer will automatically advance to the next screen in 30 seconds.",,FILLER,30657,,0,-1,-1,0,0,,0.986
6583773bb83c230e7271378c,nld5ooi9lp,Ex2A_Prolific,1,179,2024-02-28T01:51:11+00:00,1.9142792224884,1,Stim_A.csv,Read.csv,Read,A,,,,,,0,Instruct,User,-,"You have completed this section. Please click next.",,Instruct166,1698,,,-1,-1,,,,0.889
6583773bb83c230e7271378c,nld5ooi9lp,Ex2A_Prolific,1,180,2024-02-28T01:51:16+00:00,4.9693329334259,1,Stim_A.csv,Read.csv,Read,A,,,,,,0,Instruct,User,4,"You will now complete a memory test for the words you just studied. Please type as many words from the previous list as you can seperated by a comma. Spelling will not count against you and you can recall the words in any order. This test will be timed for one minute, and the computer will automatically advance once time is up. Click next when you are ready to begin.",,Instruct1666,4747,,,-1,-1,,,,1
6583773bb83c230e7271378c,nld5ooi9lp,Ex2A_Prolific,1,181,2024-02-28T01:52:17+00:00,60.346915960312,1,Stim_A.csv,Read.csv,Read,A,,,,,,0,FreeRecall,60,60,"Please type as many words as you can from the previous study list in any order. Please separate each word with a comma. Spelling will not count against you. This screen will automatically advance in one minute.",,RECALL_Test,60001,"blouse, sleeves, collar, button, cuff, shorts, pants, jersey, vest, tie, pocket",0,1288,27256,0,0,,0.957
6583773bb83c230e7271378c,nld5ooi9lp,Ex2A_Prolific,1,182,2024-02-28T01:52:19+00:00,2.1495459079742,1,Stim_A.csv,Read.csv,Read,A,,,,,,0,Instruct,User,-,"You have completed this section. Please click next.",,Instruct7,1925,,,-1,-1,,,,1
6583773bb83c230e7271378c,nld5ooi9lp,Ex2A_Prolific,1,183,2024-02-28T01:52:23+00:00,3.9857470989227,1,Stim_A.csv,Read.csv,Read,A,,,,,,0,Instruct,User,-,"The following screen will ask you a few questions abour your experience today. You must complete these questions to receive credit.",,Instruct8,3712,,,-1,-1,,,,1
