Username,ID,ExperimentName,Session,Trial,Date,TimeDif,"Condition Number","Stimuli File","Order File","Condition Description","Condition Notes",Stimuli*Cue,Stimuli*Answer,Stimuli*Shuffle,"Stimuli*Stimuli Notes",Stimuli*Value,Procedure*Item,"Procedure*Trial Type","Procedure*Max Time","Procedure*Min Time",Procedure*Text,"Procedure*Procedure Notes",Procedure*Shuffle,Response*RT,Response*Response,Response*Accuracy,Response*RTfirst,Response*RTlast,Response*strictAcc,Response*lenientAcc,Response*focus,Response*Focus
652fe805e19cd8c9d83c1456,9jkw9duey8,Ex2A_Prolific,1,1,2024-02-28T20:45:03+00:00,6.2903950214386,2,Stim_B.csv,Read.csv,Read,B,,,,,,0,Instruct,-,5,"In this section, you will be presented with a series of words. Please study each word carefully. Your memory will be tested! Click next when you are ready to begin.",Initial_Instruct,Instruct1,6113,,,-1,-1,,,,1
652fe805e19cd8c9d83c1456,9jkw9duey8,Ex2A_Prolific,1,2,2024-02-28T20:45:06+00:00,2.6223518848419,2,Stim_B.csv,Read.csv,Read,B,,,,,,0,Instruct,User,-,"You will now begin the study. Click next when you are ready to begin.",,Instruct16,2293,,,-1,-1,,,,1
652fe805e19cd8c9d83c1456,9jkw9duey8,Ex2A_Prolific,1,3,2024-02-28T20:45:09+00:00,2.8280391693115,2,Stim_B.csv,Read.csv,Read,B,aroma,,Win_1,,,2,Study,User,1.25,,Window,Win_1,2478,,,-1,-1,,,,1
652fe805e19cd8c9d83c1456,9jkw9duey8,Ex2A_Prolific,1,4,2024-02-28T20:45:12+00:00,2.8735918998718,2,Stim_B.csv,Read.csv,Read,B,scent,,Win_2,,,3,Study,User,1.25,,Window,Win_2,2521,,,-1,-1,,,,1
652fe805e19cd8c9d83c1456,9jkw9duey8,Ex2A_Prolific,1,5,2024-02-28T20:45:14+00:00,2.5040249824524,2,Stim_B.csv,Read.csv,Read,B,whiff,,Win_3,,,4,Study,User,1.25,,Window,Win_3,2155,,,-1,-1,,,,1
652fe805e19cd8c9d83c1456,9jkw9duey8,Ex2A_Prolific,1,6,2024-02-28T20:45:17+00:00,2.2803070545197,2,Stim_B.csv,Read.csv,Read,B,stench,,Win_4,,,5,Study,User,1.25,,Window,Win_4,1936,,,-1,-1,,,,1
652fe805e19cd8c9d83c1456,9jkw9duey8,Ex2A_Prolific,1,7,2024-02-28T20:45:19+00:00,2.8621220588684,2,Stim_B.csv,Read.csv,Read,B,reek,,Win_5,,,6,Study,User,1.25,,Window,Win_5,2516,,,-1,-1,,,,1
652fe805e19cd8c9d83c1456,9jkw9duey8,Ex2A_Prolific,1,8,2024-02-28T20:45:22+00:00,3.109876871109,2,Stim_B.csv,Read.csv,Read,B,sniff,,Win_6,,,7,Study,User,1.25,,Window,Win_6,2768,,,-1,-1,,,,1
652fe805e19cd8c9d83c1456,9jkw9duey8,Ex2A_Prolific,1,9,2024-02-28T20:45:25+00:00,2.846568107605,2,Stim_B.csv,Read.csv,Read,B,perfume,,Win_7,,,8,Study,User,1.25,,Window,Win_7,2498,,,-1,-1,,,,1
652fe805e19cd8c9d83c1456,9jkw9duey8,Ex2A_Prolific,1,10,2024-02-28T20:45:29+00:00,3.7709019184113,2,Stim_B.csv,Read.csv,Read,B,fragrance,,Win_8,,,9,Study,User,1.25,,Window,Win_8,3420,,,-1,-1,,,,1
652fe805e19cd8c9d83c1456,9jkw9duey8,Ex2A_Prolific,1,11,2024-02-28T20:45:32+00:00,2.9172620773315,2,Stim_B.csv,Read.csv,Read,B,nose,,Win_9,,,10,Study,User,1.25,,Window,Win_9,2580,,,-1,-1,,,,1
652fe805e19cd8c9d83c1456,9jkw9duey8,Ex2A_Prolific,1,12,2024-02-28T20:45:36+00:00,3.4863569736481,2,Stim_B.csv,Read.csv,Read,B,rose,,Win_10,,,11,Study,User,1.25,,Window,Win_10,3144,,,-1,-1,,,,1
652fe805e19cd8c9d83c1456,9jkw9duey8,Ex2A_Prolific,1,13,2024-02-28T20:45:39+00:00,3.5631878376007,2,Stim_B.csv,Read.csv,Read,B,salts,,Win_11,,,12,Study,User,1.25,,Window,Win_11,3221,,,-1,-1,,,,1
652fe805e19cd8c9d83c1456,9jkw9duey8,Ex2A_Prolific,1,14,2024-02-28T20:45:42+00:00,3.4187250137329,2,Stim_B.csv,Read.csv,Read,B,breathe,,Win_12,,,13,Study,User,1.25,,Window,Win_12,3081,,,-1,-1,,,,1
652fe805e19cd8c9d83c1456,9jkw9duey8,Ex2A_Prolific,1,15,2024-02-28T20:45:48+00:00,5.3173341751099,2,Stim_B.csv,Read.csv,Read,B,,,,,,0,Instruct,User,4,"You have completed this section. Please click next.",,Instruct166,4974,,,-1,-1,,,,1
652fe805e19cd8c9d83c1456,9jkw9duey8,Ex2A_Prolific,1,16,2024-02-28T20:46:18+00:00,30.365458011627,2,Stim_B.csv,Read.csv,Read,B,,,,,,0,FreeRecall,30,30,"Please type as many words as you can that begin with the letter ""K"". The computer will automatically advance to the next screen in 30 seconds.",,FILLER,30002,"Knife, knight, ketchup, kelvin, knav",0,10212,29957,0,0,,1
652fe805e19cd8c9d83c1456,9jkw9duey8,Ex2A_Prolific,1,17,2024-02-28T20:46:23+00:00,5.1150758266449,2,Stim_B.csv,Read.csv,Read,B,,,,,,0,Instruct,User,4,"You have completed this section. Please click next.",,Instruct166,4777,,,-1,-1,,,,1
652fe805e19cd8c9d83c1456,9jkw9duey8,Ex2A_Prolific,1,18,2024-02-28T20:46:31+00:00,7.3931391239166,2,Stim_B.csv,Read.csv,Read,B,,,,,,0,Instruct,User,4,"You will now complete a memory test for the words you just studied. Please type as many words from the previous list as you can seperated by a comma. Spelling will not count against you and you can recall the words in any order. This test will be timed for one minute, and the computer will automatically advance once time is up. Click next when you are ready to begin.",,Instruct1666,7041,,,-1,-1,,,,1
652fe805e19cd8c9d83c1456,9jkw9duey8,Ex2A_Prolific,1,19,2024-02-28T20:47:31+00:00,60.33912396431,2,Stim_B.csv,Read.csv,Read,B,,,,,,0,FreeRecall,60,60,"Please type as many words as you can from the previous study list in any order. Please separate each word with a comma. Spelling will not count against you. This screen will automatically advance in one minute.",,RECALL_Test,60000,"Aroma, whiff, scent, perfume, salts, smell, nose, ",0,2829,23483,0,0,,1
652fe805e19cd8c9d83c1456,9jkw9duey8,Ex2A_Prolific,1,20,2024-02-28T20:47:39+00:00,7.5908069610596,2,Stim_B.csv,Read.csv,Read,B,,,,,,0,Instruct,User,3,"You will now be presented with a new study list. Click next when you are ready to begin.",,NEXT_LIST,7245,,,-1,-1,,,,1
652fe805e19cd8c9d83c1456,9jkw9duey8,Ex2A_Prolific,1,21,2024-02-28T20:47:42+00:00,3.3015661239624,2,Stim_B.csv,Read.csv,Read,B,hard,,R1,,,14,Study,User,1.25,,Rough,R1,2949,,,-1,-1,,,,1
652fe805e19cd8c9d83c1456,9jkw9duey8,Ex2A_Prolific,1,22,2024-02-28T20:47:46+00:00,4.0809798240662,2,Stim_B.csv,Read.csv,Read,B,loud,,R2,,,15,Study,User,1.25,,Rough,R2,3741,,,-1,-1,,,,1
652fe805e19cd8c9d83c1456,9jkw9duey8,Ex2A_Prolific,1,23,2024-02-28T20:47:50+00:00,3.7117960453033,2,Stim_B.csv,Read.csv,Read,B,tender,,R3,,,16,Study,User,1.25,,Rough,R3,3358,,,-1,-1,,,,1
652fe805e19cd8c9d83c1456,9jkw9duey8,Ex2A_Prolific,1,24,2024-02-28T20:47:53+00:00,3.2915210723877,2,Stim_B.csv,Read.csv,Read,B,fluffy,,R4,,,17,Study,User,1.25,,Rough,R4,2946,,,-1,-1,,,,1
652fe805e19cd8c9d83c1456,9jkw9duey8,Ex2A_Prolific,1,25,2024-02-28T20:47:56+00:00,3.0164880752563,2,Stim_B.csv,Read.csv,Read,B,pillow,,R5,,,18,Study,User,1.25,,Rough,R5,2669,,,-1,-1,,,,1
652fe805e19cd8c9d83c1456,9jkw9duey8,Ex2A_Prolific,1,26,2024-02-28T20:47:59+00:00,3.4719848632812,2,Stim_B.csv,Read.csv,Read,B,downy,,R6,,,19,Study,User,1.25,,Rough,R6,3131,,,-1,-1,,,,1
652fe805e19cd8c9d83c1456,9jkw9duey8,Ex2A_Prolific,1,27,2024-02-28T20:48:02+00:00,2.9228439331055,2,Stim_B.csv,Read.csv,Read,B,plush,,R7,,,20,Study,User,1.25,,Rough,R7,2574,,,-1,-1,,,,1
652fe805e19cd8c9d83c1456,9jkw9duey8,Ex2A_Prolific,1,28,2024-02-28T20:48:05+00:00,2.8037230968475,2,Stim_B.csv,Read.csv,Read,B,cotton,,R8,,,21,Study,User,1.25,,Rough,R8,2458,,,-1,-1,,,,1
652fe805e19cd8c9d83c1456,9jkw9duey8,Ex2A_Prolific,1,29,2024-02-28T20:48:09+00:00,3.3582758903503,2,Stim_B.csv,Read.csv,Read,B,skin,,R9,,,22,Study,User,1.25,,Rough,R9,3014,,,-1,-1,,,,1
652fe805e19cd8c9d83c1456,9jkw9duey8,Ex2A_Prolific,1,30,2024-02-28T20:48:11+00:00,2.8185861110687,2,Stim_B.csv,Read.csv,Read,B,fur,,R10,,,23,Study,User,1.25,,Rough,R10,2469,,,-1,-1,,,,1
652fe805e19cd8c9d83c1456,9jkw9duey8,Ex2A_Prolific,1,31,2024-02-28T20:48:15+00:00,3.9764330387115,2,Stim_B.csv,Read.csv,Read,B,touch,,R11,,,24,Study,User,1.25,,Rough,R11,3626,,,-1,-1,,,,1
652fe805e19cd8c9d83c1456,9jkw9duey8,Ex2A_Prolific,1,32,2024-02-28T20:48:19+00:00,3.4383599758148,2,Stim_B.csv,Read.csv,Read,B,furry,,R12,,,25,Study,User,1.25,,Rough,R12,3086,,,-1,-1,,,,1
652fe805e19cd8c9d83c1456,9jkw9duey8,Ex2A_Prolific,1,33,2024-02-28T20:48:24+00:00,5.3750920295715,2,Stim_B.csv,Read.csv,Read,B,,,,,,0,Instruct,User,4,"You have completed this section. Please click next.",,Instruct166,5028,,,-1,-1,,,,1
652fe805e19cd8c9d83c1456,9jkw9duey8,Ex2A_Prolific,1,34,2024-02-28T20:48:55+00:00,30.363386869431,2,Stim_B.csv,Read.csv,Read,B,,,,,,0,FreeRecall,30,30,"Please type as many words as you can that begin with the letter ""K"". The computer will automatically advance to the next screen in 30 seconds.",,FILLER,30002,"Knife, knight, knave, ketchup, kinship, kin, kindred, ",0,2366,25539,0,0,,1
652fe805e19cd8c9d83c1456,9jkw9duey8,Ex2A_Prolific,1,35,2024-02-28T20:48:57+00:00,2.531172990799,2,Stim_B.csv,Read.csv,Read,B,,,,,,0,Instruct,User,-,"You have completed this section. Please click next.",,Instruct166,2174,,,-1,-1,,,,1
652fe805e19cd8c9d83c1456,9jkw9duey8,Ex2A_Prolific,1,36,2024-02-28T20:49:02+00:00,5.1499590873718,2,Stim_B.csv,Read.csv,Read,B,,,,,,0,Instruct,User,4,"You will now complete a memory test for the words you just studied. Please type as many words from the previous list as you can seperated by a comma. Spelling will not count against you and you can recall the words in any order. This test will be timed for one minute, and the computer will automatically advance once time is up. Click next when you are ready to begin.",,Instruct1666,4803,,,-1,-1,,,,1
652fe805e19cd8c9d83c1456,9jkw9duey8,Ex2A_Prolific,1,37,2024-02-28T20:50:03+00:00,60.357769966125,2,Stim_B.csv,Read.csv,Read,B,,,,,,0,FreeRecall,60,60,"Please type as many words as you can from the previous study list in any order. Please separate each word with a comma. Spelling will not count against you. This screen will automatically advance in one minute.",,RECALL_Test,60003,"Hard, fur, furry, cotton, ",0,1462,12546,0,0,,1
652fe805e19cd8c9d83c1456,9jkw9duey8,Ex2A_Prolific,1,38,2024-02-28T20:50:12+00:00,9.839928150177,2,Stim_B.csv,Read.csv,Read,B,,,,,,0,Instruct,User,3,"You will now be presented with a new study list. Click next when you are ready to begin.",,NEXT_LIST,9489,,,-1,-1,,,,1
652fe805e19cd8c9d83c1456,9jkw9duey8,Ex2A_Prolific,1,39,2024-02-28T20:50:18+00:00,5.0811018943787,2,Stim_B.csv,Read.csv,Read,B,honey,,A1,,,26,Study,User,1.25,,Anger,A1,4727,,,-1,-1,,,,1
652fe805e19cd8c9d83c1456,9jkw9duey8,Ex2A_Prolific,1,40,2024-02-28T20:50:22+00:00,4.2794148921967,2,Stim_B.csv,Read.csv,Read,B,bitter,,A2,,,27,Study,User,1.25,,Anger,A2,3926,,,-1,-1,,,,1
652fe805e19cd8c9d83c1456,9jkw9duey8,Ex2A_Prolific,1,41,2024-02-28T20:50:26+00:00,4.5099601745605,2,Stim_B.csv,Read.csv,Read,B,sugar,,A3,,,28,Study,User,1.25,,Anger,A3,4167,,,-1,-1,,,,1
652fe805e19cd8c9d83c1456,9jkw9duey8,Ex2A_Prolific,1,42,2024-02-28T20:50:30+00:00,3.9330778121948,2,Stim_B.csv,Read.csv,Read,B,sour,,A4,,,29,Study,User,1.25,,Anger,A4,3588,,,-1,-1,,,,1
652fe805e19cd8c9d83c1456,9jkw9duey8,Ex2A_Prolific,1,43,2024-02-28T20:50:34+00:00,4.0959072113037,2,Stim_B.csv,Read.csv,Read,B,candy,,A5,,,30,Study,User,1.25,,Anger,A5,3761,,,-1,-1,,,,1
652fe805e19cd8c9d83c1456,9jkw9duey8,Ex2A_Prolific,1,44,2024-02-28T20:50:38+00:00,4.0618059635162,2,Stim_B.csv,Read.csv,Read,B,tart,,A6,,,31,Study,User,1.25,,Anger,A6,3722,,,-1,-1,,,,1
652fe805e19cd8c9d83c1456,9jkw9duey8,Ex2A_Prolific,1,45,2024-02-28T20:50:43+00:00,4.1681220531464,2,Stim_B.csv,Read.csv,Read,B,chocolate,,A7,,,32,Study,User,1.25,,Anger,A7,3825,,,-1,-1,,,,1
652fe805e19cd8c9d83c1456,9jkw9duey8,Ex2A_Prolific,1,46,2024-02-28T20:50:46+00:00,3.7563939094543,2,Stim_B.csv,Read.csv,Read,B,nice,,A8,,,33,Study,User,1.25,,Anger,A8,3399,,,-1,-1,,,,1
652fe805e19cd8c9d83c1456,9jkw9duey8,Ex2A_Prolific,1,47,2024-02-28T20:50:50+00:00,3.8370048999786,2,Stim_B.csv,Read.csv,Read,B,taste,,A9,,,34,Study,User,1.25,,Anger,A9,3488,,,-1,-1,,,,1
652fe805e19cd8c9d83c1456,9jkw9duey8,Ex2A_Prolific,1,48,2024-02-28T20:50:53+00:00,3.0610220432281,2,Stim_B.csv,Read.csv,Read,B,cake,,A10,,,35,Study,User,1.25,,Anger,A10,2715,,,-1,-1,,,,1
652fe805e19cd8c9d83c1456,9jkw9duey8,Ex2A_Prolific,1,49,2024-02-28T20:50:57+00:00,3.786171913147,2,Stim_B.csv,Read.csv,Read,B,good,,A11,,,36,Study,User,1.25,,Anger,A11,3444,,,-1,-1,,,,1
652fe805e19cd8c9d83c1456,9jkw9duey8,Ex2A_Prolific,1,50,2024-02-28T20:51:00+00:00,3.0653400421143,2,Stim_B.csv,Read.csv,Read,B,tooth,,A12,,,37,Study,User,1.25,,Anger,A12,2722,,,-1,-1,,,,1
652fe805e19cd8c9d83c1456,9jkw9duey8,Ex2A_Prolific,1,51,2024-02-28T20:51:05+00:00,5.0469870567322,2,Stim_B.csv,Read.csv,Read,B,,,,,,0,Instruct,User,4,"You have completed this section. Please click next.",,Instruct166,4715,,,-1,-1,,,,1
652fe805e19cd8c9d83c1456,9jkw9duey8,Ex2A_Prolific,1,52,2024-02-28T20:51:35+00:00,30.33229804039,2,Stim_B.csv,Read.csv,Read,B,,,,,,0,FreeRecall,30,30,"Please type as many words as you can that begin with the letter ""K"". The computer will automatically advance to the next screen in 30 seconds.",,FILLER,30000,"Kindred, kinship, kin, knife, knight, ketchup ",0,1617,10781,0,0,,1
652fe805e19cd8c9d83c1456,9jkw9duey8,Ex2A_Prolific,1,53,2024-02-28T20:51:37+00:00,1.3952670097351,2,Stim_B.csv,Read.csv,Read,B,,,,,,0,Instruct,User,-,"You have completed this section. Please click next.",,Instruct166,1062,,,-1,-1,,,,1
652fe805e19cd8c9d83c1456,9jkw9duey8,Ex2A_Prolific,1,54,2024-02-28T20:51:42+00:00,5.0450868606567,2,Stim_B.csv,Read.csv,Read,B,,,,,,0,Instruct,User,4,"You will now complete a memory test for the words you just studied. Please type as many words from the previous list as you can seperated by a comma. Spelling will not count against you and you can recall the words in any order. This test will be timed for one minute, and the computer will automatically advance once time is up. Click next when you are ready to begin.",,Instruct1666,4693,,,-1,-1,,,,1
652fe805e19cd8c9d83c1456,9jkw9duey8,Ex2A_Prolific,1,55,2024-02-28T20:52:42+00:00,60.343159198761,2,Stim_B.csv,Read.csv,Read,B,,,,,,0,FreeRecall,60,60,"Please type as many words as you can from the previous study list in any order. Please separate each word with a comma. Spelling will not count against you. This screen will automatically advance in one minute.",,RECALL_Test,60000,"Honey, sugar, bitter, tart, chocolate, sweet, sour",0,1184,16323,0,0,,0.962
652fe805e19cd8c9d83c1456,9jkw9duey8,Ex2A_Prolific,1,56,2024-02-28T20:52:47+00:00,4.3367719650269,2,Stim_B.csv,Read.csv,Read,B,,,,,,0,Instruct,User,3,"You will now be presented with a new study list. Click next when you are ready to begin.",,NEXT_LIST,3981,,,-1,-1,,,,1
652fe805e19cd8c9d83c1456,9jkw9duey8,Ex2A_Prolific,1,57,2024-02-28T20:52:51+00:00,4.4877698421478,2,Stim_B.csv,Read.csv,Read,B,table,,T1,,,38,Study,User,1.25,,Trash,T1,4146,,,-1,-1,,,,1
652fe805e19cd8c9d83c1456,9jkw9duey8,Ex2A_Prolific,1,58,2024-02-28T20:52:55+00:00,3.830726146698,2,Stim_B.csv,Read.csv,Read,B,swivel,,T2,,,39,Study,User,1.25,,Trash,T2,3488,,,-1,-1,,,,1
652fe805e19cd8c9d83c1456,9jkw9duey8,Ex2A_Prolific,1,59,2024-02-28T20:53:00+00:00,4.8544728755951,2,Stim_B.csv,Read.csv,Read,B,rocking,,T3,,,40,Study,User,1.25,,Trash,T3,4513,,,-1,-1,,,,1
652fe805e19cd8c9d83c1456,9jkw9duey8,Ex2A_Prolific,1,60,2024-02-28T20:53:06+00:00,6.1302871704102,2,Stim_B.csv,Read.csv,Read,B,recliner,,T4,,,41,Study,User,1.25,,Trash,T4,5788,,,-1,-1,,,,1
652fe805e19cd8c9d83c1456,9jkw9duey8,Ex2A_Prolific,1,61,2024-02-28T20:53:10+00:00,4.3994829654694,2,Stim_B.csv,Read.csv,Read,B,seat,,T5,,,42,Study,User,1.25,,Trash,T5,4053,,,-1,-1,,,,1
652fe805e19cd8c9d83c1456,9jkw9duey8,Ex2A_Prolific,1,62,2024-02-28T20:53:14+00:00,3.540552854538,2,Stim_B.csv,Read.csv,Read,B,stool,,T6,,,43,Study,User,1.25,,Trash,T6,3198,,,-1,-1,,,,1
652fe805e19cd8c9d83c1456,9jkw9duey8,Ex2A_Prolific,1,63,2024-02-28T20:53:17+00:00,3.3182501792908,2,Stim_B.csv,Read.csv,Read,B,desk,,T7,,,44,Study,User,1.25,,Trash,T7,2971,,,-1,-1,,,,1
652fe805e19cd8c9d83c1456,9jkw9duey8,Ex2A_Prolific,1,64,2024-02-28T20:53:20+00:00,2.9570548534393,2,Stim_B.csv,Read.csv,Read,B,couch,,T8,,,45,Study,User,1.25,,Trash,T8,2606,,,-1,-1,,,,1
652fe805e19cd8c9d83c1456,9jkw9duey8,Ex2A_Prolific,1,65,2024-02-28T20:53:24+00:00,4.0553150177002,2,Stim_B.csv,Read.csv,Read,B,sit,,T9,,,46,Study,User,1.25,,Trash,T9,3699,,,-1,-1,,,,1
652fe805e19cd8c9d83c1456,9jkw9duey8,Ex2A_Prolific,1,66,2024-02-28T20:53:28+00:00,3.5512509346008,2,Stim_B.csv,Read.csv,Read,B,sofa,,T10,,,47,Study,User,1.25,,Trash,T10,3204,,,-1,-1,,,,1
652fe805e19cd8c9d83c1456,9jkw9duey8,Ex2A_Prolific,1,67,2024-02-28T20:53:31+00:00,2.9769251346588,2,Stim_B.csv,Read.csv,Read,B,bench,,T11,,,48,Study,User,1.25,,Trash,T11,2631,,,-1,-1,,,,1
652fe805e19cd8c9d83c1456,9jkw9duey8,Ex2A_Prolific,1,68,2024-02-28T20:53:33+00:00,2.7542419433594,2,Stim_B.csv,Read.csv,Read,B,sitting,,T12,,,49,Study,User,1.25,,Trash,T12,2413,,,-1,-1,,,,1
652fe805e19cd8c9d83c1456,9jkw9duey8,Ex2A_Prolific,1,69,2024-02-28T20:53:38+00:00,4.8312180042267,2,Stim_B.csv,Read.csv,Read,B,,,,,,0,Instruct,User,4,"You have completed this section. Please click next.",,Instruct166,4488,,,-1,-1,,,,1
652fe805e19cd8c9d83c1456,9jkw9duey8,Ex2A_Prolific,1,70,2024-02-28T20:54:09+00:00,30.352474927902,2,Stim_B.csv,Read.csv,Read,B,,,,,,0,FreeRecall,30,30,"Please type as many words as you can that begin with the letter ""K"". The computer will automatically advance to the next screen in 30 seconds.",,FILLER,30000,"Ketchup, knight, kindred, kinship, kelvin",0,1853,19394,0,0,,0.986
652fe805e19cd8c9d83c1456,9jkw9duey8,Ex2A_Prolific,1,71,2024-02-28T20:54:19+00:00,10.408205032349,2,Stim_B.csv,Read.csv,Read,B,,,,,,0,Instruct,User,-,"You have completed this section. Please click next.",,Instruct166,10060,,,-1,-1,,,,1
652fe805e19cd8c9d83c1456,9jkw9duey8,Ex2A_Prolific,1,72,2024-02-28T20:54:25+00:00,5.8009099960327,2,Stim_B.csv,Read.csv,Read,B,,,,,,0,Instruct,User,4,"You will now complete a memory test for the words you just studied. Please type as many words from the previous list as you can seperated by a comma. Spelling will not count against you and you can recall the words in any order. This test will be timed for one minute, and the computer will automatically advance once time is up. Click next when you are ready to begin.",,Instruct1666,5466,,,-1,-1,,,,1
652fe805e19cd8c9d83c1456,9jkw9duey8,Ex2A_Prolific,1,73,2024-02-28T20:55:25+00:00,60.348191976547,2,Stim_B.csv,Read.csv,Read,B,,,,,,0,FreeRecall,60,60,"Please type as many words as you can from the previous study list in any order. Please separate each word with a comma. Spelling will not count against you. This screen will automatically advance in one minute.",,RECALL_Test,60000,"Table, desk, seat, stool, couch, swivel, recliner, sofa",0,974,19461,0,0,,1
652fe805e19cd8c9d83c1456,9jkw9duey8,Ex2A_Prolific,1,74,2024-02-28T20:55:29+00:00,4.314316034317,2,Stim_B.csv,Read.csv,Read,B,,,,,,0,Instruct,User,3,"You will now be presented with a new study list. Click next when you are ready to begin.",,NEXT_LIST,3956,,,-1,-1,,,,1
652fe805e19cd8c9d83c1456,9jkw9duey8,Ex2A_Prolific,1,75,2024-02-28T20:55:33+00:00,3.9097421169281,2,Stim_B.csv,Read.csv,Read,B,climber,,D1,,,50,Study,User,1.25,,Doctor,D1,3562,,,-1,-1,,,,1
652fe805e19cd8c9d83c1456,9jkw9duey8,Ex2A_Prolific,1,76,2024-02-28T20:55:37+00:00,3.9067628383636,2,Stim_B.csv,Read.csv,Read,B,hill,,D2,,,51,Study,User,1.25,,Doctor,D2,3560,,,-1,-1,,,,1
652fe805e19cd8c9d83c1456,9jkw9duey8,Ex2A_Prolific,1,77,2024-02-28T20:55:40+00:00,2.9419281482697,2,Stim_B.csv,Read.csv,Read,B,climb,,D3,,,52,Study,User,1.25,,Doctor,D3,2592,,,-1,-1,,,,1
652fe805e19cd8c9d83c1456,9jkw9duey8,Ex2A_Prolific,1,78,2024-02-28T20:55:45+00:00,5.1678278446198,2,Stim_B.csv,Read.csv,Read,B,molehill,,D4,,,53,Study,User,1.25,,Doctor,D4,4818,,,-1,-1,,,,1
652fe805e19cd8c9d83c1456,9jkw9duey8,Ex2A_Prolific,1,79,2024-02-28T20:55:49+00:00,3.4207890033722,2,Stim_B.csv,Read.csv,Read,B,peak,,D5,,,54,Study,User,1.25,,Doctor,D5,3072,,,-1,-1,,,,1
652fe805e19cd8c9d83c1456,9jkw9duey8,Ex2A_Prolific,1,80,2024-02-28T20:55:54+00:00,5.6357071399689,2,Stim_B.csv,Read.csv,Read,B,valley,,D6,,,55,Study,User,1.25,,Doctor,D6,5289,,,-1,-1,,,,1
652fe805e19cd8c9d83c1456,9jkw9duey8,Ex2A_Prolific,1,81,2024-02-28T20:55:57+00:00,2.9141888618469,2,Stim_B.csv,Read.csv,Read,B,summit,,D7,,,56,Study,User,1.25,,Doctor,D7,2549,,,-1,-1,,,,1
652fe805e19cd8c9d83c1456,9jkw9duey8,Ex2A_Prolific,1,82,2024-02-28T20:56:00+00:00,2.389270067215,2,Stim_B.csv,Read.csv,Read,B,steep,,D8,,,57,Study,User,1.25,,Doctor,D8,2028,,,-1,-1,,,,1
652fe805e19cd8c9d83c1456,9jkw9duey8,Ex2A_Prolific,1,83,2024-02-28T20:56:02+00:00,2.2919900417328,2,Stim_B.csv,Read.csv,Read,B,ski,,D9,,,58,Study,User,1.25,,Doctor,D9,1941,,,-1,-1,,,,1
652fe805e19cd8c9d83c1456,9jkw9duey8,Ex2A_Prolific,1,84,2024-02-28T20:56:05+00:00,2.5953180789948,2,Stim_B.csv,Read.csv,Read,B,bike,,D10,,,59,Study,User,1.25,,Doctor,D10,2244,,,-1,-1,,,,1
652fe805e19cd8c9d83c1456,9jkw9duey8,Ex2A_Prolific,1,85,2024-02-28T20:56:07+00:00,2.510559797287,2,Stim_B.csv,Read.csv,Read,B,goat,,D11,,,60,Study,User,1.25,,Doctor,D11,2172,,,-1,-1,,,,1
652fe805e19cd8c9d83c1456,9jkw9duey8,Ex2A_Prolific,1,86,2024-02-28T20:56:09+00:00,2.128692150116,2,Stim_B.csv,Read.csv,Read,B,glacier,,D12,,,61,Study,User,1.25,,Doctor,D12,1781,,,-1,-1,,,,1
652fe805e19cd8c9d83c1456,9jkw9duey8,Ex2A_Prolific,1,87,2024-02-28T20:56:11+00:00,1.9483618736267,2,Stim_B.csv,Read.csv,Read,B,,,,,,0,Instruct,User,-,"You have completed this section. Please click next.",,Instruct166,1608,,,-1,-1,,,,1
652fe805e19cd8c9d83c1456,9jkw9duey8,Ex2A_Prolific,1,88,2024-02-28T20:56:42+00:00,30.347992181778,2,Stim_B.csv,Read.csv,Read,B,,,,,,0,FreeRecall,30,30,"Please type as many words as you can that begin with the letter ""K"". The computer will automatically advance to the next screen in 30 seconds.",,FILLER,30001,"Ketchup, knight, kindred, kinship, kleptomaniac",0,2225,23451,0,0,,1
652fe805e19cd8c9d83c1456,9jkw9duey8,Ex2A_Prolific,1,89,2024-02-28T20:56:53+00:00,11.305140018463,2,Stim_B.csv,Read.csv,Read,B,,,,,,0,Instruct,User,-,"You have completed this section. Please click next.",,Instruct166,10957,,,-1,-1,,,,1
652fe805e19cd8c9d83c1456,9jkw9duey8,Ex2A_Prolific,1,90,2024-02-28T20:56:58+00:00,5.5519149303436,2,Stim_B.csv,Read.csv,Read,B,,,,,,0,Instruct,User,4,"You will now complete a memory test for the words you just studied. Please type as many words from the previous list as you can seperated by a comma. Spelling will not count against you and you can recall the words in any order. This test will be timed for one minute, and the computer will automatically advance once time is up. Click next when you are ready to begin.",,Instruct1666,5214,,,-1,-1,,,,1
652fe805e19cd8c9d83c1456,9jkw9duey8,Ex2A_Prolific,1,91,2024-02-28T20:57:59+00:00,60.35102391243,2,Stim_B.csv,Read.csv,Read,B,,,,,,0,FreeRecall,60,60,"Please type as many words as you can from the previous study list in any order. Please separate each word with a comma. Spelling will not count against you. This screen will automatically advance in one minute.",,RECALL_Test,60002,"Climb, climber, molehill, summit, peak, goat, ski, bike",0,998,12432,0,0,,0.982
652fe805e19cd8c9d83c1456,9jkw9duey8,Ex2A_Prolific,1,92,2024-02-28T20:58:04+00:00,5.0717461109161,2,Stim_B.csv,Read.csv,Read,B,,,,,,0,Instruct,User,3,"You will now be presented with a new study list. Click next when you are ready to begin.",,NEXT_LIST,4718,,,-1,-1,,,,1
652fe805e19cd8c9d83c1456,9jkw9duey8,Ex2A_Prolific,1,93,2024-02-28T20:58:07+00:00,3.2771158218384,2,Stim_B.csv,Read.csv,Read,B,band,,S1,,,62,Study,User,1.25,,Slow,S1,2904,,,-1,-1,,,,1
652fe805e19cd8c9d83c1456,9jkw9duey8,Ex2A_Prolific,1,94,2024-02-28T20:58:11+00:00,4.2658400535583,2,Stim_B.csv,Read.csv,Read,B,concert,,S2,,,63,Study,User,1.25,,Slow,S2,3892,,,-1,-1,,,,1
652fe805e19cd8c9d83c1456,9jkw9duey8,Ex2A_Prolific,1,95,2024-02-28T20:58:15+00:00,3.2512531280518,2,Stim_B.csv,Read.csv,Read,B,jazz,,S3,,,64,Study,User,1.25,,Slow,S3,2907,,,-1,-1,,,,1
652fe805e19cd8c9d83c1456,9jkw9duey8,Ex2A_Prolific,1,96,2024-02-28T20:58:20+00:00,5.4748530387878,2,Stim_B.csv,Read.csv,Read,B,symphony,,S4,,,65,Study,User,1.25,,Slow,S4,5130,,,-1,-1,,,,1
652fe805e19cd8c9d83c1456,9jkw9duey8,Ex2A_Prolific,1,97,2024-02-28T20:58:25+00:00,4.5623908042908,2,Stim_B.csv,Read.csv,Read,B,orchestra,,S5,,,66,Study,User,1.25,,Slow,S5,4213,,,-1,-1,,,,1
652fe805e19cd8c9d83c1456,9jkw9duey8,Ex2A_Prolific,1,98,2024-02-28T20:58:28+00:00,2.9949781894684,2,Stim_B.csv,Read.csv,Read,B,rhythm,,S6,,,67,Study,User,1.25,,Slow,S6,2634,,,-1,-1,,,,1
652fe805e19cd8c9d83c1456,9jkw9duey8,Ex2A_Prolific,1,99,2024-02-28T20:58:31+00:00,3.2287929058075,2,Stim_B.csv,Read.csv,Read,B,radio,,S7,,,68,Study,User,1.25,,Slow,S7,2877,,,-1,-1,,,,1
652fe805e19cd8c9d83c1456,9jkw9duey8,Ex2A_Prolific,1,100,2024-02-28T20:58:34+00:00,2.9581620693207,2,Stim_B.csv,Read.csv,Read,B,melody,,S8,,,69,Study,User,1.25,,Slow,S8,2602,,,-1,-1,,,,1
652fe805e19cd8c9d83c1456,9jkw9duey8,Ex2A_Prolific,1,101,2024-02-28T20:58:37+00:00,2.6473038196564,2,Stim_B.csv,Read.csv,Read,B,piano,,S9,,,70,Study,User,1.25,,Slow,S9,2279,,,-1,-1,,,,1
652fe805e19cd8c9d83c1456,9jkw9duey8,Ex2A_Prolific,1,102,2024-02-28T20:58:39+00:00,2.3384850025177,2,Stim_B.csv,Read.csv,Read,B,sound,,S10,,,71,Study,User,1.25,,Slow,S10,1987,,,-1,-1,,,,1
652fe805e19cd8c9d83c1456,9jkw9duey8,Ex2A_Prolific,1,103,2024-02-28T20:58:42+00:00,2.9722712039948,2,Stim_B.csv,Read.csv,Read,B,instrument,,S11,,,72,Study,User,1.25,,Slow,S11,2623,,,-1,-1,,,,1
652fe805e19cd8c9d83c1456,9jkw9duey8,Ex2A_Prolific,1,104,2024-02-28T20:58:45+00:00,2.7296378612518,2,Stim_B.csv,Read.csv,Read,B,note,,S12,,,73,Study,User,1.25,,Slow,S12,2390,,,-1,-1,,,,1
652fe805e19cd8c9d83c1456,9jkw9duey8,Ex2A_Prolific,1,105,2024-02-28T20:58:47+00:00,1.9925889968872,2,Stim_B.csv,Read.csv,Read,B,,,,,,0,Instruct,User,-,"You have completed this section. Please click next.",,Instruct166,1646,,,-1,-1,,,,1
652fe805e19cd8c9d83c1456,9jkw9duey8,Ex2A_Prolific,1,106,2024-02-28T20:59:17+00:00,30.341181993484,2,Stim_B.csv,Read.csv,Read,B,,,,,,0,FreeRecall,30,30,"Please type as many words as you can that begin with the letter ""K"". The computer will automatically advance to the next screen in 30 seconds.",,FILLER,30003,"Knight, ketchup, kindred, kinship, kink ",0,1984,25503,0,0,,1
652fe805e19cd8c9d83c1456,9jkw9duey8,Ex2A_Prolific,1,107,2024-02-28T20:59:20+00:00,2.6853311061859,2,Stim_B.csv,Read.csv,Read,B,,,,,,0,Instruct,User,-,"You have completed this section. Please click next.",,Instruct166,2337,,,-1,-1,,,,1
652fe805e19cd8c9d83c1456,9jkw9duey8,Ex2A_Prolific,1,108,2024-02-28T20:59:25+00:00,5.1177759170532,2,Stim_B.csv,Read.csv,Read,B,,,,,,0,Instruct,User,4,"You will now complete a memory test for the words you just studied. Please type as many words from the previous list as you can seperated by a comma. Spelling will not count against you and you can recall the words in any order. This test will be timed for one minute, and the computer will automatically advance once time is up. Click next when you are ready to begin.",,Instruct1666,4785,,,-1,-1,,,,1
652fe805e19cd8c9d83c1456,9jkw9duey8,Ex2A_Prolific,1,109,2024-02-28T21:00:25+00:00,60.336894035339,2,Stim_B.csv,Read.csv,Read,B,,,,,,0,FreeRecall,60,60,"Please type as many words as you can from the previous study list in any order. Please separate each word with a comma. Spelling will not count against you. This screen will automatically advance in one minute.",,RECALL_Test,60000,"Band, concert, piano, symphony, orchestra",0,1043,20598,0,0,,0.986
652fe805e19cd8c9d83c1456,9jkw9duey8,Ex2A_Prolific,1,110,2024-02-28T21:00:29+00:00,4.0665900707245,2,Stim_B.csv,Read.csv,Read,B,,,,,,0,Instruct,User,3,"You will now be presented with a new study list. Click next when you are ready to begin.",,NEXT_LIST,3715,,,-1,-1,,,,1
652fe805e19cd8c9d83c1456,9jkw9duey8,Ex2A_Prolific,1,111,2024-02-28T21:00:33+00:00,3.4026739597321,2,Stim_B.csv,Read.csv,Read,B,foam,,RR1,,,74,Study,User,1.25,,River,RR1,3072,,,-1,-1,,,,1
652fe805e19cd8c9d83c1456,9jkw9duey8,Ex2A_Prolific,1,112,2024-02-28T21:00:36+00:00,3.0198998451233,2,Stim_B.csv,Read.csv,Read,B,latex,,RR2,,,75,Study,User,1.25,,River,RR2,2669,,,-1,-1,,,,1
652fe805e19cd8c9d83c1456,9jkw9duey8,Ex2A_Prolific,1,113,2024-02-28T21:00:39+00:00,3.1950931549072,2,Stim_B.csv,Read.csv,Read,B,galoshes,,RR3,,,76,Study,User,1.25,,River,RR3,2855,,,-1,-1,,,,1
652fe805e19cd8c9d83c1456,9jkw9duey8,Ex2A_Prolific,1,114,2024-02-28T21:00:40+00:00,1.7392499446869,2,Stim_B.csv,Read.csv,Read,B,tire,,RR4,,,77,Study,User,1.25,,River,RR4,1386,,,-1,-1,,,,1
652fe805e19cd8c9d83c1456,9jkw9duey8,Ex2A_Prolific,1,115,2024-02-28T21:00:43+00:00,2.4471991062164,2,Stim_B.csv,Read.csv,Read,B,flexible,,RR5,,,78,Study,User,1.25,,River,RR5,2112,,,-1,-1,,,,1
652fe805e19cd8c9d83c1456,9jkw9duey8,Ex2A_Prolific,1,116,2024-02-28T21:00:47+00:00,3.6086089611053,2,Stim_B.csv,Read.csv,Read,B,elastic,,RR6,,,79,Study,User,1.25,,River,RR6,3257,,,-1,-1,,,,1
652fe805e19cd8c9d83c1456,9jkw9duey8,Ex2A_Prolific,1,117,2024-02-28T21:00:49+00:00,2.4483468532562,2,Stim_B.csv,Read.csv,Read,B,gloves,,RR7,,,80,Study,User,1.25,,River,RR7,2102,,,-1,-1,,,,1
652fe805e19cd8c9d83c1456,9jkw9duey8,Ex2A_Prolific,1,118,2024-02-28T21:00:52+00:00,2.9707059860229,2,Stim_B.csv,Read.csv,Read,B,eraser,,RR8,,,81,Study,User,1.25,,River,RR8,2623,,,-1,-1,,,,1
652fe805e19cd8c9d83c1456,9jkw9duey8,Ex2A_Prolific,1,119,2024-02-28T21:00:54+00:00,2.2197911739349,2,Stim_B.csv,Read.csv,Read,B,bounce,,RR9,,,82,Study,User,1.25,,River,RR9,1867,,,-1,-1,,,,1
652fe805e19cd8c9d83c1456,9jkw9duey8,Ex2A_Prolific,1,120,2024-02-28T21:00:57+00:00,2.4202568531036,2,Stim_B.csv,Read.csv,Read,B,ball,,RR10,,,83,Study,User,1.25,,River,RR10,2064,,,-1,-1,,,,1
652fe805e19cd8c9d83c1456,9jkw9duey8,Ex2A_Prolific,1,121,2024-02-28T21:00:59+00:00,2.2576351165771,2,Stim_B.csv,Read.csv,Read,B,soles,,RR11,,,84,Study,User,1.25,,River,RR11,1911,,,-1,-1,,,,1
652fe805e19cd8c9d83c1456,9jkw9duey8,Ex2A_Prolific,1,122,2024-02-28T21:01:02+00:00,2.7520380020142,2,Stim_B.csv,Read.csv,Read,B,springy,,RR12,,,85,Study,User,1.25,,River,RR12,2405,,,-1,-1,,,,1
652fe805e19cd8c9d83c1456,9jkw9duey8,Ex2A_Prolific,1,123,2024-02-28T21:01:06+00:00,4.9165978431702,2,Stim_B.csv,Read.csv,Read,B,,,,,,0,Instruct,User,4,"You have completed this section. Please click next.",,Instruct166,4564,,,-1,-1,,,,1
652fe805e19cd8c9d83c1456,9jkw9duey8,Ex2A_Prolific,1,124,2024-02-28T21:01:37+00:00,30.367431163788,2,Stim_B.csv,Read.csv,Read,B,,,,,,0,FreeRecall,30,30,"Please type as many words as you can that begin with the letter ""K"". The computer will automatically advance to the next screen in 30 seconds.",,FILLER,30002,"Ketchup, knight, knead, kink, kangaroo, ",0,806,22933,0,0,,1
652fe805e19cd8c9d83c1456,9jkw9duey8,Ex2A_Prolific,1,125,2024-02-28T21:01:42+00:00,5.011323928833,2,Stim_B.csv,Read.csv,Read,B,,,,,,0,Instruct,User,4,"You have completed this section. Please click next.",,Instruct166,4658,,,-1,-1,,,,1
652fe805e19cd8c9d83c1456,9jkw9duey8,Ex2A_Prolific,1,126,2024-02-28T21:01:50+00:00,7.7988820075989,2,Stim_B.csv,Read.csv,Read,B,,,,,,0,Instruct,User,4,"You will now complete a memory test for the words you just studied. Please type as many words from the previous list as you can seperated by a comma. Spelling will not count against you and you can recall the words in any order. This test will be timed for one minute, and the computer will automatically advance once time is up. Click next when you are ready to begin.",,Instruct1666,7455,,,-1,-1,,,,1
652fe805e19cd8c9d83c1456,9jkw9duey8,Ex2A_Prolific,1,127,2024-02-28T21:02:50+00:00,60.345727920532,2,Stim_B.csv,Read.csv,Read,B,,,,,,0,FreeRecall,60,60,"Please type as many words as you can from the previous study list in any order. Please separate each word with a comma. Spelling will not count against you. This screen will automatically advance in one minute.",,RECALL_Test,60001,"Bounce, ball, springy, spring, ",0,1061,8350,0,0,,0.971
652fe805e19cd8c9d83c1456,9jkw9duey8,Ex2A_Prolific,1,128,2024-02-28T21:02:54+00:00,4.1250691413879,2,Stim_B.csv,Read.csv,Read,B,,,,,,0,Instruct,User,3,"You will now be presented with a new study list. Click next when you are ready to begin.",,NEXT_LIST,3765,,,-1,-1,,,,1
652fe805e19cd8c9d83c1456,9jkw9duey8,Ex2A_Prolific,1,129,2024-02-28T21:02:57+00:00,3.0703458786011,2,Stim_B.csv,Read.csv,Read,B,toe,,B1,,,86,Study,User,1.25,,Bread,B1,2707,,,-1,-1,,,,1
652fe805e19cd8c9d83c1456,9jkw9duey8,Ex2A_Prolific,1,130,2024-02-28T21:02:59+00:00,2.2605781555176,2,Stim_B.csv,Read.csv,Read,B,inch,,B2,,,87,Study,User,1.25,,Bread,B2,1906,,,-1,-1,,,,1
652fe805e19cd8c9d83c1456,9jkw9duey8,Ex2A_Prolific,1,131,2024-02-28T21:03:02+00:00,2.6467728614807,2,Stim_B.csv,Read.csv,Read,B,ankle,,B3,,,88,Study,User,1.25,,Bread,B3,2295,,,-1,-1,,,,1
652fe805e19cd8c9d83c1456,9jkw9duey8,Ex2A_Prolific,1,132,2024-02-28T21:03:06+00:00,3.3842420578003,2,Stim_B.csv,Read.csv,Read,B,shoe,,B4,,,89,Study,User,1.25,,Bread,B4,3039,,,-1,-1,,,,1
652fe805e19cd8c9d83c1456,9jkw9duey8,Ex2A_Prolific,1,133,2024-02-28T21:03:08+00:00,2.9420359134674,2,Stim_B.csv,Read.csv,Read,B,sandals,,B5,,,90,Study,User,1.25,,Bread,B5,2579,,,-1,-1,,,,1
652fe805e19cd8c9d83c1456,9jkw9duey8,Ex2A_Prolific,1,134,2024-02-28T21:03:11+00:00,2.6924350261688,2,Stim_B.csv,Read.csv,Read,B,sock,,B6,,,91,Study,User,1.25,,Bread,B6,2356,,,-1,-1,,,,1
652fe805e19cd8c9d83c1456,9jkw9duey8,Ex2A_Prolific,1,135,2024-02-28T21:03:13+00:00,2.1850690841675,2,Stim_B.csv,Read.csv,Read,B,hand,,B7,,,92,Study,User,1.25,,Bread,B7,1838,,,-1,-1,,,,1
652fe805e19cd8c9d83c1456,9jkw9duey8,Ex2A_Prolific,1,136,2024-02-28T21:03:16+00:00,2.2137389183044,2,Stim_B.csv,Read.csv,Read,B,boot,,B8,,,93,Study,User,1.25,,Bread,B8,1874,,,-1,-1,,,,1
652fe805e19cd8c9d83c1456,9jkw9duey8,Ex2A_Prolific,1,137,2024-02-28T21:03:18+00:00,2.3686649799347,2,Stim_B.csv,Read.csv,Read,B,yard,,B9,,,94,Study,User,1.25,,Bread,B9,2020,,,-1,-1,,,,1
652fe805e19cd8c9d83c1456,9jkw9duey8,Ex2A_Prolific,1,138,2024-02-28T21:03:20+00:00,2.1897580623627,2,Stim_B.csv,Read.csv,Read,B,kick,,B10,,,95,Study,User,1.25,,Bread,B10,1853,,,-1,-1,,,,1
652fe805e19cd8c9d83c1456,9jkw9duey8,Ex2A_Prolific,1,139,2024-02-28T21:03:23+00:00,2.9455721378326,2,Stim_B.csv,Read.csv,Read,B,knee,,B11,,,96,Study,User,1.25,,Bread,B11,2604,,,-1,-1,,,,1
652fe805e19cd8c9d83c1456,9jkw9duey8,Ex2A_Prolific,1,140,2024-02-28T21:03:26+00:00,2.5072629451752,2,Stim_B.csv,Read.csv,Read,B,walk,,B12,,,97,Study,User,1.25,,Bread,B12,2170,,,-1,-1,,,,1
652fe805e19cd8c9d83c1456,9jkw9duey8,Ex2A_Prolific,1,141,2024-02-28T21:03:28+00:00,2.0054938793182,2,Stim_B.csv,Read.csv,Read,B,,,,,,0,Instruct,User,-,"You have completed this section. Please click next.",,Instruct166,1663,,,-1,-1,,,,1
652fe805e19cd8c9d83c1456,9jkw9duey8,Ex2A_Prolific,1,142,2024-02-28T21:03:58+00:00,30.361030101776,2,Stim_B.csv,Read.csv,Read,B,,,,,,0,FreeRecall,30,30,"Please type as many words as you can that begin with the letter ""K"". The computer will automatically advance to the next screen in 30 seconds.",,FILLER,30000,"ketchup, knight, knave, kink, kindred, knee",0,1100,9185,0,0,,1
652fe805e19cd8c9d83c1456,9jkw9duey8,Ex2A_Prolific,1,143,2024-02-28T21:04:00+00:00,2.1531000137329,2,Stim_B.csv,Read.csv,Read,B,,,,,,0,Instruct,User,-,"You have completed this section. Please click next.",,Instruct166,1800,,,-1,-1,,,,1
652fe805e19cd8c9d83c1456,9jkw9duey8,Ex2A_Prolific,1,144,2024-02-28T21:04:05+00:00,4.9910569190979,2,Stim_B.csv,Read.csv,Read,B,,,,,,0,Instruct,User,4,"You will now complete a memory test for the words you just studied. Please type as many words from the previous list as you can seperated by a comma. Spelling will not count against you and you can recall the words in any order. This test will be timed for one minute, and the computer will automatically advance once time is up. Click next when you are ready to begin.",,Instruct1666,4652,,,-1,-1,,,,1
652fe805e19cd8c9d83c1456,9jkw9duey8,Ex2A_Prolific,1,145,2024-02-28T21:05:05+00:00,60.34806895256,2,Stim_B.csv,Read.csv,Read,B,,,,,,0,FreeRecall,60,60,"Please type as many words as you can from the previous study list in any order. Please separate each word with a comma. Spelling will not count against you. This screen will automatically advance in one minute.",,RECALL_Test,60002,"Toe, ankle, inch, yard, hand, sock, sandal, boot",0,1053,15239,0,0,,1
652fe805e19cd8c9d83c1456,9jkw9duey8,Ex2A_Prolific,1,146,2024-02-28T21:05:10+00:00,4.6662621498108,2,Stim_B.csv,Read.csv,Read,B,,,,,,0,Instruct,User,3,"You will now be presented with a new study list. Click next when you are ready to begin.",,NEXT_LIST,4321,,,-1,-1,,,,1
652fe805e19cd8c9d83c1456,9jkw9duey8,Ex2A_Prolific,1,147,2024-02-28T21:05:13+00:00,2.7385869026184,2,Stim_B.csv,Read.csv,Read,B,boy,,F1,,,98,Study,User,1.25,,Flag,F1,2388,,,-1,-1,,,,1
652fe805e19cd8c9d83c1456,9jkw9duey8,Ex2A_Prolific,1,148,2024-02-28T21:05:15+00:00,2.6411190032959,2,Stim_B.csv,Read.csv,Read,B,dolls,,F2,,,99,Study,User,1.25,,Flag,F2,2284,,,-1,-1,,,,1
652fe805e19cd8c9d83c1456,9jkw9duey8,Ex2A_Prolific,1,149,2024-02-28T21:05:18+00:00,2.4644191265106,2,Stim_B.csv,Read.csv,Read,B,pretty,,F3,,,100,Study,User,1.25,,Flag,F3,2116,,,-1,-1,,,,1
652fe805e19cd8c9d83c1456,9jkw9duey8,Ex2A_Prolific,1,150,2024-02-28T21:05:20+00:00,2.5416469573975,2,Stim_B.csv,Read.csv,Read,B,female,,F4,,,101,Study,User,1.25,,Flag,F4,2184,,,-1,-1,,,,1
652fe805e19cd8c9d83c1456,9jkw9duey8,Ex2A_Prolific,1,151,2024-02-28T21:05:23+00:00,2.2227430343628,2,Stim_B.csv,Read.csv,Read,B,dress,,F5,,,102,Study,User,1.25,,Flag,F5,1875,,,-1,-1,,,,1
652fe805e19cd8c9d83c1456,9jkw9duey8,Ex2A_Prolific,1,152,2024-02-28T21:05:25+00:00,2.4067327976227,2,Stim_B.csv,Read.csv,Read,B,date,,F6,,,103,Study,User,1.25,,Flag,F6,2062,,,-1,-1,,,,1
652fe805e19cd8c9d83c1456,9jkw9duey8,Ex2A_Prolific,1,153,2024-02-28T21:05:27+00:00,2.1502151489258,2,Stim_B.csv,Read.csv,Read,B,beautiful,,F7,,,104,Study,User,1.25,,Flag,F7,1805,,,-1,-1,,,,1
652fe805e19cd8c9d83c1456,9jkw9duey8,Ex2A_Prolific,1,154,2024-02-28T21:05:30+00:00,2.2709798812866,2,Stim_B.csv,Read.csv,Read,B,daughter,,F8,,,105,Study,User,1.25,,Flag,F8,1919,,,-1,-1,,,,1
652fe805e19cd8c9d83c1456,9jkw9duey8,Ex2A_Prolific,1,155,2024-02-28T21:05:32+00:00,2.6330940723419,2,Stim_B.csv,Read.csv,Read,B,sister,,F9,,,106,Study,User,1.25,,Flag,F9,2275,,,-1,-1,,,,1
652fe805e19cd8c9d83c1456,9jkw9duey8,Ex2A_Prolific,1,156,2024-02-28T21:05:35+00:00,2.5051848888397,2,Stim_B.csv,Read.csv,Read,B,cute,,F10,,,107,Study,User,1.25,,Flag,F10,2151,,,-1,-1,,,,1
652fe805e19cd8c9d83c1456,9jkw9duey8,Ex2A_Prolific,1,157,2024-02-28T21:05:37+00:00,2.4581332206726,2,Stim_B.csv,Read.csv,Read,B,niece,,F11,,,108,Study,User,1.25,,Flag,F11,2108,,,-1,-1,,,,1
652fe805e19cd8c9d83c1456,9jkw9duey8,Ex2A_Prolific,1,158,2024-02-28T21:05:40+00:00,2.6841659545898,2,Stim_B.csv,Read.csv,Read,B,young,,F12,,,109,Study,User,1.25,,Flag,F12,2331,,,-1,-1,,,,1
652fe805e19cd8c9d83c1456,9jkw9duey8,Ex2A_Prolific,1,159,2024-02-28T21:05:45+00:00,4.9136219024658,2,Stim_B.csv,Read.csv,Read,B,,,,,,0,Instruct,User,4,"You have completed this section. Please click next.",,Instruct166,4571,,,-1,-1,,,,1
652fe805e19cd8c9d83c1456,9jkw9duey8,Ex2A_Prolific,1,160,2024-02-28T21:06:15+00:00,30.34722495079,2,Stim_B.csv,Read.csv,Read,B,,,,,,0,FreeRecall,30,30,"Please type as many words as you can that begin with the letter ""K"". The computer will automatically advance to the next screen in 30 seconds.",,FILLER,30001,"Knee, knackered, knight, ketchup, kangaroo",0,1673,17121,0,0,,1
652fe805e19cd8c9d83c1456,9jkw9duey8,Ex2A_Prolific,1,161,2024-02-28T21:06:17+00:00,2.2132000923157,2,Stim_B.csv,Read.csv,Read,B,,,,,,0,Instruct,User,-,"You have completed this section. Please click next.",,Instruct166,1856,,,-1,-1,,,,1
652fe805e19cd8c9d83c1456,9jkw9duey8,Ex2A_Prolific,1,162,2024-02-28T21:06:22+00:00,4.8428559303284,2,Stim_B.csv,Read.csv,Read,B,,,,,,0,Instruct,User,4,"You will now complete a memory test for the words you just studied. Please type as many words from the previous list as you can seperated by a comma. Spelling will not count against you and you can recall the words in any order. This test will be timed for one minute, and the computer will automatically advance once time is up. Click next when you are ready to begin.",,Instruct1666,4487,,,-1,-1,,,,1
652fe805e19cd8c9d83c1456,9jkw9duey8,Ex2A_Prolific,1,163,2024-02-28T21:07:22+00:00,60.359178066254,2,Stim_B.csv,Read.csv,Read,B,,,,,,0,FreeRecall,60,60,"Please type as many words as you can from the previous study list in any order. Please separate each word with a comma. Spelling will not count against you. This screen will automatically advance in one minute.",,RECALL_Test,60001,"Boy, niece, pretty, doll, dress, sister",0,964,11849,0,0,,1
652fe805e19cd8c9d83c1456,9jkw9duey8,Ex2A_Prolific,1,164,2024-02-28T21:07:27+00:00,4.0389239788055,2,Stim_B.csv,Read.csv,Read,B,,,,,,0,Instruct,User,3,"You will now be presented with a new study list. Click next when you are ready to begin.",,NEXT_LIST,3691,,,-1,-1,,,,1
652fe805e19cd8c9d83c1456,9jkw9duey8,Ex2A_Prolific,1,165,2024-02-28T21:07:29+00:00,2.7500851154327,2,Stim_B.csv,Read.csv,Read,B,white,,SS1,,,110,Study,User,1.25,,Shirt,SS1,2394,,,-1,-1,,,,1
652fe805e19cd8c9d83c1456,9jkw9duey8,Ex2A_Prolific,1,166,2024-02-28T21:07:32+00:00,3.0368149280548,2,Stim_B.csv,Read.csv,Read,B,gray,,SS2,,,111,Study,User,1.25,,Shirt,SS2,2691,,,-1,-1,,,,1
652fe805e19cd8c9d83c1456,9jkw9duey8,Ex2A_Prolific,1,167,2024-02-28T21:07:34+00:00,2.1214399337769,2,Stim_B.csv,Read.csv,Read,B,brown,,SS3,,,112,Study,User,1.25,,Shirt,SS3,1758,,,-1,-1,,,,1
652fe805e19cd8c9d83c1456,9jkw9duey8,Ex2A_Prolific,1,168,2024-02-28T21:07:38+00:00,3.1848161220551,2,Stim_B.csv,Read.csv,Read,B,coal,,SS4,,,113,Study,User,1.25,,Shirt,SS4,2828,,,-1,-1,,,,1
652fe805e19cd8c9d83c1456,9jkw9duey8,Ex2A_Prolific,1,169,2024-02-28T21:07:42+00:00,4.1777930259705,2,Stim_B.csv,Read.csv,Read,B,dark,,SS5,,,114,Study,User,1.25,,Shirt,SS5,3831,,,-1,-1,,,,1
652fe805e19cd8c9d83c1456,9jkw9duey8,Ex2A_Prolific,1,170,2024-02-28T21:07:46+00:00,3.9819159507751,2,Stim_B.csv,Read.csv,Read,B,color,,SS6,,,115,Study,User,1.25,,Shirt,SS6,3641,,,-1,-1,,,,1
652fe805e19cd8c9d83c1456,9jkw9duey8,Ex2A_Prolific,1,171,2024-02-28T21:07:49+00:00,2.9570310115814,2,Stim_B.csv,Read.csv,Read,B,funeral,,SS7,,,116,Study,User,1.25,,Shirt,SS7,2614,,,-1,-1,,,,1
652fe805e19cd8c9d83c1456,9jkw9duey8,Ex2A_Prolific,1,172,2024-02-28T21:07:53+00:00,3.8090438842773,2,Stim_B.csv,Read.csv,Read,B,blue,,SS8,,,117,Study,User,1.25,,Shirt,SS8,3466,,,-1,-1,,,,1
652fe805e19cd8c9d83c1456,9jkw9duey8,Ex2A_Prolific,1,173,2024-02-28T21:07:55+00:00,2.5746381282806,2,Stim_B.csv,Read.csv,Read,B,charred,,SS9,,,118,Study,User,1.25,,Shirt,SS9,2222,,,-1,-1,,,,1
652fe805e19cd8c9d83c1456,9jkw9duey8,Ex2A_Prolific,1,174,2024-02-28T21:07:58+00:00,2.701278924942,2,Stim_B.csv,Read.csv,Read,B,ink,,SS10,,,119,Study,User,1.25,,Shirt,SS10,2355,,,-1,-1,,,,1
652fe805e19cd8c9d83c1456,9jkw9duey8,Ex2A_Prolific,1,175,2024-02-28T21:08:00+00:00,2.459704875946,2,Stim_B.csv,Read.csv,Read,B,death,,SS11,,,120,Study,User,1.25,,Shirt,SS11,2112,,,-1,-1,,,,1
652fe805e19cd8c9d83c1456,9jkw9duey8,Ex2A_Prolific,1,176,2024-02-28T21:08:03+00:00,2.3925921916962,2,Stim_B.csv,Read.csv,Read,B,cat,,SS12,,,121,Study,User,1.25,,Shirt,SS12,2039,,,-1,-1,,,,1
652fe805e19cd8c9d83c1456,9jkw9duey8,Ex2A_Prolific,1,177,2024-02-28T21:08:08+00:00,5.156172990799,2,Stim_B.csv,Read.csv,Read,B,,,,,,0,Instruct,User,4,"You have completed this section. Please click next.",,Instruct166,4815,,,-1,-1,,,,1
652fe805e19cd8c9d83c1456,9jkw9duey8,Ex2A_Prolific,1,178,2024-02-28T21:08:38+00:00,30.362895011902,2,Stim_B.csv,Read.csv,Read,B,,,,,,0,FreeRecall,30,30,"Please type as many words as you can that begin with the letter ""K"". The computer will automatically advance to the next screen in 30 seconds.",,FILLER,30001,"Knee, knife, knock, knocking, ketchup, kangaroo, kindred, ",0,1246,25043,0,0,,1
652fe805e19cd8c9d83c1456,9jkw9duey8,Ex2A_Prolific,1,179,2024-02-28T21:08:43+00:00,4.9550719261169,2,Stim_B.csv,Read.csv,Read,B,,,,,,0,Instruct,User,4,"You have completed this section. Please click next.",,Instruct166,4601,,,-1,-1,,,,1
652fe805e19cd8c9d83c1456,9jkw9duey8,Ex2A_Prolific,1,180,2024-02-28T21:08:48+00:00,4.837837934494,2,Stim_B.csv,Read.csv,Read,B,,,,,,0,Instruct,User,4,"You will now complete a memory test for the words you just studied. Please type as many words from the previous list as you can seperated by a comma. Spelling will not count against you and you can recall the words in any order. This test will be timed for one minute, and the computer will automatically advance once time is up. Click next when you are ready to begin.",,Instruct1666,4495,,,-1,-1,,,,1
652fe805e19cd8c9d83c1456,9jkw9duey8,Ex2A_Prolific,1,181,2024-02-28T21:09:48+00:00,60.344056129456,2,Stim_B.csv,Read.csv,Read,B,,,,,,0,FreeRecall,60,60,"Please type as many words as you can from the previous study list in any order. Please separate each word with a comma. Spelling will not count against you. This screen will automatically advance in one minute.",,RECALL_Test,60000,"White, brown, grey, ink, charred, coal, cat, funeral, death, blue",0,1033,12938,0,0,,0.975
652fe805e19cd8c9d83c1456,9jkw9duey8,Ex2A_Prolific,1,182,2024-02-28T21:09:51+00:00,2.2427358627319,2,Stim_B.csv,Read.csv,Read,B,,,,,,0,Instruct,User,-,"You have completed this section. Please click next.",,Instruct7,1894,,,-1,-1,,,,1
652fe805e19cd8c9d83c1456,9jkw9duey8,Ex2A_Prolific,1,183,2024-02-28T21:09:55+00:00,4.2173521518707,2,Stim_B.csv,Read.csv,Read,B,,,,,,0,Instruct,User,-,"The following screen will ask you a few questions abour your experience today. You must complete these questions to receive credit.",,Instruct8,3881,,,-1,-1,,,,1
