Username,ID,ExperimentName,Session,Trial,Date,TimeDif,"Condition Number","Stimuli File","Order File","Condition Description","Condition Notes",Stimuli*Cue,Stimuli*Answer,Stimuli*Shuffle,"Stimuli*Stimuli Notes",Stimuli*Value,Procedure*Item,"Procedure*Trial Type","Procedure*Max Time","Procedure*Min Time",Procedure*Text,"Procedure*Procedure Notes",Procedure*Shuffle,Response*RT,Response*Response,Response*Accuracy,Response*RTfirst,Response*RTlast,Response*strictAcc,Response*lenientAcc,Response*focus,Response*Focus
657de4e312a15c00fa204959,3yxnr3rfze,Ex2A_Prolific,1,1,2024-02-28T01:18:00+00:00,11.844283103943,2,Stim_B.csv,Read.csv,Read,B,,,,,,0,Instruct,-,5,"In this section, you will be presented with a series of words. Please study each word carefully. Your memory will be tested! Click next when you are ready to begin.",Initial_Instruct,Instruct1,11506,,,-1,-1,,,,0.905
657de4e312a15c00fa204959,3yxnr3rfze,Ex2A_Prolific,1,2,2024-02-28T01:18:03+00:00,3.0408098697662,2,Stim_B.csv,Read.csv,Read,B,,,,,,0,Instruct,User,-,"You will now begin the study. Click next when you are ready to begin.",,Instruct16,2672,,,-1,-1,,,,1
657de4e312a15c00fa204959,3yxnr3rfze,Ex2A_Prolific,1,3,2024-02-28T01:18:06+00:00,2.7341179847717,2,Stim_B.csv,Read.csv,Read,B,aroma,,Win_1,,,2,Study,User,1.25,,Window,Win_1,2493,,,-1,-1,,,,1
657de4e312a15c00fa204959,3yxnr3rfze,Ex2A_Prolific,1,4,2024-02-28T01:18:08+00:00,2.3086969852448,2,Stim_B.csv,Read.csv,Read,B,scent,,Win_2,,,3,Study,User,1.25,,Window,Win_2,1972,,,-1,-1,,,,1
657de4e312a15c00fa204959,3yxnr3rfze,Ex2A_Prolific,1,5,2024-02-28T01:18:11+00:00,2.471174955368,2,Stim_B.csv,Read.csv,Read,B,whiff,,Win_3,,,4,Study,User,1.25,,Window,Win_3,2238,,,-1,-1,,,,1
657de4e312a15c00fa204959,3yxnr3rfze,Ex2A_Prolific,1,6,2024-02-28T01:18:13+00:00,2.5043339729309,2,Stim_B.csv,Read.csv,Read,B,stench,,Win_4,,,5,Study,User,1.25,,Window,Win_4,2179,,,-1,-1,,,,1
657de4e312a15c00fa204959,3yxnr3rfze,Ex2A_Prolific,1,7,2024-02-28T01:18:16+00:00,3.1551780700684,2,Stim_B.csv,Read.csv,Read,B,reek,,Win_5,,,6,Study,User,1.25,,Window,Win_5,2895,,,-1,-1,,,,1
657de4e312a15c00fa204959,3yxnr3rfze,Ex2A_Prolific,1,8,2024-02-28T01:18:18+00:00,2.1733150482178,2,Stim_B.csv,Read.csv,Read,B,sniff,,Win_6,,,7,Study,User,1.25,,Window,Win_6,1873,,,-1,-1,,,,1
657de4e312a15c00fa204959,3yxnr3rfze,Ex2A_Prolific,1,9,2024-02-28T01:18:20+00:00,1.9527809619904,2,Stim_B.csv,Read.csv,Read,B,perfume,,Win_7,,,8,Study,User,1.25,,Window,Win_7,1724,,,-1,-1,,,,1
657de4e312a15c00fa204959,3yxnr3rfze,Ex2A_Prolific,1,10,2024-02-28T01:18:23+00:00,2.1451950073242,2,Stim_B.csv,Read.csv,Read,B,fragrance,,Win_8,,,9,Study,User,1.25,,Window,Win_8,1835,,,-1,-1,,,,1
657de4e312a15c00fa204959,3yxnr3rfze,Ex2A_Prolific,1,11,2024-02-28T01:18:25+00:00,2.0013699531555,2,Stim_B.csv,Read.csv,Read,B,nose,,Win_9,,,10,Study,User,1.25,,Window,Win_9,1765,,,-1,-1,,,,1
657de4e312a15c00fa204959,3yxnr3rfze,Ex2A_Prolific,1,12,2024-02-28T01:18:26+00:00,1.9544100761414,2,Stim_B.csv,Read.csv,Read,B,rose,,Win_10,,,11,Study,User,1.25,,Window,Win_10,1733,,,-1,-1,,,,1
657de4e312a15c00fa204959,3yxnr3rfze,Ex2A_Prolific,1,13,2024-02-28T01:18:29+00:00,2.0707609653473,2,Stim_B.csv,Read.csv,Read,B,salts,,Win_11,,,12,Study,User,1.25,,Window,Win_11,1727,,,-1,-1,,,,1
657de4e312a15c00fa204959,3yxnr3rfze,Ex2A_Prolific,1,14,2024-02-28T01:18:31+00:00,2.0403800010681,2,Stim_B.csv,Read.csv,Read,B,breathe,,Win_12,,,13,Study,User,1.25,,Window,Win_12,1802,,,-1,-1,,,,1
657de4e312a15c00fa204959,3yxnr3rfze,Ex2A_Prolific,1,15,2024-02-28T01:18:36+00:00,5.472608089447,2,Stim_B.csv,Read.csv,Read,B,,,,,,0,Instruct,User,4,"You have completed this section. Please click next.",,Instruct166,5150,,,-1,-1,,,,1
657de4e312a15c00fa204959,3yxnr3rfze,Ex2A_Prolific,1,16,2024-02-28T01:19:06+00:00,30.353189945221,2,Stim_B.csv,Read.csv,Read,B,,,,,,0,FreeRecall,30,30,"Please type as many words as you can that begin with the letter ""K"". The computer will automatically advance to the next screen in 30 seconds.",,FILLER,30002,,0,1697,25687,0,0,,1
657de4e312a15c00fa204959,3yxnr3rfze,Ex2A_Prolific,1,17,2024-02-28T01:19:12+00:00,5.7355000972748,2,Stim_B.csv,Read.csv,Read,B,,,,,,0,Instruct,User,4,"You have completed this section. Please click next.",,Instruct166,5379,,,-1,-1,,,,1
657de4e312a15c00fa204959,3yxnr3rfze,Ex2A_Prolific,1,18,2024-02-28T01:19:20+00:00,7.8288948535919,2,Stim_B.csv,Read.csv,Read,B,,,,,,0,Instruct,User,4,"You will now complete a memory test for the words you just studied. Please type as many words from the previous list as you can seperated by a comma. Spelling will not count against you and you can recall the words in any order. This test will be timed for one minute, and the computer will automatically advance once time is up. Click next when you are ready to begin.",,Instruct1666,7453,,,-1,-1,,,,1
657de4e312a15c00fa204959,3yxnr3rfze,Ex2A_Prolific,1,19,2024-02-28T01:20:20+00:00,60.41645693779,2,Stim_B.csv,Read.csv,Read,B,,,,,,0,FreeRecall,60,60,"Please type as many words as you can from the previous study list in any order. Please separate each word with a comma. Spelling will not count against you. This screen will automatically advance in one minute.",,RECALL_Test,60002,"aroma, stench, perfume, whiff, fragrance, smell, ",0,1270,17471,0,0,,0.986
657de4e312a15c00fa204959,3yxnr3rfze,Ex2A_Prolific,1,20,2024-02-28T01:21:18+00:00,57.278833150864,2,Stim_B.csv,Read.csv,Read,B,,,,,,0,Instruct,User,3,"You will now be presented with a new study list. Click next when you are ready to begin.",,NEXT_LIST,56881,,,-1,-1,,,,1
657de4e312a15c00fa204959,3yxnr3rfze,Ex2A_Prolific,1,21,2024-02-28T01:21:20+00:00,2.737114906311,2,Stim_B.csv,Read.csv,Read,B,hard,,R1,,,14,Study,User,1.25,,Rough,R1,2429,,,-1,-1,,,,1
657de4e312a15c00fa204959,3yxnr3rfze,Ex2A_Prolific,1,22,2024-02-28T01:21:23+00:00,2.5472960472107,2,Stim_B.csv,Read.csv,Read,B,loud,,R2,,,15,Study,User,1.25,,Rough,R2,2170,,,-1,-1,,,,1
657de4e312a15c00fa204959,3yxnr3rfze,Ex2A_Prolific,1,23,2024-02-28T01:21:26+00:00,2.5728409290314,2,Stim_B.csv,Read.csv,Read,B,tender,,R3,,,16,Study,User,1.25,,Rough,R3,2287,,,-1,-1,,,,1
657de4e312a15c00fa204959,3yxnr3rfze,Ex2A_Prolific,1,24,2024-02-28T01:21:28+00:00,2.713917016983,2,Stim_B.csv,Read.csv,Read,B,fluffy,,R4,,,17,Study,User,1.25,,Rough,R4,2355,,,-1,-1,,,,1
657de4e312a15c00fa204959,3yxnr3rfze,Ex2A_Prolific,1,25,2024-02-28T01:21:30+00:00,2.0002200603485,2,Stim_B.csv,Read.csv,Read,B,pillow,,R5,,,18,Study,User,1.25,,Rough,R5,1745,,,-1,-1,,,,1
657de4e312a15c00fa204959,3yxnr3rfze,Ex2A_Prolific,1,26,2024-02-28T01:21:32+00:00,2.2142660617828,2,Stim_B.csv,Read.csv,Read,B,downy,,R6,,,19,Study,User,1.25,,Rough,R6,1831,,,-1,-1,,,,1
657de4e312a15c00fa204959,3yxnr3rfze,Ex2A_Prolific,1,27,2024-02-28T01:21:35+00:00,2.4505078792572,2,Stim_B.csv,Read.csv,Read,B,plush,,R7,,,20,Study,User,1.25,,Rough,R7,2152,,,-1,-1,,,,1
657de4e312a15c00fa204959,3yxnr3rfze,Ex2A_Prolific,1,28,2024-02-28T01:21:37+00:00,2.0164339542389,2,Stim_B.csv,Read.csv,Read,B,cotton,,R8,,,21,Study,User,1.25,,Rough,R8,1785,,,-1,-1,,,,1
657de4e312a15c00fa204959,3yxnr3rfze,Ex2A_Prolific,1,29,2024-02-28T01:21:39+00:00,2.2144291400909,2,Stim_B.csv,Read.csv,Read,B,skin,,R9,,,22,Study,User,1.25,,Rough,R9,1792,,,-1,-1,,,,1
657de4e312a15c00fa204959,3yxnr3rfze,Ex2A_Prolific,1,30,2024-02-28T01:21:41+00:00,2.2053458690643,2,Stim_B.csv,Read.csv,Read,B,fur,,R10,,,23,Study,User,1.25,,Rough,R10,1954,,,-1,-1,,,,1
657de4e312a15c00fa204959,3yxnr3rfze,Ex2A_Prolific,1,31,2024-02-28T01:21:44+00:00,2.6715230941772,2,Stim_B.csv,Read.csv,Read,B,touch,,R11,,,24,Study,User,1.25,,Rough,R11,2294,,,-1,-1,,,,1
657de4e312a15c00fa204959,3yxnr3rfze,Ex2A_Prolific,1,32,2024-02-28T01:21:46+00:00,2.3305540084839,2,Stim_B.csv,Read.csv,Read,B,furry,,R12,,,25,Study,User,1.25,,Rough,R12,2073,,,-1,-1,,,,1
657de4e312a15c00fa204959,3yxnr3rfze,Ex2A_Prolific,1,33,2024-02-28T01:21:51+00:00,4.837651014328,2,Stim_B.csv,Read.csv,Read,B,,,,,,0,Instruct,User,4,"You have completed this section. Please click next.",,Instruct166,4461,,,-1,-1,,,,1
657de4e312a15c00fa204959,3yxnr3rfze,Ex2A_Prolific,1,34,2024-02-28T01:22:22+00:00,30.681187868118,2,Stim_B.csv,Read.csv,Read,B,,,,,,0,FreeRecall,30,30,"Please type as many words as you can that begin with the letter ""K"". The computer will automatically advance to the next screen in 30 seconds.",,FILLER,30230,,0,-1,-1,0,0,,0.8
657de4e312a15c00fa204959,3yxnr3rfze,Ex2A_Prolific,1,35,2024-02-28T01:22:24+00:00,1.7438750267029,2,Stim_B.csv,Read.csv,Read,B,,,,,,0,Instruct,User,-,"You have completed this section. Please click next.",,Instruct166,1227,,,-1,-1,,,,1
657de4e312a15c00fa204959,3yxnr3rfze,Ex2A_Prolific,1,36,2024-02-28T01:22:29+00:00,5.1611881256104,2,Stim_B.csv,Read.csv,Read,B,,,,,,0,Instruct,User,4,"You will now complete a memory test for the words you just studied. Please type as many words from the previous list as you can seperated by a comma. Spelling will not count against you and you can recall the words in any order. This test will be timed for one minute, and the computer will automatically advance once time is up. Click next when you are ready to begin.",,Instruct1666,4568,,,-1,-1,,,,1
657de4e312a15c00fa204959,3yxnr3rfze,Ex2A_Prolific,1,37,2024-02-28T01:23:29+00:00,60.432512998581,2,Stim_B.csv,Read.csv,Read,B,,,,,,0,FreeRecall,60,60,"Please type as many words as you can from the previous study list in any order. Please separate each word with a comma. Spelling will not count against you. This screen will automatically advance in one minute.",,RECALL_Test,60013,"hard, soft, furry, touch, fluffy.",0,716,18959,0,0,,0.882
657de4e312a15c00fa204959,3yxnr3rfze,Ex2A_Prolific,1,38,2024-02-28T01:23:40+00:00,10.805486917496,2,Stim_B.csv,Read.csv,Read,B,,,,,,0,Instruct,User,3,"You will now be presented with a new study list. Click next when you are ready to begin.",,NEXT_LIST,10380,,,-1,-1,,,,0.389
657de4e312a15c00fa204959,3yxnr3rfze,Ex2A_Prolific,1,39,2024-02-28T01:23:43+00:00,2.6095099449158,2,Stim_B.csv,Read.csv,Read,B,honey,,A1,,,26,Study,User,1.25,,Anger,A1,2216,,,-1,-1,,,,1
657de4e312a15c00fa204959,3yxnr3rfze,Ex2A_Prolific,1,40,2024-02-28T01:23:45+00:00,2.3909451961517,2,Stim_B.csv,Read.csv,Read,B,bitter,,A2,,,27,Study,User,1.25,,Anger,A2,2118,,,-1,-1,,,,1
657de4e312a15c00fa204959,3yxnr3rfze,Ex2A_Prolific,1,41,2024-02-28T01:23:47+00:00,2.2197790145874,2,Stim_B.csv,Read.csv,Read,B,sugar,,A3,,,28,Study,User,1.25,,Anger,A3,1966,,,-1,-1,,,,1
657de4e312a15c00fa204959,3yxnr3rfze,Ex2A_Prolific,1,42,2024-02-28T01:23:49+00:00,1.8763189315796,2,Stim_B.csv,Read.csv,Read,B,sour,,A4,,,29,Study,User,1.25,,Anger,A4,1627,,,-1,-1,,,,1
657de4e312a15c00fa204959,3yxnr3rfze,Ex2A_Prolific,1,43,2024-02-28T01:23:51+00:00,2.3641450405121,2,Stim_B.csv,Read.csv,Read,B,candy,,A5,,,30,Study,User,1.25,,Anger,A5,2096,,,-1,-1,,,,1
657de4e312a15c00fa204959,3yxnr3rfze,Ex2A_Prolific,1,44,2024-02-28T01:23:54+00:00,2.127228975296,2,Stim_B.csv,Read.csv,Read,B,tart,,A6,,,31,Study,User,1.25,,Anger,A6,1750,,,-1,-1,,,,1
657de4e312a15c00fa204959,3yxnr3rfze,Ex2A_Prolific,1,45,2024-02-28T01:23:56+00:00,2.0240228176117,2,Stim_B.csv,Read.csv,Read,B,chocolate,,A7,,,32,Study,User,1.25,,Anger,A7,1749,,,-1,-1,,,,1
657de4e312a15c00fa204959,3yxnr3rfze,Ex2A_Prolific,1,46,2024-02-28T01:23:59+00:00,2.9884650707245,2,Stim_B.csv,Read.csv,Read,B,nice,,A8,,,33,Study,User,1.25,,Anger,A8,2584,,,-1,-1,,,,1
657de4e312a15c00fa204959,3yxnr3rfze,Ex2A_Prolific,1,47,2024-02-28T01:24:01+00:00,2.1346831321716,2,Stim_B.csv,Read.csv,Read,B,taste,,A9,,,34,Study,User,1.25,,Anger,A9,1872,,,-1,-1,,,,1
657de4e312a15c00fa204959,3yxnr3rfze,Ex2A_Prolific,1,48,2024-02-28T01:24:03+00:00,2.1156659126282,2,Stim_B.csv,Read.csv,Read,B,cake,,A10,,,35,Study,User,1.25,,Anger,A10,1730,,,-1,-1,,,,1
657de4e312a15c00fa204959,3yxnr3rfze,Ex2A_Prolific,1,49,2024-02-28T01:24:05+00:00,2.1487901210785,2,Stim_B.csv,Read.csv,Read,B,good,,A11,,,36,Study,User,1.25,,Anger,A11,1909,,,-1,-1,,,,1
657de4e312a15c00fa204959,3yxnr3rfze,Ex2A_Prolific,1,50,2024-02-28T01:24:08+00:00,2.8456377983093,2,Stim_B.csv,Read.csv,Read,B,tooth,,A12,,,37,Study,User,1.25,,Anger,A12,2453,,,-1,-1,,,,1
657de4e312a15c00fa204959,3yxnr3rfze,Ex2A_Prolific,1,51,2024-02-28T01:24:09+00:00,1.5103981494904,2,Stim_B.csv,Read.csv,Read,B,,,,,,0,Instruct,User,-,"You have completed this section. Please click next.",,Instruct166,1107,,,-1,-1,,,,1
657de4e312a15c00fa204959,3yxnr3rfze,Ex2A_Prolific,1,52,2024-02-28T01:24:40+00:00,30.389437913895,2,Stim_B.csv,Read.csv,Read,B,,,,,,0,FreeRecall,30,30,"Please type as many words as you can that begin with the letter ""K"". The computer will automatically advance to the next screen in 30 seconds.",,FILLER,30002,,0,3169,9285,0,0,,1
657de4e312a15c00fa204959,3yxnr3rfze,Ex2A_Prolific,1,53,2024-02-28T01:24:41+00:00,1.466206073761,2,Stim_B.csv,Read.csv,Read,B,,,,,,0,Instruct,User,-,"You have completed this section. Please click next.",,Instruct166,1210,,,-1,-1,,,,1
657de4e312a15c00fa204959,3yxnr3rfze,Ex2A_Prolific,1,54,2024-02-28T01:24:47+00:00,6.0281498432159,2,Stim_B.csv,Read.csv,Read,B,,,,,,0,Instruct,User,4,"You will now complete a memory test for the words you just studied. Please type as many words from the previous list as you can seperated by a comma. Spelling will not count against you and you can recall the words in any order. This test will be timed for one minute, and the computer will automatically advance once time is up. Click next when you are ready to begin.",,Instruct1666,5664,,,-1,-1,,,,1
657de4e312a15c00fa204959,3yxnr3rfze,Ex2A_Prolific,1,55,2024-02-28T01:25:48+00:00,60.59348320961,2,Stim_B.csv,Read.csv,Read,B,,,,,,0,FreeRecall,60,60,"Please type as many words as you can from the previous study list in any order. Please separate each word with a comma. Spelling will not count against you. This screen will automatically advance in one minute.",,RECALL_Test,60004,"honey, sugar, sour, bitter, chocolate, candy, nice",0,1820,8655,0,0,,0.972
657de4e312a15c00fa204959,3yxnr3rfze,Ex2A_Prolific,1,56,2024-02-28T01:25:52+00:00,4.053811788559,2,Stim_B.csv,Read.csv,Read,B,,,,,,0,Instruct,User,3,"You will now be presented with a new study list. Click next when you are ready to begin.",,NEXT_LIST,3464,,,-1,-1,,,,1
657de4e312a15c00fa204959,3yxnr3rfze,Ex2A_Prolific,1,57,2024-02-28T01:25:55+00:00,3.5963821411133,2,Stim_B.csv,Read.csv,Read,B,table,,T1,,,38,Study,User,1.25,,Trash,T1,3201,,,-1,-1,,,,1
657de4e312a15c00fa204959,3yxnr3rfze,Ex2A_Prolific,1,58,2024-02-28T01:25:59+00:00,3.6306200027466,2,Stim_B.csv,Read.csv,Read,B,swivel,,T2,,,39,Study,User,1.25,,Trash,T2,3239,,,-1,-1,,,,1
657de4e312a15c00fa204959,3yxnr3rfze,Ex2A_Prolific,1,59,2024-02-28T01:26:02+00:00,2.5902268886566,2,Stim_B.csv,Read.csv,Read,B,rocking,,T3,,,40,Study,User,1.25,,Trash,T3,2336,,,-1,-1,,,,1
657de4e312a15c00fa204959,3yxnr3rfze,Ex2A_Prolific,1,60,2024-02-28T01:26:05+00:00,3.620884180069,2,Stim_B.csv,Read.csv,Read,B,recliner,,T4,,,41,Study,User,1.25,,Trash,T4,3258,,,-1,-1,,,,1
657de4e312a15c00fa204959,3yxnr3rfze,Ex2A_Prolific,1,61,2024-02-28T01:26:34+00:00,28.591523885727,2,Stim_B.csv,Read.csv,Read,B,seat,,T5,,,42,Study,User,1.25,,Trash,T5,28263,,,-1,-1,,,,0.395
657de4e312a15c00fa204959,3yxnr3rfze,Ex2A_Prolific,1,62,2024-02-28T01:26:52+00:00,18.497622966766,2,Stim_B.csv,Read.csv,Read,B,stool,,T6,,,43,Study,User,1.25,,Trash,T6,18112,,,-1,-1,,,,0.714
657de4e312a15c00fa204959,3yxnr3rfze,Ex2A_Prolific,1,63,2024-02-28T01:26:55+00:00,2.197692155838,2,Stim_B.csv,Read.csv,Read,B,desk,,T7,,,44,Study,User,1.25,,Trash,T7,1824,,,-1,-1,,,,1
657de4e312a15c00fa204959,3yxnr3rfze,Ex2A_Prolific,1,64,2024-02-28T01:26:57+00:00,1.9569947719574,2,Stim_B.csv,Read.csv,Read,B,couch,,T8,,,45,Study,User,1.25,,Trash,T8,1694,,,-1,-1,,,,1
657de4e312a15c00fa204959,3yxnr3rfze,Ex2A_Prolific,1,65,2024-02-28T01:26:59+00:00,2.4867951869965,2,Stim_B.csv,Read.csv,Read,B,sit,,T9,,,46,Study,User,1.25,,Trash,T9,2155,,,-1,-1,,,,1
657de4e312a15c00fa204959,3yxnr3rfze,Ex2A_Prolific,1,66,2024-02-28T01:27:02+00:00,2.9427089691162,2,Stim_B.csv,Read.csv,Read,B,sofa,,T10,,,47,Study,User,1.25,,Trash,T10,2663,,,-1,-1,,,,1
657de4e312a15c00fa204959,3yxnr3rfze,Ex2A_Prolific,1,67,2024-02-28T01:27:10+00:00,7.5159559249878,2,Stim_B.csv,Read.csv,Read,B,bench,,T11,,,48,Study,User,1.25,,Trash,T11,7130,,,-1,-1,,,,1
657de4e312a15c00fa204959,3yxnr3rfze,Ex2A_Prolific,1,68,2024-02-28T01:27:12+00:00,2.9045069217682,2,Stim_B.csv,Read.csv,Read,B,sitting,,T12,,,49,Study,User,1.25,,Trash,T12,2646,,,-1,-1,,,,1
657de4e312a15c00fa204959,3yxnr3rfze,Ex2A_Prolific,1,69,2024-02-28T01:27:18+00:00,5.8388340473175,2,Stim_B.csv,Read.csv,Read,B,,,,,,0,Instruct,User,4,"You have completed this section. Please click next.",,Instruct166,5484,,,-1,-1,,,,1
657de4e312a15c00fa204959,3yxnr3rfze,Ex2A_Prolific,1,70,2024-02-28T01:27:49+00:00,30.386657953262,2,Stim_B.csv,Read.csv,Read,B,,,,,,0,FreeRecall,30,30,"Please type as many words as you can that begin with the letter ""K"". The computer will automatically advance to the next screen in 30 seconds.",,FILLER,30002,,0,-1,-1,0,0,,0.979
657de4e312a15c00fa204959,3yxnr3rfze,Ex2A_Prolific,1,71,2024-02-28T01:27:50+00:00,1.4493131637573,2,Stim_B.csv,Read.csv,Read,B,,,,,,0,Instruct,User,-,"You have completed this section. Please click next.",,Instruct166,1201,,,-1,-1,,,,1
657de4e312a15c00fa204959,3yxnr3rfze,Ex2A_Prolific,1,72,2024-02-28T01:27:56+00:00,6.1632208824158,2,Stim_B.csv,Read.csv,Read,B,,,,,,0,Instruct,User,4,"You will now complete a memory test for the words you just studied. Please type as many words from the previous list as you can seperated by a comma. Spelling will not count against you and you can recall the words in any order. This test will be timed for one minute, and the computer will automatically advance once time is up. Click next when you are ready to begin.",,Instruct1666,5837,,,-1,-1,,,,1
657de4e312a15c00fa204959,3yxnr3rfze,Ex2A_Prolific,1,73,2024-02-28T01:28:57+00:00,61.087195158005,2,Stim_B.csv,Read.csv,Read,B,,,,,,0,FreeRecall,60,60,"Please type as many words as you can from the previous study list in any order. Please separate each word with a comma. Spelling will not count against you. This screen will automatically advance in one minute.",,RECALL_Test,60635,"stool, table, couch, sofa, sit.",0,843,25824,0,0,,0.919
657de4e312a15c00fa204959,3yxnr3rfze,Ex2A_Prolific,1,74,2024-02-28T01:29:21+00:00,23.254532814026,2,Stim_B.csv,Read.csv,Read,B,,,,,,0,Instruct,User,3,"You will now be presented with a new study list. Click next when you are ready to begin.",,NEXT_LIST,22680,,,-1,-1,,,,0.2
657de4e312a15c00fa204959,3yxnr3rfze,Ex2A_Prolific,1,75,2024-02-28T01:29:24+00:00,3.2473611831665,2,Stim_B.csv,Read.csv,Read,B,climber,,D1,,,50,Study,User,1.25,,Doctor,D1,2734,,,-1,-1,,,,1
657de4e312a15c00fa204959,3yxnr3rfze,Ex2A_Prolific,1,76,2024-02-28T01:29:26+00:00,2.2903969287872,2,Stim_B.csv,Read.csv,Read,B,hill,,D2,,,51,Study,User,1.25,,Doctor,D2,1921,,,-1,-1,,,,1
657de4e312a15c00fa204959,3yxnr3rfze,Ex2A_Prolific,1,77,2024-02-28T01:29:28+00:00,2.0936739444733,2,Stim_B.csv,Read.csv,Read,B,climb,,D3,,,52,Study,User,1.25,,Doctor,D3,1855,,,-1,-1,,,,1
657de4e312a15c00fa204959,3yxnr3rfze,Ex2A_Prolific,1,78,2024-02-28T01:29:30+00:00,2.2425999641418,2,Stim_B.csv,Read.csv,Read,B,molehill,,D4,,,53,Study,User,1.25,,Doctor,D4,1844,,,-1,-1,,,,1
657de4e312a15c00fa204959,3yxnr3rfze,Ex2A_Prolific,1,79,2024-02-28T01:29:33+00:00,2.0740931034088,2,Stim_B.csv,Read.csv,Read,B,peak,,D5,,,54,Study,User,1.25,,Doctor,D5,1819,,,-1,-1,,,,1
657de4e312a15c00fa204959,3yxnr3rfze,Ex2A_Prolific,1,80,2024-02-28T01:29:35+00:00,2.0369589328766,2,Stim_B.csv,Read.csv,Read,B,valley,,D6,,,55,Study,User,1.25,,Doctor,D6,1670,,,-1,-1,,,,1
657de4e312a15c00fa204959,3yxnr3rfze,Ex2A_Prolific,1,81,2024-02-28T01:29:37+00:00,2.5199999809265,2,Stim_B.csv,Read.csv,Read,B,summit,,D7,,,56,Study,User,1.25,,Doctor,D7,2271,,,-1,-1,,,,1
657de4e312a15c00fa204959,3yxnr3rfze,Ex2A_Prolific,1,82,2024-02-28T01:29:40+00:00,2.6988019943237,2,Stim_B.csv,Read.csv,Read,B,steep,,D8,,,57,Study,User,1.25,,Doctor,D8,2355,,,-1,-1,,,,1
657de4e312a15c00fa204959,3yxnr3rfze,Ex2A_Prolific,1,83,2024-02-28T01:29:42+00:00,2.6457121372223,2,Stim_B.csv,Read.csv,Read,B,ski,,D9,,,58,Study,User,1.25,,Doctor,D9,2402,,,-1,-1,,,,1
657de4e312a15c00fa204959,3yxnr3rfze,Ex2A_Prolific,1,84,2024-02-28T01:29:45+00:00,2.9182059764862,2,Stim_B.csv,Read.csv,Read,B,bike,,D10,,,59,Study,User,1.25,,Doctor,D10,2584,,,-1,-1,,,,1
657de4e312a15c00fa204959,3yxnr3rfze,Ex2A_Prolific,1,85,2024-02-28T01:29:47+00:00,2.1115159988403,2,Stim_B.csv,Read.csv,Read,B,goat,,D11,,,60,Study,User,1.25,,Doctor,D11,1874,,,-1,-1,,,,1
657de4e312a15c00fa204959,3yxnr3rfze,Ex2A_Prolific,1,86,2024-02-28T01:29:49+00:00,2.0063018798828,2,Stim_B.csv,Read.csv,Read,B,glacier,,D12,,,61,Study,User,1.25,,Doctor,D12,1674,,,-1,-1,,,,1
657de4e312a15c00fa204959,3yxnr3rfze,Ex2A_Prolific,1,87,2024-02-28T01:29:55+00:00,5.0680260658264,2,Stim_B.csv,Read.csv,Read,B,,,,,,0,Instruct,User,4,"You have completed this section. Please click next.",,Instruct166,4543,,,-1,-1,,,,1
657de4e312a15c00fa204959,3yxnr3rfze,Ex2A_Prolific,1,88,2024-02-28T01:30:25+00:00,30.408653974533,2,Stim_B.csv,Read.csv,Read,B,,,,,,0,FreeRecall,30,30,"Please type as many words as you can that begin with the letter ""K"". The computer will automatically advance to the next screen in 30 seconds.",,FILLER,30003,,0,-1,-1,0,0,,0.759
657de4e312a15c00fa204959,3yxnr3rfze,Ex2A_Prolific,1,89,2024-02-28T01:30:30+00:00,5.1384859085083,2,Stim_B.csv,Read.csv,Read,B,,,,,,0,Instruct,User,4,"You have completed this section. Please click next.",,Instruct166,4757,,,-1,-1,,,,1
657de4e312a15c00fa204959,3yxnr3rfze,Ex2A_Prolific,1,90,2024-02-28T01:30:36+00:00,5.9283261299133,2,Stim_B.csv,Read.csv,Read,B,,,,,,0,Instruct,User,4,"You will now complete a memory test for the words you just studied. Please type as many words from the previous list as you can seperated by a comma. Spelling will not count against you and you can recall the words in any order. This test will be timed for one minute, and the computer will automatically advance once time is up. Click next when you are ready to begin.",,Instruct1666,5592,,,-1,-1,,,,0.958
657de4e312a15c00fa204959,3yxnr3rfze,Ex2A_Prolific,1,91,2024-02-28T01:31:37+00:00,61.155165910721,2,Stim_B.csv,Read.csv,Read,B,,,,,,0,FreeRecall,60,60,"Please type as many words as you can from the previous study list in any order. Please separate each word with a comma. Spelling will not count against you. This screen will automatically advance in one minute.",,RECALL_Test,60764,"climber, peak, hill, climb, mountain",0,-1,-1,0,0,,0.325
657de4e312a15c00fa204959,3yxnr3rfze,Ex2A_Prolific,1,92,2024-02-28T01:31:50+00:00,12.336652040482,2,Stim_B.csv,Read.csv,Read,B,,,,,,0,Instruct,User,3,"You will now be presented with a new study list. Click next when you are ready to begin.",,NEXT_LIST,11923,,,-1,-1,,,,0.333
657de4e312a15c00fa204959,3yxnr3rfze,Ex2A_Prolific,1,93,2024-02-28T01:31:54+00:00,4.7687830924988,2,Stim_B.csv,Read.csv,Read,B,band,,S1,,,62,Study,User,1.25,,Slow,S1,4408,,,-1,-1,,,,1
657de4e312a15c00fa204959,3yxnr3rfze,Ex2A_Prolific,1,94,2024-02-28T01:31:57+00:00,2.6383500099182,2,Stim_B.csv,Read.csv,Read,B,concert,,S2,,,63,Study,User,1.25,,Slow,S2,2372,,,-1,-1,,,,1
657de4e312a15c00fa204959,3yxnr3rfze,Ex2A_Prolific,1,95,2024-02-28T01:32:00+00:00,2.8049819469452,2,Stim_B.csv,Read.csv,Read,B,jazz,,S3,,,64,Study,User,1.25,,Slow,S3,2452,,,-1,-1,,,,1
657de4e312a15c00fa204959,3yxnr3rfze,Ex2A_Prolific,1,96,2024-02-28T01:32:10+00:00,10.067316055298,2,Stim_B.csv,Read.csv,Read,B,symphony,,S4,,,65,Study,User,1.25,,Slow,S4,9697,,,-1,-1,,,,0.526
657de4e312a15c00fa204959,3yxnr3rfze,Ex2A_Prolific,1,97,2024-02-28T01:32:21+00:00,10.984705924988,2,Stim_B.csv,Read.csv,Read,B,orchestra,,S5,,,66,Study,User,1.25,,Slow,S5,10614,,,-1,-1,,,,0.55
657de4e312a15c00fa204959,3yxnr3rfze,Ex2A_Prolific,1,98,2024-02-28T01:32:23+00:00,2.325443983078,2,Stim_B.csv,Read.csv,Read,B,rhythm,,S6,,,67,Study,User,1.25,,Slow,S6,1996,,,-1,-1,,,,1
657de4e312a15c00fa204959,3yxnr3rfze,Ex2A_Prolific,1,99,2024-02-28T01:32:35+00:00,11.387933969498,2,Stim_B.csv,Read.csv,Read,B,radio,,S7,,,68,Study,User,1.25,,Slow,S7,11000,,,-1,-1,,,,0.667
657de4e312a15c00fa204959,3yxnr3rfze,Ex2A_Prolific,1,100,2024-02-28T01:32:37+00:00,2.1847610473633,2,Stim_B.csv,Read.csv,Read,B,melody,,S8,,,69,Study,User,1.25,,Slow,S8,1898,,,-1,-1,,,,1
657de4e312a15c00fa204959,3yxnr3rfze,Ex2A_Prolific,1,101,2024-02-28T01:32:39+00:00,1.9924530982971,2,Stim_B.csv,Read.csv,Read,B,piano,,S9,,,70,Study,User,1.25,,Slow,S9,1653,,,-1,-1,,,,1
657de4e312a15c00fa204959,3yxnr3rfze,Ex2A_Prolific,1,102,2024-02-28T01:32:41+00:00,1.9088499546051,2,Stim_B.csv,Read.csv,Read,B,sound,,S10,,,71,Study,User,1.25,,Slow,S10,1653,,,-1,-1,,,,1
657de4e312a15c00fa204959,3yxnr3rfze,Ex2A_Prolific,1,103,2024-02-28T01:32:43+00:00,2.4265239238739,2,Stim_B.csv,Read.csv,Read,B,instrument,,S11,,,72,Study,User,1.25,,Slow,S11,2180,,,-1,-1,,,,1
657de4e312a15c00fa204959,3yxnr3rfze,Ex2A_Prolific,1,104,2024-02-28T01:32:45+00:00,1.9559271335602,2,Stim_B.csv,Read.csv,Read,B,note,,S12,,,73,Study,User,1.25,,Slow,S12,1622,,,-1,-1,,,,1
657de4e312a15c00fa204959,3yxnr3rfze,Ex2A_Prolific,1,105,2024-02-28T01:33:01+00:00,15.943465948105,2,Stim_B.csv,Read.csv,Read,B,,,,,,0,Instruct,User,-,"You have completed this section. Please click next.",,Instruct166,15621,,,-1,-1,,,,0.318
657de4e312a15c00fa204959,3yxnr3rfze,Ex2A_Prolific,1,106,2024-02-28T01:33:31+00:00,30.441549062729,2,Stim_B.csv,Read.csv,Read,B,,,,,,0,FreeRecall,30,30,"Please type as many words as you can that begin with the letter ""K"". The computer will automatically advance to the next screen in 30 seconds.",,FILLER,30002,,0,-1,-1,0,0,,0.854
657de4e312a15c00fa204959,3yxnr3rfze,Ex2A_Prolific,1,107,2024-02-28T01:33:38+00:00,6.5124127864838,2,Stim_B.csv,Read.csv,Read,B,,,,,,0,Instruct,User,4,"You have completed this section. Please click next.",,Instruct166,6163,,,-1,-1,,,,1
657de4e312a15c00fa204959,3yxnr3rfze,Ex2A_Prolific,1,108,2024-02-28T01:33:45+00:00,7.3048250675201,2,Stim_B.csv,Read.csv,Read,B,,,,,,0,Instruct,User,4,"You will now complete a memory test for the words you just studied. Please type as many words from the previous list as you can seperated by a comma. Spelling will not count against you and you can recall the words in any order. This test will be timed for one minute, and the computer will automatically advance once time is up. Click next when you are ready to begin.",,Instruct1666,6933,,,-1,-1,,,,1
657de4e312a15c00fa204959,3yxnr3rfze,Ex2A_Prolific,1,109,2024-02-28T01:34:46+00:00,60.429242134094,2,Stim_B.csv,Read.csv,Read,B,,,,,,0,FreeRecall,60,60,"Please type as many words as you can from the previous study list in any order. Please separate each word with a comma. Spelling will not count against you. This screen will automatically advance in one minute.",,RECALL_Test,60003,"radio, concert, jazz, orcestra, sound, piano, note",0,-1,-1,0,0,,1
657de4e312a15c00fa204959,3yxnr3rfze,Ex2A_Prolific,1,110,2024-02-28T01:34:55+00:00,9.0835609436035,2,Stim_B.csv,Read.csv,Read,B,,,,,,0,Instruct,User,3,"You will now be presented with a new study list. Click next when you are ready to begin.",,NEXT_LIST,8684,,,-1,-1,,,,1
657de4e312a15c00fa204959,3yxnr3rfze,Ex2A_Prolific,1,111,2024-02-28T01:34:59+00:00,4.5190780162811,2,Stim_B.csv,Read.csv,Read,B,foam,,RR1,,,74,Study,User,1.25,,River,RR1,4169,,,-1,-1,,,,1
657de4e312a15c00fa204959,3yxnr3rfze,Ex2A_Prolific,1,112,2024-02-28T01:35:09+00:00,9.4361488819122,2,Stim_B.csv,Read.csv,Read,B,latex,,RR2,,,75,Study,User,1.25,,River,RR2,9059,,,-1,-1,,,,1
657de4e312a15c00fa204959,3yxnr3rfze,Ex2A_Prolific,1,113,2024-02-28T01:35:20+00:00,11.43789100647,2,Stim_B.csv,Read.csv,Read,B,galoshes,,RR3,,,76,Study,User,1.25,,River,RR3,11079,,,-1,-1,,,,0.609
657de4e312a15c00fa204959,3yxnr3rfze,Ex2A_Prolific,1,114,2024-02-28T01:35:25+00:00,4.8190059661865,2,Stim_B.csv,Read.csv,Read,B,tire,,RR4,,,77,Study,User,1.25,,River,RR4,4383,,,-1,-1,,,,0.875
657de4e312a15c00fa204959,3yxnr3rfze,Ex2A_Prolific,1,115,2024-02-28T01:35:28+00:00,3.4097921848297,2,Stim_B.csv,Read.csv,Read,B,flexible,,RR5,,,78,Study,User,1.25,,River,RR5,3078,,,-1,-1,,,,1
657de4e312a15c00fa204959,3yxnr3rfze,Ex2A_Prolific,1,116,2024-02-28T01:35:44+00:00,15.516362905502,2,Stim_B.csv,Read.csv,Read,B,elastic,,RR6,,,79,Study,User,1.25,,River,RR6,15179,,,-1,-1,,,,0.48
657de4e312a15c00fa204959,3yxnr3rfze,Ex2A_Prolific,1,117,2024-02-28T01:35:51+00:00,7.3901700973511,2,Stim_B.csv,Read.csv,Read,B,gloves,,RR7,,,80,Study,User,1.25,,River,RR7,6950,,,-1,-1,,,,0.765
657de4e312a15c00fa204959,3yxnr3rfze,Ex2A_Prolific,1,118,2024-02-28T01:35:54+00:00,2.2922778129578,2,Stim_B.csv,Read.csv,Read,B,eraser,,RR8,,,81,Study,User,1.25,,River,RR8,1993,,,-1,-1,,,,1
657de4e312a15c00fa204959,3yxnr3rfze,Ex2A_Prolific,1,119,2024-02-28T01:35:58+00:00,4.9510869979858,2,Stim_B.csv,Read.csv,Read,B,bounce,,RR9,,,82,Study,User,1.25,,River,RR9,4661,,,-1,-1,,,,1
657de4e312a15c00fa204959,3yxnr3rfze,Ex2A_Prolific,1,120,2024-02-28T01:36:06+00:00,7.2517890930176,2,Stim_B.csv,Read.csv,Read,B,ball,,RR10,,,83,Study,User,1.25,,River,RR10,6837,,,-1,-1,,,,0.688
657de4e312a15c00fa204959,3yxnr3rfze,Ex2A_Prolific,1,121,2024-02-28T01:36:08+00:00,2.1852540969849,2,Stim_B.csv,Read.csv,Read,B,soles,,RR11,,,84,Study,User,1.25,,River,RR11,1925,,,-1,-1,,,,1
657de4e312a15c00fa204959,3yxnr3rfze,Ex2A_Prolific,1,122,2024-02-28T01:36:11+00:00,2.8398988246918,2,Stim_B.csv,Read.csv,Read,B,springy,,RR12,,,85,Study,User,1.25,,River,RR12,2450,,,-1,-1,,,,1
657de4e312a15c00fa204959,3yxnr3rfze,Ex2A_Prolific,1,123,2024-02-28T01:36:12+00:00,1.0711030960083,2,Stim_B.csv,Read.csv,Read,B,,,,,,0,Instruct,User,-,"You have completed this section. Please click next.",,Instruct166,823,,,-1,-1,,,,1
657de4e312a15c00fa204959,3yxnr3rfze,Ex2A_Prolific,1,124,2024-02-28T01:36:42+00:00,30.39709687233,2,Stim_B.csv,Read.csv,Read,B,,,,,,0,FreeRecall,30,30,"Please type as many words as you can that begin with the letter ""K"". The computer will automatically advance to the next screen in 30 seconds.",,FILLER,30001,,0,-1,-1,0,0,,1
657de4e312a15c00fa204959,3yxnr3rfze,Ex2A_Prolific,1,125,2024-02-28T01:36:53+00:00,10.609621047974,2,Stim_B.csv,Read.csv,Read,B,,,,,,0,Instruct,User,-,"You have completed this section. Please click next.",,Instruct166,10224,,,-1,-1,,,,1
657de4e312a15c00fa204959,3yxnr3rfze,Ex2A_Prolific,1,126,2024-02-28T01:37:08+00:00,15.53869509697,2,Stim_B.csv,Read.csv,Read,B,,,,,,0,Instruct,User,4,"You will now complete a memory test for the words you just studied. Please type as many words from the previous list as you can seperated by a comma. Spelling will not count against you and you can recall the words in any order. This test will be timed for one minute, and the computer will automatically advance once time is up. Click next when you are ready to begin.",,Instruct1666,15147,,,-1,-1,,,,1
657de4e312a15c00fa204959,3yxnr3rfze,Ex2A_Prolific,1,127,2024-02-28T01:38:09+00:00,60.355974912643,2,Stim_B.csv,Read.csv,Read,B,,,,,,0,FreeRecall,60,60,"Please type as many words as you can from the previous study list in any order. Please separate each word with a comma. Spelling will not count against you. This screen will automatically advance in one minute.",,RECALL_Test,60002,"foam, latex, elastic, gloves, ball, gloves",0,-1,-1,0,0,,0.986
657de4e312a15c00fa204959,3yxnr3rfze,Ex2A_Prolific,1,128,2024-02-28T01:38:14+00:00,5.6835720539093,2,Stim_B.csv,Read.csv,Read,B,,,,,,0,Instruct,User,3,"You will now be presented with a new study list. Click next when you are ready to begin.",,NEXT_LIST,5313,,,-1,-1,,,,1
657de4e312a15c00fa204959,3yxnr3rfze,Ex2A_Prolific,1,129,2024-02-28T01:38:17+00:00,2.4997799396515,2,Stim_B.csv,Read.csv,Read,B,toe,,B1,,,86,Study,User,1.25,,Bread,B1,2219,,,-1,-1,,,,1
657de4e312a15c00fa204959,3yxnr3rfze,Ex2A_Prolific,1,130,2024-02-28T01:38:20+00:00,2.7120230197906,2,Stim_B.csv,Read.csv,Read,B,inch,,B2,,,87,Study,User,1.25,,Bread,B2,2356,,,-1,-1,,,,1
657de4e312a15c00fa204959,3yxnr3rfze,Ex2A_Prolific,1,131,2024-02-28T01:38:22+00:00,2.1710529327393,2,Stim_B.csv,Read.csv,Read,B,ankle,,B3,,,88,Study,User,1.25,,Bread,B3,1911,,,-1,-1,,,,1
657de4e312a15c00fa204959,3yxnr3rfze,Ex2A_Prolific,1,132,2024-02-28T01:38:28+00:00,6.3145291805267,2,Stim_B.csv,Read.csv,Read,B,shoe,,B4,,,89,Study,User,1.25,,Bread,B4,5962,,,-1,-1,,,,1
657de4e312a15c00fa204959,3yxnr3rfze,Ex2A_Prolific,1,133,2024-02-28T01:38:39+00:00,10.694640874863,2,Stim_B.csv,Read.csv,Read,B,sandals,,B5,,,90,Study,User,1.25,,Bread,B5,10328,,,-1,-1,,,,0.6
657de4e312a15c00fa204959,3yxnr3rfze,Ex2A_Prolific,1,134,2024-02-28T01:38:43+00:00,4.6219611167908,2,Stim_B.csv,Read.csv,Read,B,sock,,B6,,,91,Study,User,1.25,,Bread,B6,4268,,,-1,-1,,,,0.667
657de4e312a15c00fa204959,3yxnr3rfze,Ex2A_Prolific,1,135,2024-02-28T01:38:48+00:00,4.7374548912048,2,Stim_B.csv,Read.csv,Read,B,hand,,B7,,,92,Study,User,1.25,,Bread,B7,4391,,,-1,-1,,,,1
657de4e312a15c00fa204959,3yxnr3rfze,Ex2A_Prolific,1,136,2024-02-28T01:38:50+00:00,2.2662420272827,2,Stim_B.csv,Read.csv,Read,B,boot,,B8,,,93,Study,User,1.25,,Bread,B8,1922,,,-1,-1,,,,1
657de4e312a15c00fa204959,3yxnr3rfze,Ex2A_Prolific,1,137,2024-02-28T01:38:58+00:00,7.1846220493317,2,Stim_B.csv,Read.csv,Read,B,yard,,B9,,,94,Study,User,1.25,,Bread,B9,6849,,,-1,-1,,,,0.706
657de4e312a15c00fa204959,3yxnr3rfze,Ex2A_Prolific,1,138,2024-02-28T01:39:01+00:00,3.1063859462738,2,Stim_B.csv,Read.csv,Read,B,kick,,B10,,,95,Study,User,1.25,,Bread,B10,2736,,,-1,-1,,,,1
657de4e312a15c00fa204959,3yxnr3rfze,Ex2A_Prolific,1,139,2024-02-28T01:39:04+00:00,3.4148859977722,2,Stim_B.csv,Read.csv,Read,B,knee,,B11,,,96,Study,User,1.25,,Bread,B11,3068,,,-1,-1,,,,1
657de4e312a15c00fa204959,3yxnr3rfze,Ex2A_Prolific,1,140,2024-02-28T01:39:07+00:00,3.0250079631805,2,Stim_B.csv,Read.csv,Read,B,walk,,B12,,,97,Study,User,1.25,,Bread,B12,2749,,,-1,-1,,,,1
657de4e312a15c00fa204959,3yxnr3rfze,Ex2A_Prolific,1,141,2024-02-28T01:39:11+00:00,3.4658041000366,2,Stim_B.csv,Read.csv,Read,B,,,,,,0,Instruct,User,-,"You have completed this section. Please click next.",,Instruct166,3083,,,-1,-1,,,,1
657de4e312a15c00fa204959,3yxnr3rfze,Ex2A_Prolific,1,142,2024-02-28T01:39:41+00:00,30.432744979858,2,Stim_B.csv,Read.csv,Read,B,,,,,,0,FreeRecall,30,30,"Please type as many words as you can that begin with the letter ""K"". The computer will automatically advance to the next screen in 30 seconds.",,FILLER,30003,,0,-1,-1,0,0,,0.625
657de4e312a15c00fa204959,3yxnr3rfze,Ex2A_Prolific,1,143,2024-02-28T01:39:49+00:00,8.1407470703125,2,Stim_B.csv,Read.csv,Read,B,,,,,,0,Instruct,User,4,"You have completed this section. Please click next.",,Instruct166,7406,,,-1,-1,,,,0.897
657de4e312a15c00fa204959,3yxnr3rfze,Ex2A_Prolific,1,144,2024-02-28T01:40:05+00:00,16.069129943848,2,Stim_B.csv,Read.csv,Read,B,,,,,,0,Instruct,User,4,"You will now complete a memory test for the words you just studied. Please type as many words from the previous list as you can seperated by a comma. Spelling will not count against you and you can recall the words in any order. This test will be timed for one minute, and the computer will automatically advance once time is up. Click next when you are ready to begin.",,Instruct1666,15442,,,-1,-1,,,,1
657de4e312a15c00fa204959,3yxnr3rfze,Ex2A_Prolific,1,145,2024-02-28T01:41:06+00:00,60.381003856659,2,Stim_B.csv,Read.csv,Read,B,,,,,,0,FreeRecall,60,60,"Please type as many words as you can from the previous study list in any order. Please separate each word with a comma. Spelling will not count against you. This screen will automatically advance in one minute.",,RECALL_Test,60007,"shoes, sandale, toe, sock, yard, boot,",0,5307,5307,0,0,,0.974
657de4e312a15c00fa204959,3yxnr3rfze,Ex2A_Prolific,1,146,2024-02-28T01:41:11+00:00,4.8937380313873,2,Stim_B.csv,Read.csv,Read,B,,,,,,0,Instruct,User,3,"You will now be presented with a new study list. Click next when you are ready to begin.",,NEXT_LIST,4454,,,-1,-1,,,,1
657de4e312a15c00fa204959,3yxnr3rfze,Ex2A_Prolific,1,147,2024-02-28T01:41:13+00:00,2.9489459991455,2,Stim_B.csv,Read.csv,Read,B,boy,,F1,,,98,Study,User,1.25,,Flag,F1,2708,,,-1,-1,,,,1
657de4e312a15c00fa204959,3yxnr3rfze,Ex2A_Prolific,1,148,2024-02-28T01:41:16+00:00,2.0366730690002,2,Stim_B.csv,Read.csv,Read,B,dolls,,F2,,,99,Study,User,1.25,,Flag,F2,1707,,,-1,-1,,,,1
657de4e312a15c00fa204959,3yxnr3rfze,Ex2A_Prolific,1,149,2024-02-28T01:41:18+00:00,2.0769629478455,2,Stim_B.csv,Read.csv,Read,B,pretty,,F3,,,100,Study,User,1.25,,Flag,F3,1843,,,-1,-1,,,,1
657de4e312a15c00fa204959,3yxnr3rfze,Ex2A_Prolific,1,150,2024-02-28T01:41:20+00:00,1.9868719577789,2,Stim_B.csv,Read.csv,Read,B,female,,F4,,,101,Study,User,1.25,,Flag,F4,1650,,,-1,-1,,,,1
657de4e312a15c00fa204959,3yxnr3rfze,Ex2A_Prolific,1,151,2024-02-28T01:41:21+00:00,1.8628041744232,2,Stim_B.csv,Read.csv,Read,B,dress,,F5,,,102,Study,User,1.25,,Flag,F5,1615,,,-1,-1,,,,1
657de4e312a15c00fa204959,3yxnr3rfze,Ex2A_Prolific,1,152,2024-02-28T01:41:23+00:00,1.607666015625,2,Stim_B.csv,Read.csv,Read,B,date,,F6,,,103,Study,User,1.25,,Flag,F6,1362,,,-1,-1,,,,1
657de4e312a15c00fa204959,3yxnr3rfze,Ex2A_Prolific,1,153,2024-02-28T01:41:25+00:00,1.7916150093079,2,Stim_B.csv,Read.csv,Read,B,beautiful,,F7,,,104,Study,User,1.25,,Flag,F7,1477,,,-1,-1,,,,1
657de4e312a15c00fa204959,3yxnr3rfze,Ex2A_Prolific,1,154,2024-02-28T01:41:27+00:00,1.6743178367615,2,Stim_B.csv,Read.csv,Read,B,daughter,,F8,,,105,Study,User,1.25,,Flag,F8,1425,,,-1,-1,,,,1
657de4e312a15c00fa204959,3yxnr3rfze,Ex2A_Prolific,1,155,2024-02-28T01:41:28+00:00,1.6045651435852,2,Stim_B.csv,Read.csv,Read,B,sister,,F9,,,106,Study,User,1.25,,Flag,F9,1372,,,-1,-1,,,,1
657de4e312a15c00fa204959,3yxnr3rfze,Ex2A_Prolific,1,156,2024-02-28T01:41:30+00:00,1.9223799705505,2,Stim_B.csv,Read.csv,Read,B,cute,,F10,,,107,Study,User,1.25,,Flag,F10,1592,,,-1,-1,,,,1
657de4e312a15c00fa204959,3yxnr3rfze,Ex2A_Prolific,1,157,2024-02-28T01:41:32+00:00,1.9467978477478,2,Stim_B.csv,Read.csv,Read,B,niece,,F11,,,108,Study,User,1.25,,Flag,F11,1702,,,-1,-1,,,,1
657de4e312a15c00fa204959,3yxnr3rfze,Ex2A_Prolific,1,158,2024-02-28T01:41:34+00:00,2.0671391487122,2,Stim_B.csv,Read.csv,Read,B,young,,F12,,,109,Study,User,1.25,,Flag,F12,1735,,,-1,-1,,,,1
657de4e312a15c00fa204959,3yxnr3rfze,Ex2A_Prolific,1,159,2024-02-28T01:41:39+00:00,5.1044569015503,2,Stim_B.csv,Read.csv,Read,B,,,,,,0,Instruct,User,4,"You have completed this section. Please click next.",,Instruct166,4754,,,-1,-1,,,,1
657de4e312a15c00fa204959,3yxnr3rfze,Ex2A_Prolific,1,160,2024-02-28T01:42:10+00:00,30.366136074066,2,Stim_B.csv,Read.csv,Read,B,,,,,,0,FreeRecall,30,30,"Please type as many words as you can that begin with the letter ""K"". The computer will automatically advance to the next screen in 30 seconds.",,FILLER,30002,,0,-1,-1,0,0,,0.924
657de4e312a15c00fa204959,3yxnr3rfze,Ex2A_Prolific,1,161,2024-02-28T01:42:15+00:00,5.2672479152679,2,Stim_B.csv,Read.csv,Read,B,,,,,,0,Instruct,User,-,"You have completed this section. Please click next.",,Instruct166,4899,,,-1,-1,,,,1
657de4e312a15c00fa204959,3yxnr3rfze,Ex2A_Prolific,1,162,2024-02-28T01:42:24+00:00,9.6953389644623,2,Stim_B.csv,Read.csv,Read,B,,,,,,0,Instruct,User,4,"You will now complete a memory test for the words you just studied. Please type as many words from the previous list as you can seperated by a comma. Spelling will not count against you and you can recall the words in any order. This test will be timed for one minute, and the computer will automatically advance once time is up. Click next when you are ready to begin.",,Instruct1666,9343,,,-1,-1,,,,1
657de4e312a15c00fa204959,3yxnr3rfze,Ex2A_Prolific,1,163,2024-02-28T01:43:25+00:00,60.380320072174,2,Stim_B.csv,Read.csv,Read,B,,,,,,0,FreeRecall,60,60,"Please type as many words as you can from the previous study list in any order. Please separate each word with a comma. Spelling will not count against you. This screen will automatically advance in one minute.",,RECALL_Test,60004,"pretty, date, niece, daughter, beautiful, boy, doll",0,1455,22481,0,0,,1
657de4e312a15c00fa204959,3yxnr3rfze,Ex2A_Prolific,1,164,2024-02-28T01:43:31+00:00,5.9472639560699,2,Stim_B.csv,Read.csv,Read,B,,,,,,0,Instruct,User,3,"You will now be presented with a new study list. Click next when you are ready to begin.",,NEXT_LIST,5539,,,-1,-1,,,,1
657de4e312a15c00fa204959,3yxnr3rfze,Ex2A_Prolific,1,165,2024-02-28T01:43:34+00:00,3.2137949466705,2,Stim_B.csv,Read.csv,Read,B,white,,SS1,,,110,Study,User,1.25,,Shirt,SS1,2867,,,-1,-1,,,,1
657de4e312a15c00fa204959,3yxnr3rfze,Ex2A_Prolific,1,166,2024-02-28T01:43:38+00:00,4.0268301963806,2,Stim_B.csv,Read.csv,Read,B,gray,,SS2,,,111,Study,User,1.25,,Shirt,SS2,3786,,,-1,-1,,,,1
657de4e312a15c00fa204959,3yxnr3rfze,Ex2A_Prolific,1,167,2024-02-28T01:43:41+00:00,2.9810960292816,2,Stim_B.csv,Read.csv,Read,B,brown,,SS3,,,112,Study,User,1.25,,Shirt,SS3,2646,,,-1,-1,,,,1
657de4e312a15c00fa204959,3yxnr3rfze,Ex2A_Prolific,1,168,2024-02-28T01:43:44+00:00,2.6728188991547,2,Stim_B.csv,Read.csv,Read,B,coal,,SS4,,,113,Study,User,1.25,,Shirt,SS4,2421,,,-1,-1,,,,1
657de4e312a15c00fa204959,3yxnr3rfze,Ex2A_Prolific,1,169,2024-02-28T01:43:47+00:00,2.8714289665222,2,Stim_B.csv,Read.csv,Read,B,dark,,SS5,,,114,Study,User,1.25,,Shirt,SS5,2626,,,-1,-1,,,,1
657de4e312a15c00fa204959,3yxnr3rfze,Ex2A_Prolific,1,170,2024-02-28T01:43:50+00:00,3.1211850643158,2,Stim_B.csv,Read.csv,Read,B,color,,SS6,,,115,Study,User,1.25,,Shirt,SS6,2776,,,-1,-1,,,,1
657de4e312a15c00fa204959,3yxnr3rfze,Ex2A_Prolific,1,171,2024-02-28T01:43:52+00:00,2.4939849376678,2,Stim_B.csv,Read.csv,Read,B,funeral,,SS7,,,116,Study,User,1.25,,Shirt,SS7,2246,,,-1,-1,,,,1
657de4e312a15c00fa204959,3yxnr3rfze,Ex2A_Prolific,1,172,2024-02-28T01:43:56+00:00,3.4758589267731,2,Stim_B.csv,Read.csv,Read,B,blue,,SS8,,,117,Study,User,1.25,,Shirt,SS8,3147,,,-1,-1,,,,1
657de4e312a15c00fa204959,3yxnr3rfze,Ex2A_Prolific,1,173,2024-02-28T01:44:01+00:00,5.6295650005341,2,Stim_B.csv,Read.csv,Read,B,charred,,SS9,,,118,Study,User,1.25,,Shirt,SS9,5317,,,-1,-1,,,,0.813
657de4e312a15c00fa204959,3yxnr3rfze,Ex2A_Prolific,1,174,2024-02-28T01:44:04+00:00,2.9107480049133,2,Stim_B.csv,Read.csv,Read,B,ink,,SS10,,,119,Study,User,1.25,,Shirt,SS10,2527,,,-1,-1,,,,1
657de4e312a15c00fa204959,3yxnr3rfze,Ex2A_Prolific,1,175,2024-02-28T01:44:06+00:00,1.9978921413422,2,Stim_B.csv,Read.csv,Read,B,death,,SS11,,,120,Study,User,1.25,,Shirt,SS11,1772,,,-1,-1,,,,1
657de4e312a15c00fa204959,3yxnr3rfze,Ex2A_Prolific,1,176,2024-02-28T01:44:08+00:00,1.8689098358154,2,Stim_B.csv,Read.csv,Read,B,cat,,SS12,,,121,Study,User,1.25,,Shirt,SS12,1617,,,-1,-1,,,,1
657de4e312a15c00fa204959,3yxnr3rfze,Ex2A_Prolific,1,177,2024-02-28T01:44:09+00:00,1.1737310886383,2,Stim_B.csv,Read.csv,Read,B,,,,,,0,Instruct,User,-,"You have completed this section. Please click next.",,Instruct166,849,,,-1,-1,,,,1
657de4e312a15c00fa204959,3yxnr3rfze,Ex2A_Prolific,1,178,2024-02-28T01:44:40+00:00,30.903633117676,2,Stim_B.csv,Read.csv,Read,B,,,,,,0,FreeRecall,30,30,"Please type as many words as you can that begin with the letter ""K"". The computer will automatically advance to the next screen in 30 seconds.",,FILLER,30586,,0,-1,-1,0,0,,0.887
657de4e312a15c00fa204959,3yxnr3rfze,Ex2A_Prolific,1,179,2024-02-28T01:44:51+00:00,11.265553951263,2,Stim_B.csv,Read.csv,Read,B,,,,,,0,Instruct,User,4,"You have completed this section. Please click next.",,Instruct166,10873,,,-1,-1,,,,0.353
657de4e312a15c00fa204959,3yxnr3rfze,Ex2A_Prolific,1,180,2024-02-28T01:44:57+00:00,5.5065648555756,2,Stim_B.csv,Read.csv,Read,B,,,,,,0,Instruct,User,4,"You will now complete a memory test for the words you just studied. Please type as many words from the previous list as you can seperated by a comma. Spelling will not count against you and you can recall the words in any order. This test will be timed for one minute, and the computer will automatically advance once time is up. Click next when you are ready to begin.",,Instruct1666,5064,,,-1,-1,,,,1
657de4e312a15c00fa204959,3yxnr3rfze,Ex2A_Prolific,1,181,2024-02-28T01:45:58+00:00,61.240542173386,2,Stim_B.csv,Read.csv,Read,B,,,,,,0,FreeRecall,60,60,"Please type as many words as you can from the previous study list in any order. Please separate each word with a comma. Spelling will not count against you. This screen will automatically advance in one minute.",,RECALL_Test,60864,"colour, brown, black, funeral, grey, blue, dark",0,685,15077,0,0,,0.735
657de4e312a15c00fa204959,3yxnr3rfze,Ex2A_Prolific,1,182,2024-02-28T01:46:04+00:00,5.7224278450012,2,Stim_B.csv,Read.csv,Read,B,,,,,,0,Instruct,User,-,"You have completed this section. Please click next.",,Instruct7,5239,,,-1,-1,,,,0.615
657de4e312a15c00fa204959,3yxnr3rfze,Ex2A_Prolific,1,183,2024-02-28T01:46:06+00:00,2.4178731441498,2,Stim_B.csv,Read.csv,Read,B,,,,,,0,Instruct,User,-,"The following screen will ask you a few questions abour your experience today. You must complete these questions to receive credit.",,Instruct8,2123,,,-1,-1,,,,1
