Username,ID,ExperimentName,Session,Trial,Date,TimeDif,"Condition Number","Stimuli File","Order File","Condition Description","Condition Notes",Stimuli*Cue,Stimuli*Answer,Stimuli*Shuffle,"Stimuli*Stimuli Notes",Stimuli*Value,Procedure*Item,"Procedure*Trial Type","Procedure*Max Time","Procedure*Min Time",Procedure*Text,"Procedure*Procedure Notes",Procedure*Shuffle,Response*RT,Response*Response,Response*Accuracy,Response*RTfirst,Response*RTlast,Response*strictAcc,Response*lenientAcc,Response*focus,Response*Focus
65c072fe454cef4b9b1ab25f,0vo0co7jwd,Ex2A_Prolific,1,1,2024-02-27T23:27:11+00:00,10.933063030243,2,Stim_B.csv,Read.csv,Read,B,,,,,,0,Instruct,-,5,"In this section, you will be presented with a series of words. Please study each word carefully. Your memory will be tested! Click next when you are ready to begin.",Initial_Instruct,Instruct1,10749,,,-1,-1,,,,0.646
65c072fe454cef4b9b1ab25f,0vo0co7jwd,Ex2A_Prolific,1,2,2024-02-27T23:27:13+00:00,2.1714251041412,2,Stim_B.csv,Read.csv,Read,B,,,,,,0,Instruct,User,-,"You will now begin the study. Click next when you are ready to begin.",,Instruct16,1982,,,-1,-1,,,,1
65c072fe454cef4b9b1ab25f,0vo0co7jwd,Ex2A_Prolific,1,3,2024-02-27T23:27:15+00:00,2.7109229564667,2,Stim_B.csv,Read.csv,Read,B,aroma,,Win_1,,,2,Study,User,1.25,,Window,Win_1,2514,,,-1,-1,,,,1
65c072fe454cef4b9b1ab25f,0vo0co7jwd,Ex2A_Prolific,1,4,2024-02-27T23:27:17+00:00,1.9070949554443,2,Stim_B.csv,Read.csv,Read,B,scent,,Win_2,,,3,Study,User,1.25,,Window,Win_2,1732,,,-1,-1,,,,1
65c072fe454cef4b9b1ab25f,0vo0co7jwd,Ex2A_Prolific,1,5,2024-02-27T23:27:20+00:00,2.5002000331879,2,Stim_B.csv,Read.csv,Read,B,whiff,,Win_3,,,4,Study,User,1.25,,Window,Win_3,2309,,,-1,-1,,,,1
65c072fe454cef4b9b1ab25f,0vo0co7jwd,Ex2A_Prolific,1,6,2024-02-27T23:27:22+00:00,1.8388340473175,2,Stim_B.csv,Read.csv,Read,B,stench,,Win_4,,,5,Study,User,1.25,,Window,Win_4,1658,,,-1,-1,,,,1
65c072fe454cef4b9b1ab25f,0vo0co7jwd,Ex2A_Prolific,1,7,2024-02-27T23:27:23+00:00,1.7589688301086,2,Stim_B.csv,Read.csv,Read,B,reek,,Win_5,,,6,Study,User,1.25,,Window,Win_5,1590,,,-1,-1,,,,1
65c072fe454cef4b9b1ab25f,0vo0co7jwd,Ex2A_Prolific,1,8,2024-02-27T23:27:25+00:00,1.7151479721069,2,Stim_B.csv,Read.csv,Read,B,sniff,,Win_6,,,7,Study,User,1.25,,Window,Win_6,1551,,,-1,-1,,,,1
65c072fe454cef4b9b1ab25f,0vo0co7jwd,Ex2A_Prolific,1,9,2024-02-27T23:27:27+00:00,1.6890051364899,2,Stim_B.csv,Read.csv,Read,B,perfume,,Win_7,,,8,Study,User,1.25,,Window,Win_7,1512,,,-1,-1,,,,1
65c072fe454cef4b9b1ab25f,0vo0co7jwd,Ex2A_Prolific,1,10,2024-02-27T23:27:29+00:00,1.7866549491882,2,Stim_B.csv,Read.csv,Read,B,fragrance,,Win_8,,,9,Study,User,1.25,,Window,Win_8,1603,,,-1,-1,,,,1
65c072fe454cef4b9b1ab25f,0vo0co7jwd,Ex2A_Prolific,1,11,2024-02-27T23:27:30+00:00,1.4881489276886,2,Stim_B.csv,Read.csv,Read,B,nose,,Win_9,,,10,Study,User,1.25,,Window,Win_9,1312,,,-1,-1,,,,1
65c072fe454cef4b9b1ab25f,0vo0co7jwd,Ex2A_Prolific,1,12,2024-02-27T23:27:32+00:00,2.177041053772,2,Stim_B.csv,Read.csv,Read,B,rose,,Win_10,,,11,Study,User,1.25,,Window,Win_10,1996,,,-1,-1,,,,1
65c072fe454cef4b9b1ab25f,0vo0co7jwd,Ex2A_Prolific,1,13,2024-02-27T23:27:34+00:00,1.7874691486359,2,Stim_B.csv,Read.csv,Read,B,salts,,Win_11,,,12,Study,User,1.25,,Window,Win_11,1599,,,-1,-1,,,,1
65c072fe454cef4b9b1ab25f,0vo0co7jwd,Ex2A_Prolific,1,14,2024-02-27T23:27:36+00:00,1.8418619632721,2,Stim_B.csv,Read.csv,Read,B,breathe,,Win_12,,,13,Study,User,1.25,,Window,Win_12,1678,,,-1,-1,,,,0.667
65c072fe454cef4b9b1ab25f,0vo0co7jwd,Ex2A_Prolific,1,15,2024-02-27T23:27:41+00:00,4.6184279918671,2,Stim_B.csv,Read.csv,Read,B,,,,,,0,Instruct,User,4,"You have completed this section. Please click next.",,Instruct166,4438,,,-1,-1,,,,1
65c072fe454cef4b9b1ab25f,0vo0co7jwd,Ex2A_Prolific,1,16,2024-02-27T23:28:11+00:00,30.275154829025,2,Stim_B.csv,Read.csv,Read,B,,,,,,0,FreeRecall,30,30,"Please type as many words as you can that begin with the letter ""K"". The computer will automatically advance to the next screen in 30 seconds.",,FILLER,30015,"Kitten ",0,16539,18957,0,0,,1
65c072fe454cef4b9b1ab25f,0vo0co7jwd,Ex2A_Prolific,1,17,2024-02-27T23:28:13+00:00,1.9307510852814,2,Stim_B.csv,Read.csv,Read,B,,,,,,0,Instruct,User,-,"You have completed this section. Please click next.",,Instruct166,1735,,,257,452,,,,1
65c072fe454cef4b9b1ab25f,0vo0co7jwd,Ex2A_Prolific,1,18,2024-02-27T23:28:22+00:00,8.9757671356201,2,Stim_B.csv,Read.csv,Read,B,,,,,,0,Instruct,User,4,"You will now complete a memory test for the words you just studied. Please type as many words from the previous list as you can seperated by a comma. Spelling will not count against you and you can recall the words in any order. This test will be timed for one minute, and the computer will automatically advance once time is up. Click next when you are ready to begin.",,Instruct1666,8734,,,-1,-1,,,,1
65c072fe454cef4b9b1ab25f,0vo0co7jwd,Ex2A_Prolific,1,19,2024-02-27T23:29:23+00:00,61.194758892059,2,Stim_B.csv,Read.csv,Read,B,,,,,,0,FreeRecall,60,60,"Please type as many words as you can from the previous study list in any order. Please separate each word with a comma. Spelling will not count against you. This screen will automatically advance in one minute.",,RECALL_Test,60944,"breathe,scent,nose,aroma,sniff,reek",0,3187,20111,0,0,,0.697
65c072fe454cef4b9b1ab25f,0vo0co7jwd,Ex2A_Prolific,1,20,2024-02-27T23:29:31+00:00,7.8992259502411,2,Stim_B.csv,Read.csv,Read,B,,,,,,0,Instruct,User,3,"You will now be presented with a new study list. Click next when you are ready to begin.",,NEXT_LIST,7628,,,-1,-1,,,,0.714
65c072fe454cef4b9b1ab25f,0vo0co7jwd,Ex2A_Prolific,1,21,2024-02-27T23:29:35+00:00,3.8563361167908,2,Stim_B.csv,Read.csv,Read,B,hard,,R1,,,14,Study,User,1.25,,Rough,R1,3661,,,-1,-1,,,,0.737
65c072fe454cef4b9b1ab25f,0vo0co7jwd,Ex2A_Prolific,1,22,2024-02-27T23:29:37+00:00,2.2414858341217,2,Stim_B.csv,Read.csv,Read,B,loud,,R2,,,15,Study,User,1.25,,Rough,R2,2053,,,-1,-1,,,,1
65c072fe454cef4b9b1ab25f,0vo0co7jwd,Ex2A_Prolific,1,23,2024-02-27T23:29:39+00:00,2.5167620182037,2,Stim_B.csv,Read.csv,Read,B,tender,,R3,,,16,Study,User,1.25,,Rough,R3,2284,,,-1,-1,,,,0.667
65c072fe454cef4b9b1ab25f,0vo0co7jwd,Ex2A_Prolific,1,24,2024-02-27T23:29:42+00:00,2.1863269805908,2,Stim_B.csv,Read.csv,Read,B,fluffy,,R4,,,17,Study,User,1.25,,Rough,R4,2000,,,-1,-1,,,,0.5
65c072fe454cef4b9b1ab25f,0vo0co7jwd,Ex2A_Prolific,1,25,2024-02-27T23:29:44+00:00,2.4723501205444,2,Stim_B.csv,Read.csv,Read,B,pillow,,R5,,,18,Study,User,1.25,,Rough,R5,2286,,,-1,-1,,,,0.667
65c072fe454cef4b9b1ab25f,0vo0co7jwd,Ex2A_Prolific,1,26,2024-02-27T23:29:47+00:00,2.7899179458618,2,Stim_B.csv,Read.csv,Read,B,downy,,R6,,,19,Study,User,1.25,,Rough,R6,2597,,,-1,-1,,,,1
65c072fe454cef4b9b1ab25f,0vo0co7jwd,Ex2A_Prolific,1,27,2024-02-27T23:29:49+00:00,2.036416053772,2,Stim_B.csv,Read.csv,Read,B,plush,,R7,,,20,Study,User,1.25,,Rough,R7,1871,,,-1,-1,,,,1
65c072fe454cef4b9b1ab25f,0vo0co7jwd,Ex2A_Prolific,1,28,2024-02-27T23:29:51+00:00,1.7619650363922,2,Stim_B.csv,Read.csv,Read,B,cotton,,R8,,,21,Study,User,1.25,,Rough,R8,1594,,,-1,-1,,,,1
65c072fe454cef4b9b1ab25f,0vo0co7jwd,Ex2A_Prolific,1,29,2024-02-27T23:29:53+00:00,1.8493590354919,2,Stim_B.csv,Read.csv,Read,B,skin,,R9,,,22,Study,User,1.25,,Rough,R9,1655,,,-1,-1,,,,1
65c072fe454cef4b9b1ab25f,0vo0co7jwd,Ex2A_Prolific,1,30,2024-02-27T23:29:54+00:00,1.8006718158722,2,Stim_B.csv,Read.csv,Read,B,fur,,R10,,,23,Study,User,1.25,,Rough,R10,1611,,,-1,-1,,,,1
65c072fe454cef4b9b1ab25f,0vo0co7jwd,Ex2A_Prolific,1,31,2024-02-27T23:29:56+00:00,1.7530989646912,2,Stim_B.csv,Read.csv,Read,B,touch,,R11,,,24,Study,User,1.25,,Rough,R11,1570,,,-1,-1,,,,1
65c072fe454cef4b9b1ab25f,0vo0co7jwd,Ex2A_Prolific,1,32,2024-02-27T23:29:59+00:00,2.6396000385284,2,Stim_B.csv,Read.csv,Read,B,furry,,R12,,,25,Study,User,1.25,,Rough,R12,2464,,,-1,-1,,,,1
65c072fe454cef4b9b1ab25f,0vo0co7jwd,Ex2A_Prolific,1,33,2024-02-27T23:30:00+00:00,0.94034218788147,2,Stim_B.csv,Read.csv,Read,B,,,,,,0,Instruct,User,-,"You have completed this section. Please click next.",,Instruct166,756,,,-1,-1,,,,1
65c072fe454cef4b9b1ab25f,0vo0co7jwd,Ex2A_Prolific,1,34,2024-02-27T23:30:30+00:00,30.236423969269,2,Stim_B.csv,Read.csv,Read,B,,,,,,0,FreeRecall,30,30,"Please type as many words as you can that begin with the letter ""K"". The computer will automatically advance to the next screen in 30 seconds.",,FILLER,30012,"Kitchen,kitten,kiss,",0,2737,23751,0,0,,1
65c072fe454cef4b9b1ab25f,0vo0co7jwd,Ex2A_Prolific,1,35,2024-02-27T23:30:31+00:00,1.4469950199127,2,Stim_B.csv,Read.csv,Read,B,,,,,,0,Instruct,User,-,"You have completed this section. Please click next.",,Instruct166,1248,,,-1,-1,,,,1
65c072fe454cef4b9b1ab25f,0vo0co7jwd,Ex2A_Prolific,1,36,2024-02-27T23:30:36+00:00,4.5744159221649,2,Stim_B.csv,Read.csv,Read,B,,,,,,0,Instruct,User,4,"You will now complete a memory test for the words you just studied. Please type as many words from the previous list as you can seperated by a comma. Spelling will not count against you and you can recall the words in any order. This test will be timed for one minute, and the computer will automatically advance once time is up. Click next when you are ready to begin.",,Instruct1666,4356,,,-1,-1,,,,1
65c072fe454cef4b9b1ab25f,0vo0co7jwd,Ex2A_Prolific,1,37,2024-02-27T23:31:36+00:00,60.261915922165,2,Stim_B.csv,Read.csv,Read,B,,,,,,0,FreeRecall,60,60,"Please type as many words as you can from the previous study list in any order. Please separate each word with a comma. Spelling will not count against you. This screen will automatically advance in one minute.",,RECALL_Test,60004,"tender,fluffy,pillow,furry,fur,skin,plush,",0,1818,14292,0,0,,1
65c072fe454cef4b9b1ab25f,0vo0co7jwd,Ex2A_Prolific,1,38,2024-02-27T23:31:40+00:00,3.5986759662628,2,Stim_B.csv,Read.csv,Read,B,,,,,,0,Instruct,User,3,"You will now be presented with a new study list. Click next when you are ready to begin.",,NEXT_LIST,3404,,,-1,-1,,,,1
65c072fe454cef4b9b1ab25f,0vo0co7jwd,Ex2A_Prolific,1,39,2024-02-27T23:31:43+00:00,3.3400740623474,2,Stim_B.csv,Read.csv,Read,B,honey,,A1,,,26,Study,User,1.25,,Anger,A1,3112,,,-1,-1,,,,0.5
65c072fe454cef4b9b1ab25f,0vo0co7jwd,Ex2A_Prolific,1,40,2024-02-27T23:31:45+00:00,1.7889130115509,2,Stim_B.csv,Read.csv,Read,B,bitter,,A2,,,27,Study,User,1.25,,Anger,A2,1621,,,-1,-1,,,,1
65c072fe454cef4b9b1ab25f,0vo0co7jwd,Ex2A_Prolific,1,41,2024-02-27T23:31:47+00:00,1.9690659046173,2,Stim_B.csv,Read.csv,Read,B,sugar,,A3,,,28,Study,User,1.25,,Anger,A3,1785,,,-1,-1,,,,1
65c072fe454cef4b9b1ab25f,0vo0co7jwd,Ex2A_Prolific,1,42,2024-02-27T23:31:49+00:00,1.8151631355286,2,Stim_B.csv,Read.csv,Read,B,sour,,A4,,,29,Study,User,1.25,,Anger,A4,1644,,,-1,-1,,,,1
65c072fe454cef4b9b1ab25f,0vo0co7jwd,Ex2A_Prolific,1,43,2024-02-27T23:31:50+00:00,1.7463510036469,2,Stim_B.csv,Read.csv,Read,B,candy,,A5,,,30,Study,User,1.25,,Anger,A5,1571,,,-1,-1,,,,1
65c072fe454cef4b9b1ab25f,0vo0co7jwd,Ex2A_Prolific,1,44,2024-02-27T23:31:52+00:00,1.7657399177551,2,Stim_B.csv,Read.csv,Read,B,tart,,A6,,,31,Study,User,1.25,,Anger,A6,1587,,,-1,-1,,,,1
65c072fe454cef4b9b1ab25f,0vo0co7jwd,Ex2A_Prolific,1,45,2024-02-27T23:31:55+00:00,2.8267149925232,2,Stim_B.csv,Read.csv,Read,B,chocolate,,A7,,,32,Study,User,1.25,,Anger,A7,2660,,,-1,-1,,,,1
65c072fe454cef4b9b1ab25f,0vo0co7jwd,Ex2A_Prolific,1,46,2024-02-27T23:31:57+00:00,1.879606962204,2,Stim_B.csv,Read.csv,Read,B,nice,,A8,,,33,Study,User,1.25,,Anger,A8,1711,,,-1,-1,,,,1
65c072fe454cef4b9b1ab25f,0vo0co7jwd,Ex2A_Prolific,1,47,2024-02-27T23:32:00+00:00,2.8386921882629,2,Stim_B.csv,Read.csv,Read,B,taste,,A9,,,34,Study,User,1.25,,Anger,A9,2684,,,-1,-1,,,,1
65c072fe454cef4b9b1ab25f,0vo0co7jwd,Ex2A_Prolific,1,48,2024-02-27T23:32:02+00:00,2.0131118297577,2,Stim_B.csv,Read.csv,Read,B,cake,,A10,,,35,Study,User,1.25,,Anger,A10,1838,,,-1,-1,,,,1
65c072fe454cef4b9b1ab25f,0vo0co7jwd,Ex2A_Prolific,1,49,2024-02-27T23:32:04+00:00,2.0091180801392,2,Stim_B.csv,Read.csv,Read,B,good,,A11,,,36,Study,User,1.25,,Anger,A11,1834,,,-1,-1,,,,1
65c072fe454cef4b9b1ab25f,0vo0co7jwd,Ex2A_Prolific,1,50,2024-02-27T23:32:06+00:00,1.9137279987335,2,Stim_B.csv,Read.csv,Read,B,tooth,,A12,,,37,Study,User,1.25,,Anger,A12,1753,,,-1,-1,,,,1
65c072fe454cef4b9b1ab25f,0vo0co7jwd,Ex2A_Prolific,1,51,2024-02-27T23:32:10+00:00,4.6998920440674,2,Stim_B.csv,Read.csv,Read,B,,,,,,0,Instruct,User,4,"You have completed this section. Please click next.",,Instruct166,4527,,,-1,-1,,,,1
65c072fe454cef4b9b1ab25f,0vo0co7jwd,Ex2A_Prolific,1,52,2024-02-27T23:32:41+00:00,30.264379024506,2,Stim_B.csv,Read.csv,Read,B,,,,,,0,FreeRecall,30,30,"Please type as many words as you can that begin with the letter ""K"". The computer will automatically advance to the next screen in 30 seconds.",,FILLER,30013,"kitten,kiss,kitchen,kit,kobe",0,1490,26513,0,0,,1
65c072fe454cef4b9b1ab25f,0vo0co7jwd,Ex2A_Prolific,1,53,2024-02-27T23:32:45+00:00,4.6749019622803,2,Stim_B.csv,Read.csv,Read,B,,,,,,0,Instruct,User,4,"You have completed this section. Please click next.",,Instruct166,4445,,,-1,-1,,,,1
65c072fe454cef4b9b1ab25f,0vo0co7jwd,Ex2A_Prolific,1,54,2024-02-27T23:32:50+00:00,4.6890609264374,2,Stim_B.csv,Read.csv,Read,B,,,,,,0,Instruct,User,4,"You will now complete a memory test for the words you just studied. Please type as many words from the previous list as you can seperated by a comma. Spelling will not count against you and you can recall the words in any order. This test will be timed for one minute, and the computer will automatically advance once time is up. Click next when you are ready to begin.",,Instruct1666,4491,,,-1,-1,,,,1
65c072fe454cef4b9b1ab25f,0vo0co7jwd,Ex2A_Prolific,1,55,2024-02-27T23:33:50+00:00,60.26842212677,2,Stim_B.csv,Read.csv,Read,B,,,,,,0,FreeRecall,60,60,"Please type as many words as you can from the previous study list in any order. Please separate each word with a comma. Spelling will not count against you. This screen will automatically advance in one minute.",,RECALL_Test,60007,"chocolate,nice,cake,honey,sugar,sweet",0,1969,11415,0,0,,1
65c072fe454cef4b9b1ab25f,0vo0co7jwd,Ex2A_Prolific,1,56,2024-02-27T23:33:54+00:00,3.6481158733368,2,Stim_B.csv,Read.csv,Read,B,,,,,,0,Instruct,User,3,"You will now be presented with a new study list. Click next when you are ready to begin.",,NEXT_LIST,3441,,,-1,-1,,,,1
65c072fe454cef4b9b1ab25f,0vo0co7jwd,Ex2A_Prolific,1,57,2024-02-27T23:33:57+00:00,2.7336001396179,2,Stim_B.csv,Read.csv,Read,B,table,,T1,,,38,Study,User,1.25,,Trash,T1,2549,,,-1,-1,,,,1
65c072fe454cef4b9b1ab25f,0vo0co7jwd,Ex2A_Prolific,1,58,2024-02-27T23:33:59+00:00,1.9252939224243,2,Stim_B.csv,Read.csv,Read,B,swivel,,T2,,,39,Study,User,1.25,,Trash,T2,1743,,,-1,-1,,,,1
65c072fe454cef4b9b1ab25f,0vo0co7jwd,Ex2A_Prolific,1,59,2024-02-27T23:34:01+00:00,2.0033609867096,2,Stim_B.csv,Read.csv,Read,B,rocking,,T3,,,40,Study,User,1.25,,Trash,T3,1806,,,-1,-1,,,,1
65c072fe454cef4b9b1ab25f,0vo0co7jwd,Ex2A_Prolific,1,60,2024-02-27T23:34:03+00:00,2.4163160324097,2,Stim_B.csv,Read.csv,Read,B,recliner,,T4,,,41,Study,User,1.25,,Trash,T4,2235,,,-1,-1,,,,1
65c072fe454cef4b9b1ab25f,0vo0co7jwd,Ex2A_Prolific,1,61,2024-02-27T23:34:05+00:00,2.4766280651093,2,Stim_B.csv,Read.csv,Read,B,seat,,T5,,,42,Study,User,1.25,,Trash,T5,2309,,,-1,-1,,,,1
65c072fe454cef4b9b1ab25f,0vo0co7jwd,Ex2A_Prolific,1,62,2024-02-27T23:34:07+00:00,1.9427199363708,2,Stim_B.csv,Read.csv,Read,B,stool,,T6,,,43,Study,User,1.25,,Trash,T6,1754,,,-1,-1,,,,1
65c072fe454cef4b9b1ab25f,0vo0co7jwd,Ex2A_Prolific,1,63,2024-02-27T23:34:09+00:00,1.7030608654022,2,Stim_B.csv,Read.csv,Read,B,desk,,T7,,,44,Study,User,1.25,,Trash,T7,1530,,,-1,-1,,,,1
65c072fe454cef4b9b1ab25f,0vo0co7jwd,Ex2A_Prolific,1,64,2024-02-27T23:34:11+00:00,1.7834420204163,2,Stim_B.csv,Read.csv,Read,B,couch,,T8,,,45,Study,User,1.25,,Trash,T8,1608,,,-1,-1,,,,1
65c072fe454cef4b9b1ab25f,0vo0co7jwd,Ex2A_Prolific,1,65,2024-02-27T23:34:12+00:00,1.5709261894226,2,Stim_B.csv,Read.csv,Read,B,sit,,T9,,,46,Study,User,1.25,,Trash,T9,1411,,,-1,-1,,,,1
65c072fe454cef4b9b1ab25f,0vo0co7jwd,Ex2A_Prolific,1,66,2024-02-27T23:34:14+00:00,1.857314825058,2,Stim_B.csv,Read.csv,Read,B,sofa,,T10,,,47,Study,User,1.25,,Trash,T10,1676,,,-1,-1,,,,1
65c072fe454cef4b9b1ab25f,0vo0co7jwd,Ex2A_Prolific,1,67,2024-02-27T23:34:16+00:00,1.7266089916229,2,Stim_B.csv,Read.csv,Read,B,bench,,T11,,,48,Study,User,1.25,,Trash,T11,1560,,,-1,-1,,,,1
65c072fe454cef4b9b1ab25f,0vo0co7jwd,Ex2A_Prolific,1,68,2024-02-27T23:34:18+00:00,1.8603150844574,2,Stim_B.csv,Read.csv,Read,B,sitting,,T12,,,49,Study,User,1.25,,Trash,T12,1678,,,-1,-1,,,,1
65c072fe454cef4b9b1ab25f,0vo0co7jwd,Ex2A_Prolific,1,69,2024-02-27T23:34:19+00:00,0.9325840473175,2,Stim_B.csv,Read.csv,Read,B,,,,,,0,Instruct,User,-,"You have completed this section. Please click next.",,Instruct166,758,,,-1,-1,,,,1
65c072fe454cef4b9b1ab25f,0vo0co7jwd,Ex2A_Prolific,1,70,2024-02-27T23:34:49+00:00,30.274145841599,2,Stim_B.csv,Read.csv,Read,B,,,,,,0,FreeRecall,30,30,"Please type as many words as you can that begin with the letter ""K"". The computer will automatically advance to the next screen in 30 seconds.",,FILLER,30006,"kitchen,kiss,kit,kobe,kitten,kitty,kim,kindle,",0,1583,28274,0,0,,1
65c072fe454cef4b9b1ab25f,0vo0co7jwd,Ex2A_Prolific,1,71,2024-02-27T23:34:51+00:00,2.0902659893036,2,Stim_B.csv,Read.csv,Read,B,,,,,,0,Instruct,User,-,"You have completed this section. Please click next.",,Instruct166,1916,,,-1,-1,,,,1
65c072fe454cef4b9b1ab25f,0vo0co7jwd,Ex2A_Prolific,1,72,2024-02-27T23:34:56+00:00,5.1359670162201,2,Stim_B.csv,Read.csv,Read,B,,,,,,0,Instruct,User,4,"You will now complete a memory test for the words you just studied. Please type as many words from the previous list as you can seperated by a comma. Spelling will not count against you and you can recall the words in any order. This test will be timed for one minute, and the computer will automatically advance once time is up. Click next when you are ready to begin.",,Instruct1666,4927,,,-1,-1,,,,1
65c072fe454cef4b9b1ab25f,0vo0co7jwd,Ex2A_Prolific,1,73,2024-02-27T23:35:57+00:00,60.274707078934,2,Stim_B.csv,Read.csv,Read,B,,,,,,0,FreeRecall,60,60,"Please type as many words as you can from the previous study list in any order. Please separate each word with a comma. Spelling will not count against you. This screen will automatically advance in one minute.",,RECALL_Test,60006,"table,desk,swivel,sit,sitting,sofa,couch",0,802,17860,0,0,,0.502
65c072fe454cef4b9b1ab25f,0vo0co7jwd,Ex2A_Prolific,1,74,2024-02-27T23:36:01+00:00,4.0943551063538,2,Stim_B.csv,Read.csv,Read,B,,,,,,0,Instruct,User,3,"You will now be presented with a new study list. Click next when you are ready to begin.",,NEXT_LIST,3918,,,-1,-1,,,,0.05
65c072fe454cef4b9b1ab25f,0vo0co7jwd,Ex2A_Prolific,1,75,2024-02-27T23:36:06+00:00,5.0051929950714,2,Stim_B.csv,Read.csv,Read,B,climber,,D1,,,50,Study,User,1.25,,Doctor,D1,4801,,,-1,-1,,,,0.727
65c072fe454cef4b9b1ab25f,0vo0co7jwd,Ex2A_Prolific,1,76,2024-02-27T23:36:08+00:00,1.8136188983917,2,Stim_B.csv,Read.csv,Read,B,hill,,D2,,,51,Study,User,1.25,,Doctor,D2,1571,,,-1,-1,,,,1
65c072fe454cef4b9b1ab25f,0vo0co7jwd,Ex2A_Prolific,1,77,2024-02-27T23:36:10+00:00,2.88054895401,2,Stim_B.csv,Read.csv,Read,B,climb,,D3,,,52,Study,User,1.25,,Doctor,D3,2710,,,-1,-1,,,,1
65c072fe454cef4b9b1ab25f,0vo0co7jwd,Ex2A_Prolific,1,78,2024-02-27T23:36:13+00:00,2.4568819999695,2,Stim_B.csv,Read.csv,Read,B,molehill,,D4,,,53,Study,User,1.25,,Doctor,D4,2267,,,-1,-1,,,,1
65c072fe454cef4b9b1ab25f,0vo0co7jwd,Ex2A_Prolific,1,79,2024-02-27T23:36:16+00:00,2.6561570167542,2,Stim_B.csv,Read.csv,Read,B,peak,,D5,,,54,Study,User,1.25,,Doctor,D5,2476,,,-1,-1,,,,1
65c072fe454cef4b9b1ab25f,0vo0co7jwd,Ex2A_Prolific,1,80,2024-02-27T23:36:19+00:00,3.0717051029205,2,Stim_B.csv,Read.csv,Read,B,valley,,D6,,,55,Study,User,1.25,,Doctor,D6,2899,,,-1,-1,,,,1
65c072fe454cef4b9b1ab25f,0vo0co7jwd,Ex2A_Prolific,1,81,2024-02-27T23:36:21+00:00,2.6456320285797,2,Stim_B.csv,Read.csv,Read,B,summit,,D7,,,56,Study,User,1.25,,Doctor,D7,2469,,,-1,-1,,,,1
65c072fe454cef4b9b1ab25f,0vo0co7jwd,Ex2A_Prolific,1,82,2024-02-27T23:36:24+00:00,2.35564494133,2,Stim_B.csv,Read.csv,Read,B,steep,,D8,,,57,Study,User,1.25,,Doctor,D8,2166,,,-1,-1,,,,1
65c072fe454cef4b9b1ab25f,0vo0co7jwd,Ex2A_Prolific,1,83,2024-02-27T23:36:25+00:00,1.8633508682251,2,Stim_B.csv,Read.csv,Read,B,ski,,D9,,,58,Study,User,1.25,,Doctor,D9,1679,,,-1,-1,,,,1
65c072fe454cef4b9b1ab25f,0vo0co7jwd,Ex2A_Prolific,1,84,2024-02-27T23:36:28+00:00,2.1265931129456,2,Stim_B.csv,Read.csv,Read,B,bike,,D10,,,59,Study,User,1.25,,Doctor,D10,1955,,,-1,-1,,,,1
65c072fe454cef4b9b1ab25f,0vo0co7jwd,Ex2A_Prolific,1,85,2024-02-27T23:36:30+00:00,2.6993598937988,2,Stim_B.csv,Read.csv,Read,B,goat,,D11,,,60,Study,User,1.25,,Doctor,D11,2526,,,-1,-1,,,,1
65c072fe454cef4b9b1ab25f,0vo0co7jwd,Ex2A_Prolific,1,86,2024-02-27T23:36:32+00:00,2.0608642101288,2,Stim_B.csv,Read.csv,Read,B,glacier,,D12,,,61,Study,User,1.25,,Doctor,D12,1885,,,-1,-1,,,,1
65c072fe454cef4b9b1ab25f,0vo0co7jwd,Ex2A_Prolific,1,87,2024-02-27T23:36:34+00:00,1.1560537815094,2,Stim_B.csv,Read.csv,Read,B,,,,,,0,Instruct,User,-,"You have completed this section. Please click next.",,Instruct166,981,,,-1,-1,,,,1
65c072fe454cef4b9b1ab25f,0vo0co7jwd,Ex2A_Prolific,1,88,2024-02-27T23:37:04+00:00,30.244612216949,2,Stim_B.csv,Read.csv,Read,B,,,,,,0,FreeRecall,30,30,"Please type as many words as you can that begin with the letter ""K"". The computer will automatically advance to the next screen in 30 seconds.",,FILLER,30003,"kitten,kindle,kitty,kim,kobe,kiss,kit,kick,",0,1304,27850,0,0,,1
65c072fe454cef4b9b1ab25f,0vo0co7jwd,Ex2A_Prolific,1,89,2024-02-27T23:37:05+00:00,1.6507198810577,2,Stim_B.csv,Read.csv,Read,B,,,,,,0,Instruct,User,-,"You have completed this section. Please click next.",,Instruct166,1470,,,-1,-1,,,,1
65c072fe454cef4b9b1ab25f,0vo0co7jwd,Ex2A_Prolific,1,90,2024-02-27T23:37:10+00:00,4.5448091030121,2,Stim_B.csv,Read.csv,Read,B,,,,,,0,Instruct,User,4,"You will now complete a memory test for the words you just studied. Please type as many words from the previous list as you can seperated by a comma. Spelling will not count against you and you can recall the words in any order. This test will be timed for one minute, and the computer will automatically advance once time is up. Click next when you are ready to begin.",,Instruct1666,4341,,,-1,-1,,,,1
65c072fe454cef4b9b1ab25f,0vo0co7jwd,Ex2A_Prolific,1,91,2024-02-27T23:38:11+00:00,61.074880838394,2,Stim_B.csv,Read.csv,Read,B,,,,,,0,FreeRecall,60,60,"Please type as many words as you can from the previous study list in any order. Please separate each word with a comma. Spelling will not count against you. This screen will automatically advance in one minute.",,RECALL_Test,60823,"climb,climbing,valley,peak,summit,molehill,ski,bike",0,658,31140,0,0,,0.952
65c072fe454cef4b9b1ab25f,0vo0co7jwd,Ex2A_Prolific,1,92,2024-02-27T23:38:16+00:00,4.473531961441,2,Stim_B.csv,Read.csv,Read,B,,,,,,0,Instruct,User,3,"You will now be presented with a new study list. Click next when you are ready to begin.",,NEXT_LIST,4281,,,-1,-1,,,,0.889
65c072fe454cef4b9b1ab25f,0vo0co7jwd,Ex2A_Prolific,1,93,2024-02-27T23:38:18+00:00,2.895987033844,2,Stim_B.csv,Read.csv,Read,B,band,,S1,,,62,Study,User,1.25,,Slow,S1,2718,,,-1,-1,,,,1
65c072fe454cef4b9b1ab25f,0vo0co7jwd,Ex2A_Prolific,1,94,2024-02-27T23:38:20+00:00,1.9950070381165,2,Stim_B.csv,Read.csv,Read,B,concert,,S2,,,63,Study,User,1.25,,Slow,S2,1786,,,-1,-1,,,,1
65c072fe454cef4b9b1ab25f,0vo0co7jwd,Ex2A_Prolific,1,95,2024-02-27T23:38:22+00:00,2.0537469387054,2,Stim_B.csv,Read.csv,Read,B,jazz,,S3,,,64,Study,User,1.25,,Slow,S3,1829,,,-1,-1,,,,1
65c072fe454cef4b9b1ab25f,0vo0co7jwd,Ex2A_Prolific,1,96,2024-02-27T23:38:25+00:00,2.1210160255432,2,Stim_B.csv,Read.csv,Read,B,symphony,,S4,,,65,Study,User,1.25,,Slow,S4,1932,,,-1,-1,,,,1
65c072fe454cef4b9b1ab25f,0vo0co7jwd,Ex2A_Prolific,1,97,2024-02-27T23:38:28+00:00,3.0666580200195,2,Stim_B.csv,Read.csv,Read,B,orchestra,,S5,,,66,Study,User,1.25,,Slow,S5,2883,,,-1,-1,,,,1
65c072fe454cef4b9b1ab25f,0vo0co7jwd,Ex2A_Prolific,1,98,2024-02-27T23:38:30+00:00,2.3756380081177,2,Stim_B.csv,Read.csv,Read,B,rhythm,,S6,,,67,Study,User,1.25,,Slow,S6,2215,,,-1,-1,,,,1
65c072fe454cef4b9b1ab25f,0vo0co7jwd,Ex2A_Prolific,1,99,2024-02-27T23:38:32+00:00,2.1311280727386,2,Stim_B.csv,Read.csv,Read,B,radio,,S7,,,68,Study,User,1.25,,Slow,S7,1949,,,-1,-1,,,,1
65c072fe454cef4b9b1ab25f,0vo0co7jwd,Ex2A_Prolific,1,100,2024-02-27T23:38:34+00:00,1.9411780834198,2,Stim_B.csv,Read.csv,Read,B,melody,,S8,,,69,Study,User,1.25,,Slow,S8,1766,,,-1,-1,,,,1
65c072fe454cef4b9b1ab25f,0vo0co7jwd,Ex2A_Prolific,1,101,2024-02-27T23:38:36+00:00,2.0801808834076,2,Stim_B.csv,Read.csv,Read,B,piano,,S9,,,70,Study,User,1.25,,Slow,S9,1912,,,-1,-1,,,,1
65c072fe454cef4b9b1ab25f,0vo0co7jwd,Ex2A_Prolific,1,102,2024-02-27T23:38:38+00:00,1.7753539085388,2,Stim_B.csv,Read.csv,Read,B,sound,,S10,,,71,Study,User,1.25,,Slow,S10,1592,,,-1,-1,,,,1
65c072fe454cef4b9b1ab25f,0vo0co7jwd,Ex2A_Prolific,1,103,2024-02-27T23:38:40+00:00,1.7892000675201,2,Stim_B.csv,Read.csv,Read,B,instrument,,S11,,,72,Study,User,1.25,,Slow,S11,1628,,,-1,-1,,,,1
65c072fe454cef4b9b1ab25f,0vo0co7jwd,Ex2A_Prolific,1,104,2024-02-27T23:38:42+00:00,2.0576269626617,2,Stim_B.csv,Read.csv,Read,B,note,,S12,,,73,Study,User,1.25,,Slow,S12,1884,,,-1,-1,,,,1
65c072fe454cef4b9b1ab25f,0vo0co7jwd,Ex2A_Prolific,1,105,2024-02-27T23:38:46+00:00,4.4734859466553,2,Stim_B.csv,Read.csv,Read,B,,,,,,0,Instruct,User,4,"You have completed this section. Please click next.",,Instruct166,4305,,,-1,-1,,,,1
65c072fe454cef4b9b1ab25f,0vo0co7jwd,Ex2A_Prolific,1,106,2024-02-27T23:39:17+00:00,30.255728006363,2,Stim_B.csv,Read.csv,Read,B,,,,,,0,FreeRecall,30,30,"Please type as many words as you can that begin with the letter ""K"". The computer will automatically advance to the next screen in 30 seconds.",,FILLER,30006,"kit,kitten,kindle,kim,kobe,kiss,kick,ken,k",0,1574,22882,0,0,,1
65c072fe454cef4b9b1ab25f,0vo0co7jwd,Ex2A_Prolific,1,107,2024-02-27T23:39:21+00:00,4.5086960792542,2,Stim_B.csv,Read.csv,Read,B,,,,,,0,Instruct,User,4,"You have completed this section. Please click next.",,Instruct166,4305,,,-1,-1,,,,1
65c072fe454cef4b9b1ab25f,0vo0co7jwd,Ex2A_Prolific,1,108,2024-02-27T23:39:30+00:00,8.7387630939484,2,Stim_B.csv,Read.csv,Read,B,,,,,,0,Instruct,User,4,"You will now complete a memory test for the words you just studied. Please type as many words from the previous list as you can seperated by a comma. Spelling will not count against you and you can recall the words in any order. This test will be timed for one minute, and the computer will automatically advance once time is up. Click next when you are ready to begin.",,Instruct1666,8475,,,-1,-1,,,,1
65c072fe454cef4b9b1ab25f,0vo0co7jwd,Ex2A_Prolific,1,109,2024-02-27T23:40:30+00:00,60.275179862976,2,Stim_B.csv,Read.csv,Read,B,,,,,,0,FreeRecall,60,60,"Please type as many words as you can from the previous study list in any order. Please separate each word with a comma. Spelling will not count against you. This screen will automatically advance in one minute.",,RECALL_Test,60014,"rhythm,concert,band,piano,sound,",0,1145,7312,0,0,,1
65c072fe454cef4b9b1ab25f,0vo0co7jwd,Ex2A_Prolific,1,110,2024-02-27T23:40:40+00:00,9.5647161006927,2,Stim_B.csv,Read.csv,Read,B,,,,,,0,Instruct,User,3,"You will now be presented with a new study list. Click next when you are ready to begin.",,NEXT_LIST,9291,,,-1,-1,,,,1
65c072fe454cef4b9b1ab25f,0vo0co7jwd,Ex2A_Prolific,1,111,2024-02-27T23:40:42+00:00,2.4649028778076,2,Stim_B.csv,Read.csv,Read,B,foam,,RR1,,,74,Study,User,1.25,,River,RR1,2284,,,-1,-1,,,,1
65c072fe454cef4b9b1ab25f,0vo0co7jwd,Ex2A_Prolific,1,112,2024-02-27T23:40:44+00:00,2.2539432048798,2,Stim_B.csv,Read.csv,Read,B,latex,,RR2,,,75,Study,User,1.25,,River,RR2,2064,,,-1,-1,,,,1
65c072fe454cef4b9b1ab25f,0vo0co7jwd,Ex2A_Prolific,1,113,2024-02-27T23:40:47+00:00,2.4634099006653,2,Stim_B.csv,Read.csv,Read,B,galoshes,,RR3,,,76,Study,User,1.25,,River,RR3,2280,,,-1,-1,,,,1
65c072fe454cef4b9b1ab25f,0vo0co7jwd,Ex2A_Prolific,1,114,2024-02-27T23:40:49+00:00,1.7815690040588,2,Stim_B.csv,Read.csv,Read,B,tire,,RR4,,,77,Study,User,1.25,,River,RR4,1591,,,-1,-1,,,,1
65c072fe454cef4b9b1ab25f,0vo0co7jwd,Ex2A_Prolific,1,115,2024-02-27T23:40:52+00:00,3.1951289176941,2,Stim_B.csv,Read.csv,Read,B,flexible,,RR5,,,78,Study,User,1.25,,River,RR5,3017,,,-1,-1,,,,1
65c072fe454cef4b9b1ab25f,0vo0co7jwd,Ex2A_Prolific,1,116,2024-02-27T23:40:55+00:00,2.7645461559296,2,Stim_B.csv,Read.csv,Read,B,elastic,,RR6,,,79,Study,User,1.25,,River,RR6,2571,,,-1,-1,,,,1
65c072fe454cef4b9b1ab25f,0vo0co7jwd,Ex2A_Prolific,1,117,2024-02-27T23:40:56+00:00,1.9273989200592,2,Stim_B.csv,Read.csv,Read,B,gloves,,RR7,,,80,Study,User,1.25,,River,RR7,1743,,,-1,-1,,,,1
65c072fe454cef4b9b1ab25f,0vo0co7jwd,Ex2A_Prolific,1,118,2024-02-27T23:40:58+00:00,1.7868700027466,2,Stim_B.csv,Read.csv,Read,B,eraser,,RR8,,,81,Study,User,1.25,,River,RR8,1603,,,-1,-1,,,,1
65c072fe454cef4b9b1ab25f,0vo0co7jwd,Ex2A_Prolific,1,119,2024-02-27T23:41:00+00:00,1.7922909259796,2,Stim_B.csv,Read.csv,Read,B,bounce,,RR9,,,82,Study,User,1.25,,River,RR9,1613,,,-1,-1,,,,1
65c072fe454cef4b9b1ab25f,0vo0co7jwd,Ex2A_Prolific,1,120,2024-02-27T23:41:02+00:00,1.8816339969635,2,Stim_B.csv,Read.csv,Read,B,ball,,RR10,,,83,Study,User,1.25,,River,RR10,1711,,,-1,-1,,,,1
65c072fe454cef4b9b1ab25f,0vo0co7jwd,Ex2A_Prolific,1,121,2024-02-27T23:41:04+00:00,1.7049601078033,2,Stim_B.csv,Read.csv,Read,B,soles,,RR11,,,84,Study,User,1.25,,River,RR11,1539,,,-1,-1,,,,1
65c072fe454cef4b9b1ab25f,0vo0co7jwd,Ex2A_Prolific,1,122,2024-02-27T23:41:05+00:00,1.8838419914246,2,Stim_B.csv,Read.csv,Read,B,springy,,RR12,,,85,Study,User,1.25,,River,RR12,1703,,,-1,-1,,,,1
65c072fe454cef4b9b1ab25f,0vo0co7jwd,Ex2A_Prolific,1,123,2024-02-27T23:41:07+00:00,1.0122199058533,2,Stim_B.csv,Read.csv,Read,B,,,,,,0,Instruct,User,-,"You have completed this section. Please click next.",,Instruct166,826,,,-1,-1,,,,1
65c072fe454cef4b9b1ab25f,0vo0co7jwd,Ex2A_Prolific,1,124,2024-02-27T23:41:37+00:00,30.254503965378,2,Stim_B.csv,Read.csv,Read,B,,,,,,0,FreeRecall,30,30,"Please type as many words as you can that begin with the letter ""K"". The computer will automatically advance to the next screen in 30 seconds.",,FILLER,30005,"kitten,kitty,kiss,kit,kabob,kindle,kart,",0,1569,22725,0,0,,0.971
65c072fe454cef4b9b1ab25f,0vo0co7jwd,Ex2A_Prolific,1,125,2024-02-27T23:41:41+00:00,4.4973511695862,2,Stim_B.csv,Read.csv,Read,B,,,,,,0,Instruct,User,4,"You have completed this section. Please click next.",,Instruct166,4314,,,-1,-1,,,,1
65c072fe454cef4b9b1ab25f,0vo0co7jwd,Ex2A_Prolific,1,126,2024-02-27T23:41:46+00:00,4.5546708106995,2,Stim_B.csv,Read.csv,Read,B,,,,,,0,Instruct,User,4,"You will now complete a memory test for the words you just studied. Please type as many words from the previous list as you can seperated by a comma. Spelling will not count against you and you can recall the words in any order. This test will be timed for one minute, and the computer will automatically advance once time is up. Click next when you are ready to begin.",,Instruct1666,4332,,,-1,-1,,,,1
65c072fe454cef4b9b1ab25f,0vo0co7jwd,Ex2A_Prolific,1,127,2024-02-27T23:42:46+00:00,60.26039814949,2,Stim_B.csv,Read.csv,Read,B,,,,,,0,FreeRecall,60,60,"Please type as many words as you can from the previous study list in any order. Please separate each word with a comma. Spelling will not count against you. This screen will automatically advance in one minute.",,RECALL_Test,60007,"latex,glove,sole,bounce,ball,galoshes",0,1270,10093,0,0,,1
65c072fe454cef4b9b1ab25f,0vo0co7jwd,Ex2A_Prolific,1,128,2024-02-27T23:42:50+00:00,4.342915058136,2,Stim_B.csv,Read.csv,Read,B,,,,,,0,Instruct,User,3,"You will now be presented with a new study list. Click next when you are ready to begin.",,NEXT_LIST,4149,,,-1,-1,,,,0.905
65c072fe454cef4b9b1ab25f,0vo0co7jwd,Ex2A_Prolific,1,129,2024-02-27T23:42:52+00:00,1.9847438335419,2,Stim_B.csv,Read.csv,Read,B,toe,,B1,,,86,Study,User,1.25,,Bread,B1,1778,,,-1,-1,,,,1
65c072fe454cef4b9b1ab25f,0vo0co7jwd,Ex2A_Prolific,1,130,2024-02-27T23:42:55+00:00,3.068922996521,2,Stim_B.csv,Read.csv,Read,B,inch,,B2,,,87,Study,User,1.25,,Bread,B2,2887,,,-1,-1,,,,1
65c072fe454cef4b9b1ab25f,0vo0co7jwd,Ex2A_Prolific,1,131,2024-02-27T23:42:58+00:00,2.5425510406494,2,Stim_B.csv,Read.csv,Read,B,ankle,,B3,,,88,Study,User,1.25,,Bread,B3,2302,,,-1,-1,,,,1
65c072fe454cef4b9b1ab25f,0vo0co7jwd,Ex2A_Prolific,1,132,2024-02-27T23:43:00+00:00,1.7591259479523,2,Stim_B.csv,Read.csv,Read,B,shoe,,B4,,,89,Study,User,1.25,,Bread,B4,1593,,,-1,-1,,,,1
65c072fe454cef4b9b1ab25f,0vo0co7jwd,Ex2A_Prolific,1,133,2024-02-27T23:43:02+00:00,1.9388070106506,2,Stim_B.csv,Read.csv,Read,B,sandals,,B5,,,90,Study,User,1.25,,Bread,B5,1757,,,-1,-1,,,,1
65c072fe454cef4b9b1ab25f,0vo0co7jwd,Ex2A_Prolific,1,134,2024-02-27T23:43:03+00:00,1.7625789642334,2,Stim_B.csv,Read.csv,Read,B,sock,,B6,,,91,Study,User,1.25,,Bread,B6,1587,,,-1,-1,,,,1
65c072fe454cef4b9b1ab25f,0vo0co7jwd,Ex2A_Prolific,1,135,2024-02-27T23:43:05+00:00,1.6408331394196,2,Stim_B.csv,Read.csv,Read,B,hand,,B7,,,92,Study,User,1.25,,Bread,B7,1478,,,-1,-1,,,,1
65c072fe454cef4b9b1ab25f,0vo0co7jwd,Ex2A_Prolific,1,136,2024-02-27T23:43:07+00:00,1.8092150688171,2,Stim_B.csv,Read.csv,Read,B,boot,,B8,,,93,Study,User,1.25,,Bread,B8,1639,,,-1,-1,,,,1
65c072fe454cef4b9b1ab25f,0vo0co7jwd,Ex2A_Prolific,1,137,2024-02-27T23:43:09+00:00,1.7375178337097,2,Stim_B.csv,Read.csv,Read,B,yard,,B9,,,94,Study,User,1.25,,Bread,B9,1547,,,-1,-1,,,,1
65c072fe454cef4b9b1ab25f,0vo0co7jwd,Ex2A_Prolific,1,138,2024-02-27T23:43:11+00:00,2.5623669624329,2,Stim_B.csv,Read.csv,Read,B,kick,,B10,,,95,Study,User,1.25,,Bread,B10,2388,,,-1,-1,,,,1
65c072fe454cef4b9b1ab25f,0vo0co7jwd,Ex2A_Prolific,1,139,2024-02-27T23:43:13+00:00,1.9833559989929,2,Stim_B.csv,Read.csv,Read,B,knee,,B11,,,96,Study,User,1.25,,Bread,B11,1819,,,-1,-1,,,,1
65c072fe454cef4b9b1ab25f,0vo0co7jwd,Ex2A_Prolific,1,140,2024-02-27T23:43:15+00:00,1.7519030570984,2,Stim_B.csv,Read.csv,Read,B,walk,,B12,,,97,Study,User,1.25,,Bread,B12,1576,,,-1,-1,,,,1
65c072fe454cef4b9b1ab25f,0vo0co7jwd,Ex2A_Prolific,1,141,2024-02-27T23:43:19+00:00,4.5258769989014,2,Stim_B.csv,Read.csv,Read,B,,,,,,0,Instruct,User,4,"You have completed this section. Please click next.",,Instruct166,4343,,,-1,-1,,,,1
65c072fe454cef4b9b1ab25f,0vo0co7jwd,Ex2A_Prolific,1,142,2024-02-27T23:43:50+00:00,30.279427051544,2,Stim_B.csv,Read.csv,Read,B,,,,,,0,FreeRecall,30,30,"Please type as many words as you can that begin with the letter ""K"". The computer will automatically advance to the next screen in 30 seconds.",,FILLER,30007,"kitten,kitty,kindle,kit,kiss,kick,kart,kinship,",0,1271,23418,0,0,,1
65c072fe454cef4b9b1ab25f,0vo0co7jwd,Ex2A_Prolific,1,143,2024-02-27T23:43:52+00:00,1.8604331016541,2,Stim_B.csv,Read.csv,Read,B,,,,,,0,Instruct,User,-,"You have completed this section. Please click next.",,Instruct166,1639,,,-1,-1,,,,1
65c072fe454cef4b9b1ab25f,0vo0co7jwd,Ex2A_Prolific,1,144,2024-02-27T23:43:56+00:00,4.4949798583984,2,Stim_B.csv,Read.csv,Read,B,,,,,,0,Instruct,User,4,"You will now complete a memory test for the words you just studied. Please type as many words from the previous list as you can seperated by a comma. Spelling will not count against you and you can recall the words in any order. This test will be timed for one minute, and the computer will automatically advance once time is up. Click next when you are ready to begin.",,Instruct1666,4321,,,-1,-1,,,,1
65c072fe454cef4b9b1ab25f,0vo0co7jwd,Ex2A_Prolific,1,145,2024-02-27T23:44:56+00:00,60.276811122894,2,Stim_B.csv,Read.csv,Read,B,,,,,,0,FreeRecall,60,60,"Please type as many words as you can from the previous study list in any order. Please separate each word with a comma. Spelling will not count against you. This screen will automatically advance in one minute.",,RECALL_Test,60011,"toe,inch,sock,knee,kick",0,784,6875,0,0,,0.407
65c072fe454cef4b9b1ab25f,0vo0co7jwd,Ex2A_Prolific,1,146,2024-02-27T23:45:03+00:00,6.3035488128662,2,Stim_B.csv,Read.csv,Read,B,,,,,,0,Instruct,User,3,"You will now be presented with a new study list. Click next when you are ready to begin.",,NEXT_LIST,6050,,,-1,-1,,,,0
65c072fe454cef4b9b1ab25f,0vo0co7jwd,Ex2A_Prolific,1,147,2024-02-27T23:45:05+00:00,1.830628156662,2,Stim_B.csv,Read.csv,Read,B,boy,,F1,,,98,Study,User,1.25,,Flag,F1,1644,,,-1,-1,,,,1
65c072fe454cef4b9b1ab25f,0vo0co7jwd,Ex2A_Prolific,1,148,2024-02-27T23:45:06+00:00,1.8041100502014,2,Stim_B.csv,Read.csv,Read,B,dolls,,F2,,,99,Study,User,1.25,,Flag,F2,1625,,,-1,-1,,,,1
65c072fe454cef4b9b1ab25f,0vo0co7jwd,Ex2A_Prolific,1,149,2024-02-27T23:45:08+00:00,1.8086168766022,2,Stim_B.csv,Read.csv,Read,B,pretty,,F3,,,100,Study,User,1.25,,Flag,F3,1609,,,-1,-1,,,,1
65c072fe454cef4b9b1ab25f,0vo0co7jwd,Ex2A_Prolific,1,150,2024-02-27T23:45:10+00:00,1.7946579456329,2,Stim_B.csv,Read.csv,Read,B,female,,F4,,,101,Study,User,1.25,,Flag,F4,1603,,,-1,-1,,,,1
65c072fe454cef4b9b1ab25f,0vo0co7jwd,Ex2A_Prolific,1,151,2024-02-27T23:45:13+00:00,3.4093129634857,2,Stim_B.csv,Read.csv,Read,B,dress,,F5,,,102,Study,User,1.25,,Flag,F5,3205,,,-1,-1,,,,1
65c072fe454cef4b9b1ab25f,0vo0co7jwd,Ex2A_Prolific,1,152,2024-02-27T23:45:15+00:00,1.8846640586853,2,Stim_B.csv,Read.csv,Read,B,date,,F6,,,103,Study,User,1.25,,Flag,F6,1705,,,-1,-1,,,,1
65c072fe454cef4b9b1ab25f,0vo0co7jwd,Ex2A_Prolific,1,153,2024-02-27T23:45:17+00:00,1.9465329647064,2,Stim_B.csv,Read.csv,Read,B,beautiful,,F7,,,104,Study,User,1.25,,Flag,F7,1770,,,-1,-1,,,,1
65c072fe454cef4b9b1ab25f,0vo0co7jwd,Ex2A_Prolific,1,154,2024-02-27T23:45:19+00:00,1.6817891597748,2,Stim_B.csv,Read.csv,Read,B,daughter,,F8,,,105,Study,User,1.25,,Flag,F8,1521,,,-1,-1,,,,1
65c072fe454cef4b9b1ab25f,0vo0co7jwd,Ex2A_Prolific,1,155,2024-02-27T23:45:21+00:00,1.8390400409698,2,Stim_B.csv,Read.csv,Read,B,sister,,F9,,,106,Study,User,1.25,,Flag,F9,1658,,,-1,-1,,,,1
65c072fe454cef4b9b1ab25f,0vo0co7jwd,Ex2A_Prolific,1,156,2024-02-27T23:45:22+00:00,1.7646389007568,2,Stim_B.csv,Read.csv,Read,B,cute,,F10,,,107,Study,User,1.25,,Flag,F10,1596,,,-1,-1,,,,1
65c072fe454cef4b9b1ab25f,0vo0co7jwd,Ex2A_Prolific,1,157,2024-02-27T23:45:24+00:00,1.8268699645996,2,Stim_B.csv,Read.csv,Read,B,niece,,F11,,,108,Study,User,1.25,,Flag,F11,1642,,,-1,-1,,,,1
65c072fe454cef4b9b1ab25f,0vo0co7jwd,Ex2A_Prolific,1,158,2024-02-27T23:45:27+00:00,2.7180049419403,2,Stim_B.csv,Read.csv,Read,B,young,,F12,,,109,Study,User,1.25,,Flag,F12,2537,,,-1,-1,,,,1
65c072fe454cef4b9b1ab25f,0vo0co7jwd,Ex2A_Prolific,1,159,2024-02-27T23:45:28+00:00,0.78793907165527,2,Stim_B.csv,Read.csv,Read,B,,,,,,0,Instruct,User,-,"You have completed this section. Please click next.",,Instruct166,608,,,-1,-1,,,,1
65c072fe454cef4b9b1ab25f,0vo0co7jwd,Ex2A_Prolific,1,160,2024-02-27T23:45:58+00:00,30.257671117783,2,Stim_B.csv,Read.csv,Read,B,,,,,,0,FreeRecall,30,30,"Please type as many words as you can that begin with the letter ""K"". The computer will automatically advance to the next screen in 30 seconds.",,FILLER,30010,"kit,kitten,kitty,kindle,kart,knee,kiss,kick,kinship,",0,1240,16568,0,0,,1
65c072fe454cef4b9b1ab25f,0vo0co7jwd,Ex2A_Prolific,1,161,2024-02-27T23:46:03+00:00,4.5602560043335,2,Stim_B.csv,Read.csv,Read,B,,,,,,0,Instruct,User,4,"You have completed this section. Please click next.",,Instruct166,4352,,,-1,-1,,,,1
65c072fe454cef4b9b1ab25f,0vo0co7jwd,Ex2A_Prolific,1,162,2024-02-27T23:46:07+00:00,4.4981708526611,2,Stim_B.csv,Read.csv,Read,B,,,,,,0,Instruct,User,4,"You will now complete a memory test for the words you just studied. Please type as many words from the previous list as you can seperated by a comma. Spelling will not count against you and you can recall the words in any order. This test will be timed for one minute, and the computer will automatically advance once time is up. Click next when you are ready to begin.",,Instruct1666,4303,,,-1,-1,,,,1
65c072fe454cef4b9b1ab25f,0vo0co7jwd,Ex2A_Prolific,1,163,2024-02-27T23:47:08+00:00,60.803282022476,2,Stim_B.csv,Read.csv,Read,B,,,,,,0,FreeRecall,60,60,"Please type as many words as you can from the previous study list in any order. Please separate each word with a comma. Spelling will not count against you. This screen will automatically advance in one minute.",,RECALL_Test,60519,"daughter,dolls,niece,sister,cute,prom,boy,woman,female,girl",0,753,32393,0,0,,0.89
65c072fe454cef4b9b1ab25f,0vo0co7jwd,Ex2A_Prolific,1,164,2024-02-27T23:47:12+00:00,3.5903789997101,2,Stim_B.csv,Read.csv,Read,B,,,,,,0,Instruct,User,3,"You will now be presented with a new study list. Click next when you are ready to begin.",,NEXT_LIST,3389,,,-1,-1,,,,1
65c072fe454cef4b9b1ab25f,0vo0co7jwd,Ex2A_Prolific,1,165,2024-02-27T23:47:13+00:00,1.7468130588531,2,Stim_B.csv,Read.csv,Read,B,white,,SS1,,,110,Study,User,1.25,,Shirt,SS1,1562,,,-1,-1,,,,1
65c072fe454cef4b9b1ab25f,0vo0co7jwd,Ex2A_Prolific,1,166,2024-02-27T23:47:15+00:00,1.921128988266,2,Stim_B.csv,Read.csv,Read,B,gray,,SS2,,,111,Study,User,1.25,,Shirt,SS2,1728,,,-1,-1,,,,1
65c072fe454cef4b9b1ab25f,0vo0co7jwd,Ex2A_Prolific,1,167,2024-02-27T23:47:18+00:00,2.4078040122986,2,Stim_B.csv,Read.csv,Read,B,brown,,SS3,,,112,Study,User,1.25,,Shirt,SS3,2206,,,-1,-1,,,,1
65c072fe454cef4b9b1ab25f,0vo0co7jwd,Ex2A_Prolific,1,168,2024-02-27T23:47:20+00:00,2.0029919147491,2,Stim_B.csv,Read.csv,Read,B,coal,,SS4,,,113,Study,User,1.25,,Shirt,SS4,1820,,,-1,-1,,,,1
65c072fe454cef4b9b1ab25f,0vo0co7jwd,Ex2A_Prolific,1,169,2024-02-27T23:47:21+00:00,1.5657920837402,2,Stim_B.csv,Read.csv,Read,B,dark,,SS5,,,114,Study,User,1.25,,Shirt,SS5,1367,,,-1,-1,,,,1
65c072fe454cef4b9b1ab25f,0vo0co7jwd,Ex2A_Prolific,1,170,2024-02-27T23:47:23+00:00,1.7216310501099,2,Stim_B.csv,Read.csv,Read,B,color,,SS6,,,115,Study,User,1.25,,Shirt,SS6,1523,,,-1,-1,,,,1
65c072fe454cef4b9b1ab25f,0vo0co7jwd,Ex2A_Prolific,1,171,2024-02-27T23:47:25+00:00,2.0565989017487,2,Stim_B.csv,Read.csv,Read,B,funeral,,SS7,,,116,Study,User,1.25,,Shirt,SS7,1830,,,-1,-1,,,,1
65c072fe454cef4b9b1ab25f,0vo0co7jwd,Ex2A_Prolific,1,172,2024-02-27T23:47:28+00:00,2.7728180885315,2,Stim_B.csv,Read.csv,Read,B,blue,,SS8,,,117,Study,User,1.25,,Shirt,SS8,2581,,,-1,-1,,,,1
65c072fe454cef4b9b1ab25f,0vo0co7jwd,Ex2A_Prolific,1,173,2024-02-27T23:47:30+00:00,1.8439829349518,2,Stim_B.csv,Read.csv,Read,B,charred,,SS9,,,118,Study,User,1.25,,Shirt,SS9,1653,,,-1,-1,,,,1
65c072fe454cef4b9b1ab25f,0vo0co7jwd,Ex2A_Prolific,1,174,2024-02-27T23:47:32+00:00,2.2831420898438,2,Stim_B.csv,Read.csv,Read,B,ink,,SS10,,,119,Study,User,1.25,,Shirt,SS10,2097,,,-1,-1,,,,1
65c072fe454cef4b9b1ab25f,0vo0co7jwd,Ex2A_Prolific,1,175,2024-02-27T23:47:34+00:00,1.7616980075836,2,Stim_B.csv,Read.csv,Read,B,death,,SS11,,,120,Study,User,1.25,,Shirt,SS11,1587,,,-1,-1,,,,1
65c072fe454cef4b9b1ab25f,0vo0co7jwd,Ex2A_Prolific,1,176,2024-02-27T23:47:35+00:00,1.7613019943237,2,Stim_B.csv,Read.csv,Read,B,cat,,SS12,,,121,Study,User,1.25,,Shirt,SS12,1586,,,-1,-1,,,,1
65c072fe454cef4b9b1ab25f,0vo0co7jwd,Ex2A_Prolific,1,177,2024-02-27T23:47:40+00:00,4.5984427928925,2,Stim_B.csv,Read.csv,Read,B,,,,,,0,Instruct,User,4,"You have completed this section. Please click next.",,Instruct166,4411,,,-1,-1,,,,1
65c072fe454cef4b9b1ab25f,0vo0co7jwd,Ex2A_Prolific,1,178,2024-02-27T23:48:10+00:00,30.272766113281,2,Stim_B.csv,Read.csv,Read,B,,,,,,0,FreeRecall,30,30,"Please type as many words as you can that begin with the letter ""K"". The computer will automatically advance to the next screen in 30 seconds.",,FILLER,30003,"kick,kindle,knee,kitten,kitty,kart,kabab,kiss,",0,1157,21709,0,0,,0.979
65c072fe454cef4b9b1ab25f,0vo0co7jwd,Ex2A_Prolific,1,179,2024-02-27T23:48:15+00:00,4.5740048885345,2,Stim_B.csv,Read.csv,Read,B,,,,,,0,Instruct,User,4,"You have completed this section. Please click next.",,Instruct166,4356,,,-1,-1,,,,0.545
65c072fe454cef4b9b1ab25f,0vo0co7jwd,Ex2A_Prolific,1,180,2024-02-27T23:48:23+00:00,8.5448491573334,2,Stim_B.csv,Read.csv,Read,B,,,,,,0,Instruct,User,4,"You will now complete a memory test for the words you just studied. Please type as many words from the previous list as you can seperated by a comma. Spelling will not count against you and you can recall the words in any order. This test will be timed for one minute, and the computer will automatically advance once time is up. Click next when you are ready to begin.",,Instruct1666,8268,,,-1,-1,,,,1
65c072fe454cef4b9b1ab25f,0vo0co7jwd,Ex2A_Prolific,1,181,2024-02-27T23:49:24+00:00,60.272722959518,2,Stim_B.csv,Read.csv,Read,B,,,,,,0,FreeRecall,60,60,"Please type as many words as you can from the previous study list in any order. Please separate each word with a comma. Spelling will not count against you. This screen will automatically advance in one minute.",,RECALL_Test,60002,"gray,color,death,funeral,brown,ink,dark,blue,",0,1055,13662,0,0,,0.808
65c072fe454cef4b9b1ab25f,0vo0co7jwd,Ex2A_Prolific,1,182,2024-02-27T23:49:27+00:00,3.3762710094452,2,Stim_B.csv,Read.csv,Read,B,,,,,,0,Instruct,User,-,"You have completed this section. Please click next.",,Instruct7,3194,,,-1,-1,,,,1
65c072fe454cef4b9b1ab25f,0vo0co7jwd,Ex2A_Prolific,1,183,2024-02-27T23:49:32+00:00,5.3581659793854,2,Stim_B.csv,Read.csv,Read,B,,,,,,0,Instruct,User,-,"The following screen will ask you a few questions abour your experience today. You must complete these questions to receive credit.",,Instruct8,5102,,,-1,-1,,,,1
