Username,ID,ExperimentName,Session,Trial,Date,TimeDif,"Condition Number","Stimuli File","Order File","Condition Description","Condition Notes",Stimuli*Cue,Stimuli*Answer,Stimuli*Shuffle,"Stimuli*Stimuli Notes",Stimuli*Value,Procedure*Item,"Procedure*Trial Type","Procedure*Max Time","Procedure*Min Time",Procedure*Text,"Procedure*Procedure Notes",Procedure*Shuffle,Procedure*,Response*RT,Response*Response,Response*Accuracy,Response*RTfirst,Response*RTlast,Response*strictAcc,Response*lenientAcc,Response*focus,Response*Focus
20291142,ls1ug12wht,"DRM Reactivity 1_MSU",1,1,2023-11-16T18:28:27+00:00,6.6441929340363,9,Stim_A.csv,Read_A.csv,"Read A",Read,,,,,,0,Instruct,-,5,"In this section, you will be presented with a series of words. Please study each word carefully. Your memory will be tested! Click next to continue.",Initial_Instruct,Instruct1,,5937,,,-1,-1,,,,1
20291142,ls1ug12wht,"DRM Reactivity 1_MSU",1,2,2023-11-16T18:28:51+00:00,24.186009168625,9,Stim_A.csv,Read_A.csv,"Read A",Read,,,,,,0,Instruct,User,-,"You will now begin the study. Click next when you are ready to begin.",,Instruct16,,23781,,,-1,-1,,,,0.794
20291142,ls1ug12wht,"DRM Reactivity 1_MSU",1,3,2023-11-16T18:29:13+00:00,21.287817001343,9,Stim_A.csv,Read_A.csv,"Read A",Read,Mountain,Mountain,R1,Related,7,6,Study,User,-,,Related,R1,,20952,,,-1,-1,,,,0.815
20291142,ls1ug12wht,"DRM Reactivity 1_MSU",1,4,2023-11-16T18:29:16+00:00,3.4882979393005,9,Stim_A.csv,Read_A.csv,"Read A",Read,Cave,Cave,R1,Related,11,12,Study,User,-,,Related,R1,,3137,,,-1,-1,,,,0.625
20291142,ls1ug12wht,"DRM Reactivity 1_MSU",1,5,2023-11-16T18:29:19+00:00,3.345006942749,9,Stim_A.csv,Read_A.csv,"Read A",Read,Canyon,Canyon,R1,Related,3,7,Study,User,-,,Related,R1,,3028,,,-1,-1,,,,0.667
20291142,ls1ug12wht,"DRM Reactivity 1_MSU",1,6,2023-11-16T18:29:29+00:00,10.016983032227,9,Stim_A.csv,Read_A.csv,"Read A",Read,Lake,Lake,R1,Related,10,4,Study,User,-,,Related,R1,,9707,,,-1,-1,,,,0.333
20291142,ls1ug12wht,"DRM Reactivity 1_MSU",1,7,2023-11-16T18:29:36+00:00,6.5592629909515,9,Stim_A.csv,Read_A.csv,"Read A",Read,River,River,R1,Related,2,8,Study,User,-,,Related,R1,,6234,,,-1,-1,,,,0.484
20291142,ls1ug12wht,"DRM Reactivity 1_MSU",1,8,2023-11-16T18:29:40+00:00,3.8374528884888,9,Stim_A.csv,Read_A.csv,"Read A",Read,Rock,Rock,R1,Related,5,11,Study,User,-,,Related,R1,,3511,,,-1,-1,,,,0.611
20291142,ls1ug12wht,"DRM Reactivity 1_MSU",1,9,2023-11-16T18:29:46+00:00,6.4892780780792,9,Stim_A.csv,Read_A.csv,"Read A",Read,Hill,Hill,R1,Related,6,2,Study,User,-,,Related,R1,,6157,,,-1,-1,,,,0.407
20291142,ls1ug12wht,"DRM Reactivity 1_MSU",1,10,2023-11-16T18:29:53+00:00,6.3703451156616,9,Stim_A.csv,Read_A.csv,"Read A",Read,Island,Island,R1,Related,9,13,Study,User,-,,Related,R1,,6022,,,-1,-1,,,,0.111
20291142,ls1ug12wht,"DRM Reactivity 1_MSU",1,11,2023-11-16T18:29:59+00:00,6.0781447887421,9,Stim_A.csv,Read_A.csv,"Read A",Read,Volcano,Volcano,R1,Related,4,3,Study,User,-,,Related,R1,,5750,,,-1,-1,,,,0.231
20291142,ls1ug12wht,"DRM Reactivity 1_MSU",1,12,2023-11-16T18:30:07+00:00,8.3007941246033,9,Stim_A.csv,Read_A.csv,"Read A",Read,Glacier,Glacier,R1,Related,12,10,Study,User,-,,Related,R1,,8002,,,-1,-1,,,,0.143
20291142,ls1ug12wht,"DRM Reactivity 1_MSU",1,13,2023-11-16T18:30:15+00:00,7.9239659309387,9,Stim_A.csv,Read_A.csv,"Read A",Read,Ocean,Ocean,R1,Related,8,9,Study,User,-,,Related,R1,,7629,,,-1,-1,,,,0.643
20291142,ls1ug12wht,"DRM Reactivity 1_MSU",1,14,2023-11-16T18:30:20+00:00,5.2575261592865,9,Stim_A.csv,Read_A.csv,"Read A",Read,Valley,Valley,R1,Related,1,5,Study,User,-,,Related,R1,,4939,,,-1,-1,,,,0.16
20291142,ls1ug12wht,"DRM Reactivity 1_MSU",1,15,2023-11-16T18:30:38+00:00,18.167075872421,9,Stim_A.csv,Read_A.csv,"Read A",Read,,,,,,0,Instruct,User,3,"You will now be presented with a new study list. Click next when you are ready to begin.",,NEXT_LIST,,17860,,,-1,-1,,,,0.718
20291142,ls1ug12wht,"DRM Reactivity 1_MSU",1,16,2023-11-16T18:30:46+00:00,7.3839750289917,9,Stim_A.csv,Read_A.csv,"Read A",Read,Student,Student,U1,Unrelated,15,17,Study,User,-,,Unrelated,U1,,7061,,,-1,-1,,,,0.286
20291142,ls1ug12wht,"DRM Reactivity 1_MSU",1,17,2023-11-16T18:30:50+00:00,4.4641139507294,9,Stim_A.csv,Read_A.csv,"Read A",Read,Mayor,Mayor,U1,Unrelated,14,18,Study,User,-,,Unrelated,U1,,4136,,,-1,-1,,,,0.19
20291142,ls1ug12wht,"DRM Reactivity 1_MSU",1,18,2023-11-16T18:30:57+00:00,6.3588490486145,9,Stim_A.csv,Read_A.csv,"Read A",Read,Ballet,Ballet,U1,Unrelated,24,20,Study,User,-,,Unrelated,U1,,6027,,,-1,-1,,,,0.111
20291142,ls1ug12wht,"DRM Reactivity 1_MSU",1,19,2023-11-16T18:31:01+00:00,4.8754990100861,9,Stim_A.csv,Read_A.csv,"Read A",Read,Rifle,Rifle,U1,Unrelated,13,21,Study,User,-,,Unrelated,U1,,4539,,,-1,-1,,,,0.13
20291142,ls1ug12wht,"DRM Reactivity 1_MSU",1,20,2023-11-16T18:31:08+00:00,6.3941428661346,9,Stim_A.csv,Read_A.csv,"Read A",Read,Hockey,Hockey,U1,Unrelated,16,19,Study,User,-,,Unrelated,U1,,6072,,,-1,-1,,,,0.192
20291142,ls1ug12wht,"DRM Reactivity 1_MSU",1,21,2023-11-16T18:31:17+00:00,9.1558921337128,9,Stim_A.csv,Read_A.csv,"Read A",Read,Oxygen,Oxygen,U1,Unrelated,18,23,Study,User,-,,Unrelated,U1,,8852,,,1181,1181,,,,0.303
20291142,ls1ug12wht,"DRM Reactivity 1_MSU",1,22,2023-11-16T18:31:24+00:00,6.9726619720459,9,Stim_A.csv,Read_A.csv,"Read A",Read,Pants,Pants,U1,Unrelated,17,25,Study,User,-,,Unrelated,U1,,6633,,,1835,1836,,,,0.412
20291142,ls1ug12wht,"DRM Reactivity 1_MSU",1,23,2023-11-16T18:31:30+00:00,6.0441091060638,9,Stim_A.csv,Read_A.csv,"Read A",Read,Milk,Milk,U1,Unrelated,22,22,Study,User,-,,Unrelated,U1,,5746,,,-1,-1,,,,0.345
20291142,ls1ug12wht,"DRM Reactivity 1_MSU",1,24,2023-11-16T18:31:34+00:00,4.2471358776093,9,Stim_A.csv,Read_A.csv,"Read A",Read,Jeep,Jeep,U1,Unrelated,23,14,Study,User,-,,Unrelated,U1,,3906,,,-1,-1,,,,0.15
20291142,ls1ug12wht,"DRM Reactivity 1_MSU",1,25,2023-11-16T18:31:42+00:00,8.056499004364,9,Stim_A.csv,Read_A.csv,"Read A",Read,Dollar,Dollar,U1,Unrelated,20,24,Study,User,-,,Unrelated,U1,,7715,,,-1,-1,,,,0.3
20291142,ls1ug12wht,"DRM Reactivity 1_MSU",1,26,2023-11-16T18:31:49+00:00,6.1931669712067,9,Stim_A.csv,Read_A.csv,"Read A",Read,Parrot,Parrot,U1,Unrelated,21,15,Study,User,-,,Unrelated,U1,,5852,,,-1,-1,,,,0.379
20291142,ls1ug12wht,"DRM Reactivity 1_MSU",1,27,2023-11-16T18:31:55+00:00,6.0448679924011,9,Stim_A.csv,Read_A.csv,"Read A",Read,Guitar,Guitar,U1,Unrelated,19,16,Study,User,-,,Unrelated,U1,,5709,,,-1,-1,,,,0.115
20291142,ls1ug12wht,"DRM Reactivity 1_MSU",1,28,2023-11-16T18:32:00+00:00,5.0896019935608,9,Stim_A.csv,Read_A.csv,"Read A",Read,,,,,,0,Instruct,User,3,"You will now be presented with a new study list. Click next when you are ready to begin.",,NEXT_LIST,,4513,,,-1,-1,,,,1
20291142,ls1ug12wht,"DRM Reactivity 1_MSU",1,29,2023-11-16T18:32:09+00:00,8.9776041507721,9,Stim_A.csv,Read_A.csv,"Read A",Read,Girraffe,Girraffe,R2,Related,31,30,Study,User,-,,Related,R2,,8650,,,-1,-1,,,,0.194
20291142,ls1ug12wht,"DRM Reactivity 1_MSU",1,30,2023-11-16T18:32:13+00:00,4.739953994751,9,Stim_A.csv,Read_A.csv,"Read A",Read,Cow,Cow,R2,Related,36,35,Study,User,-,,Related,R2,,4416,,,-1,-1,,,,0.273
20291142,ls1ug12wht,"DRM Reactivity 1_MSU",1,31,2023-11-16T18:32:17+00:00,3.7500488758087,9,Stim_A.csv,Read_A.csv,"Read A",Read,Lion,Lion,R2,Related,26,37,Study,User,-,,Related,R2,,3440,,,-1,-1,,,,0.118
20291142,ls1ug12wht,"DRM Reactivity 1_MSU",1,32,2023-11-16T18:32:24+00:00,6.7500841617584,9,Stim_A.csv,Read_A.csv,"Read A",Read,Zebra,Zebra,R2,Related,27,26,Study,User,-,,Related,R2,,6425,,,-1,-1,,,,0.222
20291142,ls1ug12wht,"DRM Reactivity 1_MSU",1,33,2023-11-16T18:32:33+00:00,8.9159479141235,9,Stim_A.csv,Read_A.csv,"Read A",Read,Elephant,Elephant,R2,Related,32,33,Study,User,-,,Related,R2,,8631,,,1410,3107,,,,0.647
20291142,ls1ug12wht,"DRM Reactivity 1_MSU",1,34,2023-11-16T18:32:38+00:00,5.2784259319305,9,Stim_A.csv,Read_A.csv,"Read A",Read,Cat,Cat,R2,Related,33,34,Study,User,-,,Related,R2,,4967,,,-1,-1,,,,0.2
20291142,ls1ug12wht,"DRM Reactivity 1_MSU",1,35,2023-11-16T18:32:43+00:00,4.6857581138611,9,Stim_A.csv,Read_A.csv,"Read A",Read,Donkey,Donkey,R2,Related,34,36,Study,User,-,,Related,R2,,4383,,,-1,-1,,,,0.227
20291142,ls1ug12wht,"DRM Reactivity 1_MSU",1,36,2023-11-16T18:32:48+00:00,5.1295750141144,9,Stim_A.csv,Read_A.csv,"Read A",Read,Wolf,Wolf,R2,Related,29,31,Study,User,-,,Related,R2,,4791,,,-1,-1,,,,0.125
20291142,ls1ug12wht,"DRM Reactivity 1_MSU",1,37,2023-11-16T18:32:53+00:00,5.0669469833374,9,Stim_A.csv,Read_A.csv,"Read A",Read,Bear,Bear,R2,Related,35,29,Study,User,-,,Related,R2,,4754,,,-1,-1,,,,0.125
20291142,ls1ug12wht,"DRM Reactivity 1_MSU",1,38,2023-11-16T18:33:04+00:00,11.163300037384,9,Stim_A.csv,Read_A.csv,"Read A",Read,Tiger,Tiger,R2,Related,25,32,Study,User,-,,Related,R2,,10831,,,-1,-1,,,,0.242
20291142,ls1ug12wht,"DRM Reactivity 1_MSU",1,39,2023-11-16T18:33:08+00:00,4.3025949001312,9,Stim_A.csv,Read_A.csv,"Read A",Read,Goat,Goat,R2,Related,30,27,Study,User,-,,Related,R2,,3967,,,-1,-1,,,,0.05
20291142,ls1ug12wht,"DRM Reactivity 1_MSU",1,40,2023-11-16T18:33:14+00:00,5.7281789779663,9,Stim_A.csv,Read_A.csv,"Read A",Read,Cheetah,Cheetah,R2,Related,28,28,Study,User,-,,Related,R2,,5419,,,-1,-1,,,,0.222
20291142,ls1ug12wht,"DRM Reactivity 1_MSU",1,41,2023-11-16T18:37:46+00:00,271.446819067,9,Stim_A.csv,Read_A.csv,"Read A",Read,,,,,,0,Instruct,User,3,"You will now be presented with a new study list. Click next when you are ready to begin.",,NEXT_LIST,,271071,,,-1,-1,,,,1
20291142,ls1ug12wht,"DRM Reactivity 1_MSU",1,42,2023-11-16T18:37:52+00:00,6.2900159358978,9,Stim_A.csv,Read_A.csv,"Read A",Read,Blue,Blue,U2,Unrelated,41,49,Study,User,-,,Unrelated,U2,,6077,,,-1,-1,,,,0.387
20291142,ls1ug12wht,"DRM Reactivity 1_MSU",1,43,2023-11-16T18:37:59+00:00,7.1461250782013,9,Stim_A.csv,Read_A.csv,"Read A",Read,Fly,Fly,U2,Unrelated,38,42,Study,User,-,,Unrelated,U2,,6908,,,-1,-1,,,,0.171
20291142,ls1ug12wht,"DRM Reactivity 1_MSU",1,44,2023-11-16T18:38:05+00:00,5.7245218753815,9,Stim_A.csv,Read_A.csv,"Read A",Read,Viper,Viper,U2,Unrelated,44,44,Study,User,-,,Unrelated,U2,,5502,,,886,886,,,,0.429
20291142,ls1ug12wht,"DRM Reactivity 1_MSU",1,45,2023-11-16T18:38:15+00:00,10.684632062912,9,Stim_A.csv,Read_A.csv,"Read A",Read,Shark,Shark,U2,Unrelated,43,40,Study,User,-,,Unrelated,U2,,10462,,,-1,-1,,,,0.189
20291142,ls1ug12wht,"DRM Reactivity 1_MSU",1,46,2023-11-16T18:38:25+00:00,9.1627779006958,9,Stim_A.csv,Read_A.csv,"Read A",Read,Lipstick,Lipstick,U2,Unrelated,46,38,Study,User,-,,Unrelated,U2,,8951,,,-1,-1,,,,0.111
20291142,ls1ug12wht,"DRM Reactivity 1_MSU",1,47,2023-11-16T18:38:30+00:00,5.8892450332642,9,Stim_A.csv,Read_A.csv,"Read A",Read,Eye,Eye,U2,Unrelated,48,47,Study,User,-,,Unrelated,U2,,5675,,,-1,-1,,,,0.207
20291142,ls1ug12wht,"DRM Reactivity 1_MSU",1,48,2023-11-16T18:38:40+00:00,9.2695081233978,9,Stim_A.csv,Read_A.csv,"Read A",Read,Sandal,Sandal,U2,Unrelated,37,39,Study,User,-,,Unrelated,U2,,9054,,,-1,-1,,,,0.13
20291142,ls1ug12wht,"DRM Reactivity 1_MSU",1,49,2023-11-16T18:38:43+00:00,3.0006649494171,9,Stim_A.csv,Read_A.csv,"Read A",Read,Tulip,Tulip,U2,Unrelated,39,41,Study,User,-,,Unrelated,U2,,2779,,,-1,-1,,,,1
20291142,ls1ug12wht,"DRM Reactivity 1_MSU",1,50,2023-11-16T18:38:56+00:00,13.051742076874,9,Stim_A.csv,Read_A.csv,"Read A",Read,Cold,Cold,U2,Unrelated,40,43,Study,User,-,,Unrelated,U2,,12798,,,-1,-1,,,,0.281
20291142,ls1ug12wht,"DRM Reactivity 1_MSU",1,51,2023-11-16T18:39:01+00:00,5.3684849739075,9,Stim_A.csv,Read_A.csv,"Read A",Read,Tea,Tea,U2,Unrelated,45,48,Study,User,-,,Unrelated,U2,,5145,,,-1,-1,,,,0.192
20291142,ls1ug12wht,"DRM Reactivity 1_MSU",1,52,2023-11-16T18:39:02+00:00,0.93656086921692,9,Stim_A.csv,Read_A.csv,"Read A",Read,Computer,Computer,U2,Unrelated,47,46,Study,User,-,,Unrelated,U2,,701,,,-1,-1,,,,1
20291142,ls1ug12wht,"DRM Reactivity 1_MSU",1,53,2023-11-16T18:39:12+00:00,9.804267168045,9,Stim_A.csv,Read_A.csv,"Read A",Read,Cruise,Cruise,U2,Unrelated,42,45,Study,User,-,,Unrelated,U2,,9577,,,-1,-1,,,,0.146
20291142,ls1ug12wht,"DRM Reactivity 1_MSU",1,54,2023-11-16T18:39:14+00:00,2.1383509635925,9,Stim_A.csv,Read_A.csv,"Read A",Read,,,,,,0,Instruct,User,-,"You have completed this section. Please click next.",,Instruct166,,1924,,,-1,-1,,,,1
20291142,ls1ug12wht,"DRM Reactivity 1_MSU",1,55,2023-11-16T18:41:14+00:00,120.21017694473,9,Stim_A.csv,Read_A.csv,"Read A",Read,,,,,,0,FreeRecall,120,120,"Please list the 50 US States in alphabetical order. The computer will automatically advance to the next screen in 2 minutes.",,FILLER,,120001,"Alabama Alaska Arkansas California Colorado Connecticut Delaware Florida Georgia Hawaii Idaho Illinois Indiana Iowa Kansas Kentucky Louisiana Maine Maryland Massachusetts Michigan Minnesota Mississippi Missouri Montana Nebraska Nevada New Hampshire New jersey ",0,28948,118929,0,0,,0.878
20291142,ls1ug12wht,"DRM Reactivity 1_MSU",1,56,2023-11-16T18:41:19+00:00,4.3745319843292,9,Stim_A.csv,Read_A.csv,"Read A",Read,,,,,,0,Instruct,User,-,"You have completed this section. Please click next.",,Instruct166,,4078,,,-1,-1,,,,0.75
20291142,ls1ug12wht,"DRM Reactivity 1_MSU",1,57,2023-11-16T18:41:31+00:00,11.85689496994,9,Stim_A.csv,Read_A.csv,"Read A",Read,,,,,,0,Instruct,User,10,"Your memory will now be tested. You will be presented with a series of words. If the word on the screen was previously studied, please select YES. If the word was not studied, select NO. PLEASE DO NOT SKIP ITEMS! Click next when you are ready to begin.",,,,11639,,,-1,-1,,,,1
20291142,ls1ug12wht,"DRM Reactivity 1_MSU",1,58,2023-11-16T18:42:08+00:00,37.911509037018,9,Stim_A.csv,Read_A.csv,"Read A",Read,Orange,Orange,Recog,Control,50,133,Likert,User,1,"Was this item previously studied?","Critical Lure Control",Recog,1::2,37676,NO,25,-1,-1,0,0,,0.328
20291142,ls1ug12wht,"DRM Reactivity 1_MSU",1,59,2023-11-16T18:42:16+00:00,7.1949899196625,9,Stim_A.csv,Read_A.csv,"Read A",Read,Mint,Mint,Recog,Control,65,94,Likert,User,1,"Was this item previously studied?","List Item Control",Recog,1::2,6755,NO,33.333333333333,-1,-1,0,0,,0.529
20291142,ls1ug12wht,"DRM Reactivity 1_MSU",1,60,2023-11-16T18:42:18+00:00,2.2772800922394,9,Stim_A.csv,Read_A.csv,"Read A",Read,Frog,Frog,Recog,Control,61,119,Likert,User,1,"Was this item previously studied?","List Item Control",Recog,1::2,2050,NO,33.333333333333,-1,-1,0,0,,1
20291142,ls1ug12wht,"DRM Reactivity 1_MSU",1,61,2023-11-16T18:42:20+00:00,2.5311920642853,9,Stim_A.csv,Read_A.csv,"Read A",Read,Wolf,Wolf,Recog,Presented,125,60,Likert,User,1,"Was this item previously studied?","List Item Standard F",Recog,1::2,2311,YES,0,-1,-1,0,0,,1
20291142,ls1ug12wht,"DRM Reactivity 1_MSU",1,62,2023-11-16T18:42:27+00:00,6.7117178440094,9,Stim_A.csv,Read_A.csv,"Read A",Read,Flute,Flute,Recog,Control,86,54,Likert,User,1,"Was this item previously studied?","List Item Standard F",Recog,1::2,6482,NO,0,-1,-1,0,0,,0.485
20291142,ls1ug12wht,"DRM Reactivity 1_MSU",1,63,2023-11-16T18:42:29+00:00,2.2675361633301,9,Stim_A.csv,Read_A.csv,"Read A",Read,Cow,Cow,Recog,Presented,132,110,Likert,User,1,"Was this item previously studied?","List Item Control",Recog,1::2,2037,YES,0,-1,-1,0,0,,1
20291142,ls1ug12wht,"DRM Reactivity 1_MSU",1,64,2023-11-16T18:42:31+00:00,1.904091835022,9,Stim_A.csv,Read_A.csv,"Read A",Read,Cheetah,Cheetah,Recog,Presented,124,72,Likert,User,1,"Was this item previously studied?","List Item Standard F",Recog,1::2,1691,YES,20,-1,-1,0,0,,1
20291142,ls1ug12wht,"DRM Reactivity 1_MSU",1,65,2023-11-16T18:42:34+00:00,2.5877890586853,9,Stim_A.csv,Read_A.csv,"Read A",Read,Roof,Roof,Recog,Control,84,136,Likert,User,1,"Was this item previously studied?","Critical Lure Control",Recog,1::2,2363,NO,33.333333333333,-1,-1,0,0,,1
20291142,ls1ug12wht,"DRM Reactivity 1_MSU",1,66,2023-11-16T18:42:36+00:00,2.0827920436859,9,Stim_A.csv,Read_A.csv,"Read A",Read,Flea,Flea,Recog,Control,69,99,Likert,User,1,"Was this item previously studied?","List Item Control",Recog,1::2,1847,NO,0,-1,-1,0,0,,1
20291142,ls1ug12wht,"DRM Reactivity 1_MSU",1,67,2023-11-16T18:42:38+00:00,1.9939410686493,9,Stim_A.csv,Read_A.csv,"Read A",Read,Girraffe,Girraffe,Recog,Presented,127,55,Likert,User,1,"Was this item previously studied?","List Item Standard F",Recog,1::2,1771,YES,18.181818181818,-1,-1,0,0,,1
20291142,ls1ug12wht,"DRM Reactivity 1_MSU",1,68,2023-11-16T18:42:43+00:00,4.7069938182831,9,Stim_A.csv,Read_A.csv,"Read A",Read,Eye,Eye,Recog,Presented,144,114,Likert,User,1,"Was this item previously studied?","List Item Control",Recog,1::2,4479,YES,66.666666666667,-1,-1,0,0,,0.652
20291142,ls1ug12wht,"DRM Reactivity 1_MSU",1,69,2023-11-16T18:42:49+00:00,6.4249119758606,9,Stim_A.csv,Read_A.csv,"Read A",Read,Cat,Cat,Recog,Presented,129,56,Likert,User,1,"Was this item previously studied?","List Item Sans F",Recog,1::2,6186,YES,0,-1,-1,0,0,,0.613
20291142,ls1ug12wht,"DRM Reactivity 1_MSU",1,70,2023-11-16T18:43:08+00:00,18.750678062439,9,Stim_A.csv,Read_A.csv,"Read A",Read,Elevator,Elevator,Recog,Control,81,70,Likert,User,1,"Was this item previously studied?","List Item Sans F",Recog,1::2,18519,NO,20,-1,-1,0,0,,0.118
20291142,ls1ug12wht,"DRM Reactivity 1_MSU",1,71,2023-11-16T18:43:10+00:00,1.9902789592743,9,Stim_A.csv,Read_A.csv,"Read A",Read,Volcano,Volcano,Recog,Presented,100,113,Likert,User,1,"Was this item previously studied?","List Item Control",Recog,1::2,1772,YES,0,-1,-1,0,0,,1
20291142,ls1ug12wht,"DRM Reactivity 1_MSU",1,72,2023-11-16T18:43:13+00:00,2.7006220817566,9,Stim_A.csv,Read_A.csv,"Read A",Read,Sandal,Sandal,Recog,Presented,133,67,Likert,User,1,"Was this item previously studied?","List Item Standard F",Recog,1::2,2460,YES,22.222222222222,-1,-1,0,0,,1
20291142,ls1ug12wht,"DRM Reactivity 1_MSU",1,73,2023-11-16T18:43:14+00:00,1.8594150543213,9,Stim_A.csv,Read_A.csv,"Read A",Read,Milk,Milk,Recog,Presented,118,137,Likert,User,1,"Was this item previously studied?","Critical Lure Control",Recog,1::2,1637,YES,0,-1,-1,0,0,,1
20291142,ls1ug12wht,"DRM Reactivity 1_MSU",1,74,2023-11-16T18:43:17+00:00,2.3136239051819,9,Stim_A.csv,Read_A.csv,"Read A",Read,Attic,Attic,Recog,Control,82,128,Likert,User,1,"Was this item previously studied?","Critical Lure Control",Recog,1::2,2093,NO,0,-1,-1,0,0,,1
20291142,ls1ug12wht,"DRM Reactivity 1_MSU",1,75,2023-11-16T18:43:19+00:00,2.3112170696259,9,Stim_A.csv,Read_A.csv,"Read A",Read,Elephant,Elephant,Recog,Presented,128,66,Likert,User,1,"Was this item previously studied?","List Item Standard F",Recog,1::2,2101,YES,18.181818181818,-1,-1,0,0,,1
20291142,ls1ug12wht,"DRM Reactivity 1_MSU",1,76,2023-11-16T18:43:21+00:00,2.3074519634247,9,Stim_A.csv,Read_A.csv,"Read A",Read,Guitar,Guitar,Recog,Presented,115,143,Likert,User,1,"Was this item previously studied?","Critical Lure Control",Recog,1::2,2087,YES,0,-1,-1,0,0,,1
20291142,ls1ug12wht,"DRM Reactivity 1_MSU",1,77,2023-11-16T18:43:24+00:00,2.2683289051056,9,Stim_A.csv,Read_A.csv,"Read A",Read,Hawk,Hawk,Recog,Control,72,53,Likert,User,1,"Was this item previously studied?","List Item Standard F",Recog,1::2,2043,NO,0,-1,-1,0,0,,1
20291142,ls1ug12wht,"DRM Reactivity 1_MSU",1,78,2023-11-16T18:43:25+00:00,1.8106970787048,9,Stim_A.csv,Read_A.csv,"Read A",Read,Ocean,Ocean,Recog,Presented,104,59,Likert,User,1,"Was this item previously studied?","List Item Standard F",Recog,1::2,1598,YES,25,-1,-1,0,0,,1
20291142,ls1ug12wht,"DRM Reactivity 1_MSU",1,79,2023-11-16T18:43:28+00:00,2.4970049858093,9,Stim_A.csv,Read_A.csv,"Read A",Read,Pants,Pants,Recog,Presented,113,64,Likert,User,1,"Was this item previously studied?","List Item Sans F",Recog,1::2,2276,YES,25,-1,-1,0,0,,1
20291142,ls1ug12wht,"DRM Reactivity 1_MSU",1,80,2023-11-16T18:43:30+00:00,2.209331035614,9,Stim_A.csv,Read_A.csv,"Read A",Read,Hockey,Hockey,Recog,Presented,112,98,Likert,User,1,"Was this item previously studied?","List Item Control",Recog,1::2,1968,YES,22.222222222222,-1,-1,0,0,,1
20291142,ls1ug12wht,"DRM Reactivity 1_MSU",1,81,2023-11-16T18:43:33+00:00,3.0547420978546,9,Stim_A.csv,Read_A.csv,"Read A",Read,Shirt,Shirt,Recog,Control,66,50,Likert,User,1,"Was this item previously studied?","List Item Sans F",Recog,1::2,2844,NO,0,-1,-1,0,0,,1
20291142,ls1ug12wht,"DRM Reactivity 1_MSU",1,82,2023-11-16T18:43:35+00:00,2.2353608608246,9,Stim_A.csv,Read_A.csv,"Read A",Read,Tiger,Tiger,Recog,Presented,121,57,Likert,User,1,"Was this item previously studied?","List Item Sans F",Recog,1::2,2021,YES,25,-1,-1,0,0,,1
20291142,ls1ug12wht,"DRM Reactivity 1_MSU",1,83,2023-11-16T18:43:37+00:00,1.8493530750275,9,Stim_A.csv,Read_A.csv,"Read A",Read,Viper,Viper,Recog,Presented,140,138,Likert,User,1,"Was this item previously studied?","Critical Lure Control",Recog,1::2,1628,YES,25,-1,-1,0,0,,1
20291142,ls1ug12wht,"DRM Reactivity 1_MSU",1,84,2023-11-16T18:43:40+00:00,2.2987840175629,9,Stim_A.csv,Read_A.csv,"Read A",Read,Peach,Peach,Recog,Control,54,142,Likert,User,1,"Was this item previously studied?","Critical Lure Control",Recog,1::2,2047,NO,0,-1,-1,0,0,,1
20291142,ls1ug12wht,"DRM Reactivity 1_MSU",1,85,2023-11-16T18:43:49+00:00,9.7251780033112,9,Stim_A.csv,Read_A.csv,"Read A",Read,Cloud,Cloud,Recog,Control,88,88,Likert,User,1,"Was this item previously studied?","Critical Lure Sans F",Recog,1::2,9499,NO,28.571428571429,-1,-1,0,0,,0.208
20291142,ls1ug12wht,"DRM Reactivity 1_MSU",1,86,2023-11-16T18:43:51+00:00,2.2183539867401,9,Stim_A.csv,Read_A.csv,"Read A",Read,Drill,Drill,Recog,Control,93,51,Likert,User,1,"Was this item previously studied?","List Item Sans F",Recog,1::2,1979,NO,0,-1,-1,0,0,,1
20291142,ls1ug12wht,"DRM Reactivity 1_MSU",1,87,2023-11-16T18:43:59+00:00,7.1357619762421,9,Stim_A.csv,Read_A.csv,"Read A",Read,Blue,Blue,Recog,Presented,137,135,Likert,User,1,"Was this item previously studied?","Critical Lure Control",Recog,1::2,6884,YES,28.571428571429,-1,-1,0,0,,0.314
20291142,ls1ug12wht,"DRM Reactivity 1_MSU",1,88,2023-11-16T18:44:01+00:00,2.256637096405,9,Stim_A.csv,Read_A.csv,"Read A",Read,Tent,Tent,Recog,Control,94,141,Likert,User,1,"Was this item previously studied?","Critical Lure Control",Recog,1::2,2041,NO,33.333333333333,-1,-1,0,0,,1
20291142,ls1ug12wht,"DRM Reactivity 1_MSU",1,89,2023-11-16T18:44:12+00:00,10.67126083374,9,Stim_A.csv,Read_A.csv,"Read A",Read,Cold,Cold,Recog,Presented,136,139,Likert,User,1,"Was this item previously studied?","Critical Lure Control",Recog,1::2,10446,YES,0,-1,-1,0,0,,0.358
20291142,ls1ug12wht,"DRM Reactivity 1_MSU",1,90,2023-11-16T18:44:15+00:00,3.1102831363678,9,Stim_A.csv,Read_A.csv,"Read A",Read,Ceiling,Ceiling,Recog,Control,73,95,Likert,User,1,"Was this item previously studied?","List Item Control",Recog,1::2,2888,NO,22.222222222222,-1,-1,0,0,,1
20291142,ls1ug12wht,"DRM Reactivity 1_MSU",1,91,2023-11-16T18:44:17+00:00,2.1194958686829,9,Stim_A.csv,Read_A.csv,"Read A",Read,Lemon,Lemon,Recog,Control,60,144,Likert,User,1,"Was this item previously studied?","Critical Lure Control",Recog,1::2,1888,NO,28.571428571429,-1,-1,0,0,,1
20291142,ls1ug12wht,"DRM Reactivity 1_MSU",1,92,2023-11-16T18:44:19+00:00,2.1998629570007,9,Stim_A.csv,Read_A.csv,"Read A",Read,Basement,Basement,Recog,Control,74,75,Likert,User,1,"Was this item previously studied?","List Item Sans F",Recog,1::2,1986,NO,20,-1,-1,0,0,,1
20291142,ls1ug12wht,"DRM Reactivity 1_MSU",1,93,2023-11-16T18:44:26+00:00,7.0400030612946,9,Stim_A.csv,Read_A.csv,"Read A",Read,Dollar,Dollar,Recog,Presented,116,73,Likert,User,1,"Was this item previously studied?","List Item Standard F",Recog,1::2,6812,YES,0,-1,-1,0,0,,0.429
20291142,ls1ug12wht,"DRM Reactivity 1_MSU",1,94,2023-11-16T18:44:30+00:00,3.8606481552124,9,Stim_A.csv,Read_A.csv,"Read A",Read,Banana,Banana,Recog,Control,51,52,Likert,User,1,"Was this item previously studied?","List Item Sans F",Recog,1::2,3629,NO,25,-1,-1,0,0,,0.632
20291142,ls1ug12wht,"DRM Reactivity 1_MSU",1,95,2023-11-16T18:44:36+00:00,5.9129128456116,9,Stim_A.csv,Read_A.csv,"Read A",Read,Zebra,Zebra,Recog,Presented,123,108,Likert,User,1,"Was this item previously studied?","List Item Control",Recog,1::2,5677,YES,25,-1,-1,0,0,,1
20291142,ls1ug12wht,"DRM Reactivity 1_MSU",1,96,2023-11-16T18:44:39+00:00,2.8157210350037,9,Stim_A.csv,Read_A.csv,"Read A",Read,Bear,Bear,Recog,Presented,131,120,Likert,User,1,"Was this item previously studied?","Critical Lure Control",Recog,1::2,2581,YES,28.571428571429,-1,-1,0,0,,1
20291142,ls1ug12wht,"DRM Reactivity 1_MSU",1,97,2023-11-16T18:44:46+00:00,7.8304560184479,9,Stim_A.csv,Read_A.csv,"Read A",Read,Kayak,Kayak,Recog,Control,68,86,Likert,User,1,"Was this item previously studied?","Critical Lure Sans F",Recog,1::2,7591,NO,0,-1,-1,0,0,,0.421
20291142,ls1ug12wht,"DRM Reactivity 1_MSU",1,98,2023-11-16T18:44:49+00:00,2.2509610652924,9,Stim_A.csv,Read_A.csv,"Read A",Read,Island,Island,Recog,Presented,105,129,Likert,User,1,"Was this item previously studied?","Critical Lure Control",Recog,1::2,2017,YES,22.222222222222,-1,-1,0,0,,1
20291142,ls1ug12wht,"DRM Reactivity 1_MSU",1,99,2023-11-16T18:45:00+00:00,11.369021892548,9,Stim_A.csv,Read_A.csv,"Read A",Read,Lake,Lake,Recog,Presented,106,118,Likert,User,1,"Was this item previously studied?","List Item Control",Recog,1::2,11126,YES,28.571428571429,-1,-1,0,0,,0.589
20291142,ls1ug12wht,"DRM Reactivity 1_MSU",1,100,2023-11-16T18:45:03+00:00,2.6182200908661,9,Stim_A.csv,Read_A.csv,"Read A",Read,Document,Document,Recog,Control,63,126,Likert,User,1,"Was this item previously studied?","Critical Lure Control",Recog,1::2,2377,NO,20,-1,-1,0,0,,1
20291142,ls1ug12wht,"DRM Reactivity 1_MSU",1,101,2023-11-16T18:45:05+00:00,2.5193309783936,9,Stim_A.csv,Read_A.csv,"Read A",Read,Hill,Hill,Recog,Presented,102,107,Likert,User,1,"Was this item previously studied?","List Item Control",Recog,1::2,2279,YES,0,-1,-1,0,0,,1
20291142,ls1ug12wht,"DRM Reactivity 1_MSU",1,102,2023-11-16T18:45:12+00:00,6.9469199180603,9,Stim_A.csv,Read_A.csv,"Read A",Read,Computer,Computer,Recog,Presented,143,134,Likert,User,1,"Was this item previously studied?","Critical Lure Control",Recog,1::2,6718,YES,18.181818181818,-1,-1,0,0,,0.5
20291142,ls1ug12wht,"DRM Reactivity 1_MSU",1,103,2023-11-16T18:45:14+00:00,2.310821056366,9,Stim_A.csv,Read_A.csv,"Read A",Read,Donkey,Donkey,Recog,Presented,130,81,Likert,User,1,"Was this item previously studied?","Critical Lure Standard F",Recog,1::2,2097,YES,22.222222222222,-1,-1,0,0,,1
20291142,ls1ug12wht,"DRM Reactivity 1_MSU",1,104,2023-11-16T18:45:17+00:00,2.4226870536804,9,Stim_A.csv,Read_A.csv,"Read A",Read,Apple,Apple,Recog,Control,49,97,Likert,User,1,"Was this item previously studied?","List Item Control",Recog,1::2,2216,NO,0,-1,-1,0,0,,1
20291142,ls1ug12wht,"DRM Reactivity 1_MSU",1,105,2023-11-16T18:45:19+00:00,2.5681028366089,9,Stim_A.csv,Read_A.csv,"Read A",Read,Goat,Goat,Recog,Presented,126,124,Likert,User,1,"Was this item previously studied?","Critical Lure Control",Recog,1::2,2321,YES,0,-1,-1,0,0,,1
20291142,ls1ug12wht,"DRM Reactivity 1_MSU",1,106,2023-11-16T18:45:22+00:00,2.4673562049866,9,Stim_A.csv,Read_A.csv,"Read A",Read,Salt,Salt,Recog,Control,87,79,Likert,User,1,"Was this item previously studied?","List Item Standard F",Recog,1::2,2244,NO,0,-1,-1,0,0,,1
20291142,ls1ug12wht,"DRM Reactivity 1_MSU",1,107,2023-11-16T18:45:24+00:00,2.024505853653,9,Stim_A.csv,Read_A.csv,"Read A",Read,Canyon,Canyon,Recog,Presented,99,121,Likert,User,1,"Was this item previously studied?","Critical Lure Control",Recog,1::2,1816,YES,22.222222222222,-1,-1,0,0,,1
20291142,ls1ug12wht,"DRM Reactivity 1_MSU",1,108,2023-11-16T18:45:26+00:00,2.2135751247406,9,Stim_A.csv,Read_A.csv,"Read A",Read,Rock,Rock,Recog,Presented,101,74,Likert,User,1,"Was this item previously studied?","List Item Sans F",Recog,1::2,1985,YES,0,-1,-1,0,0,,1
20291142,ls1ug12wht,"DRM Reactivity 1_MSU",1,109,2023-11-16T18:45:29+00:00,2.5876128673553,9,Stim_A.csv,Read_A.csv,"Read A",Read,Yellow,Yellow,Recog,Control,67,100,Likert,User,1,"Was this item previously studied?","List Item Control",Recog,1::2,2366,NO,25,-1,-1,0,0,,1
20291142,ls1ug12wht,"DRM Reactivity 1_MSU",1,110,2023-11-16T18:45:31+00:00,1.9653561115265,9,Stim_A.csv,Read_A.csv,"Read A",Read,Mayor,Mayor,Recog,Presented,110,93,Likert,User,1,"Was this item previously studied?","List Item Control",Recog,1::2,1745,YES,25,-1,-1,0,0,,1
20291142,ls1ug12wht,"DRM Reactivity 1_MSU",1,111,2023-11-16T18:45:33+00:00,1.9880268573761,9,Stim_A.csv,Read_A.csv,"Read A",Read,Pear,Pear,Recog,Control,53,102,Likert,User,1,"Was this item previously studied?","List Item Control",Recog,1::2,1773,NO,0,-1,-1,0,0,,1
20291142,ls1ug12wht,"DRM Reactivity 1_MSU",1,112,2023-11-16T18:45:49+00:00,16.288688182831,9,Stim_A.csv,Read_A.csv,"Read A",Read,Window,Window,Recog,Control,76,109,Likert,User,1,"Was this item previously studied?","List Item Control",Recog,1::2,16067,NO,50,-1,-1,0,0,,0.21
20291142,ls1ug12wht,"DRM Reactivity 1_MSU",1,113,2023-11-16T18:45:56+00:00,6.6071228981018,9,Stim_A.csv,Read_A.csv,"Read A",Read,Door,Door,Recog,Control,78,125,Likert,User,1,"Was this item previously studied?","Critical Lure Control",Recog,1::2,6381,NO,33.333333333333,-1,-1,0,0,,0.531
20291142,ls1ug12wht,"DRM Reactivity 1_MSU",1,114,2023-11-16T18:45:58+00:00,2.2252960205078,9,Stim_A.csv,Read_A.csv,"Read A",Read,Strawberry,Strawberry,Recog,Control,55,117,Likert,User,1,"Was this item previously studied?","List Item Control",Recog,1::2,2008,NO,0,-1,-1,0,0,,1
20291142,ls1ug12wht,"DRM Reactivity 1_MSU",1,115,2023-11-16T18:46:00+00:00,2.4581599235535,9,Stim_A.csv,Read_A.csv,"Read A",Read,Lion,Lion,Recog,Presented,122,62,Likert,User,1,"Was this item previously studied?","List Item Sans F",Recog,1::2,2254,YES,0,-1,-1,0,0,,1
20291142,ls1ug12wht,"DRM Reactivity 1_MSU",1,116,2023-11-16T18:46:03+00:00,2.2930109500885,9,Stim_A.csv,Read_A.csv,"Read A",Read,Glacier,Glacier,Recog,Presented,108,106,Likert,User,1,"Was this item previously studied?","List Item Control",Recog,1::2,2074,YES,20,-1,-1,0,0,,1
20291142,ls1ug12wht,"DRM Reactivity 1_MSU",1,117,2023-11-16T18:46:06+00:00,3.0240111351013,9,Stim_A.csv,Read_A.csv,"Read A",Read,Cherry,Cherry,Recog,Control,59,61,Likert,User,1,"Was this item previously studied?","List Item Standard F",Recog,1::2,2812,NO,0,-1,-1,0,0,,1
20291142,ls1ug12wht,"DRM Reactivity 1_MSU",1,118,2023-11-16T18:46:08+00:00,2.3018670082092,9,Stim_A.csv,Read_A.csv,"Read A",Read,Valley,Valley,Recog,Presented,97,68,Likert,User,1,"Was this item previously studied?","List Item Sans F",Recog,1::2,2068,YES,22.222222222222,-1,-1,0,0,,1
20291142,ls1ug12wht,"DRM Reactivity 1_MSU",1,119,2023-11-16T18:46:10+00:00,2.530200958252,9,Stim_A.csv,Read_A.csv,"Read A",Read,Plum,Plum,Recog,Control,57,131,Likert,User,1,"Was this item previously studied?","Critical Lure Control",Recog,1::2,2315,NO,0,-1,-1,0,0,,1
20291142,ls1ug12wht,"DRM Reactivity 1_MSU",1,120,2023-11-16T18:46:14+00:00,3.5477619171143,9,Stim_A.csv,Read_A.csv,"Read A",Read,Slow,Slow,Recog,Control,71,83,Likert,User,1,"Was this item previously studied?","Critical Lure Standard F",Recog,1::2,3307,NO,33.333333333333,-1,-1,0,0,,1
20291142,ls1ug12wht,"DRM Reactivity 1_MSU",1,121,2023-11-16T18:46:32+00:00,17.982980012894,9,Stim_A.csv,Read_A.csv,"Read A",Read,Ballet,Ballet,Recog,Presented,120,122,Likert,User,1,"Was this item previously studied?","Critical Lure Control",Recog,1::2,17746,YES,22.222222222222,-1,-1,0,0,,0.09
20291142,ls1ug12wht,"DRM Reactivity 1_MSU",1,122,2023-11-16T18:46:34+00:00,2.3536720275879,9,Stim_A.csv,Read_A.csv,"Read A",Read,Bean,Bean,Recog,Control,70,105,Likert,User,1,"Was this item previously studied?","List Item Control",Recog,1::2,2122,NO,33.333333333333,-1,-1,0,0,,1
20291142,ls1ug12wht,"DRM Reactivity 1_MSU",1,123,2023-11-16T18:46:41+00:00,6.5345940589905,9,Stim_A.csv,Read_A.csv,"Read A",Read,Shark,Shark,Recog,Presented,139,65,Likert,User,1,"Was this item previously studied?","List Item Standard F",Recog,1::2,6306,YES,25,-1,-1,0,0,,0.469
20291142,ls1ug12wht,"DRM Reactivity 1_MSU",1,124,2023-11-16T18:46:48+00:00,6.7206509113312,9,Stim_A.csv,Read_A.csv,"Read A",Read,Stairs,Stairs,Recog,Control,80,87,Likert,User,1,"Was this item previously studied?","Critical Lure Standard F",Recog,1::2,6486,NO,0,-1,-1,0,0,,0.485
20291142,ls1ug12wht,"DRM Reactivity 1_MSU",1,125,2023-11-16T18:46:49+00:00,1.9105479717255,9,Stim_A.csv,Read_A.csv,"Read A",Read,Jeep,Jeep,Recog,Presented,119,123,Likert,User,1,"Was this item previously studied?","Critical Lure Control",Recog,1::2,1665,YES,28.571428571429,-1,-1,0,0,,1
20291142,ls1ug12wht,"DRM Reactivity 1_MSU",1,126,2023-11-16T18:46:52+00:00,2.3512191772461,9,Stim_A.csv,Read_A.csv,"Read A",Read,Phone,Phone,Recog,Control,95,82,Likert,User,1,"Was this item previously studied?","Critical Lure Sans F",Recog,1::2,2144,NO,28.571428571429,-1,-1,0,0,,1
20291142,ls1ug12wht,"DRM Reactivity 1_MSU",1,127,2023-11-16T18:46:55+00:00,2.7482500076294,9,Stim_A.csv,Read_A.csv,"Read A",Read,Lipstick,Lipstick,Recog,Presented,142,127,Likert,User,1,"Was this item previously studied?","Critical Lure Control",Recog,1::2,2521,YES,18.181818181818,-1,-1,0,0,,1
20291142,ls1ug12wht,"DRM Reactivity 1_MSU",1,128,2023-11-16T18:46:57+00:00,2.4040679931641,9,Stim_A.csv,Read_A.csv,"Read A",Read,Bed,Bed,Recog,Control,62,77,Likert,User,1,"Was this item previously studied?","List Item Standard F",Recog,1::2,2186,NO,0,-1,-1,0,0,,1
20291142,ls1ug12wht,"DRM Reactivity 1_MSU",1,129,2023-11-16T18:46:59+00:00,1.9281129837036,9,Stim_A.csv,Read_A.csv,"Read A",Read,Dirt,Dirt,Recog,Control,64,63,Likert,User,1,"Was this item previously studied?","List Item Sans F",Recog,1::2,1681,NO,0,-1,-1,0,0,,1
20291142,ls1ug12wht,"DRM Reactivity 1_MSU",1,130,2023-11-16T18:47:02+00:00,2.724436044693,9,Stim_A.csv,Read_A.csv,"Read A",Read,Fly,Fly,Recog,Presented,134,130,Likert,User,1,"Was this item previously studied?","Critical Lure Control",Recog,1::2,2505,YES,33.333333333333,-1,-1,0,0,,1
20291142,ls1ug12wht,"DRM Reactivity 1_MSU",1,131,2023-11-16T18:47:04+00:00,2.7003798484802,9,Stim_A.csv,Read_A.csv,"Read A",Read,Floor,Floor,Recog,Control,79,132,Likert,User,1,"Was this item previously studied?","Critical Lure Control",Recog,1::2,2482,NO,28.571428571429,-1,-1,0,0,,1
20291142,ls1ug12wht,"DRM Reactivity 1_MSU",1,132,2023-11-16T18:47:06+00:00,2.1164391040802,9,Stim_A.csv,Read_A.csv,"Read A",Read,Rest,Rest,Recog,Control,96,91,Likert,User,1,"Was this item previously studied?","List Item Control",Recog,1::2,1884,NO,0,-1,-1,0,0,,1
20291142,ls1ug12wht,"DRM Reactivity 1_MSU",1,133,2023-11-16T18:47:08+00:00,1.7447988986969,9,Stim_A.csv,Read_A.csv,"Read A",Read,Fossil,Fossil,Recog,Control,91,76,Likert,User,1,"Was this item previously studied?","List Item Sans F",Recog,1::2,1523,NO,25,-1,-1,0,0,,1
20291142,ls1ug12wht,"DRM Reactivity 1_MSU",1,134,2023-11-16T18:47:10+00:00,1.8067359924316,9,Stim_A.csv,Read_A.csv,"Read A",Read,Card,Card,Recog,Control,85,140,Likert,User,1,"Was this item previously studied?","Critical Lure Control",Recog,1::2,1577,NO,0,-1,-1,0,0,,1
20291142,ls1ug12wht,"DRM Reactivity 1_MSU",1,135,2023-11-16T18:47:12+00:00,2.4741110801697,9,Stim_A.csv,Read_A.csv,"Read A",Read,Bathroom,Bathroom,Recog,Control,75,85,Likert,User,1,"Was this item previously studied?","Critical Lure Standard F",Recog,1::2,2261,NO,20,-1,-1,0,0,,1
20291142,ls1ug12wht,"DRM Reactivity 1_MSU",1,136,2023-11-16T18:47:15+00:00,2.4667458534241,9,Stim_A.csv,Read_A.csv,"Read A",Read,Cave,Cave,Recog,Presented,107,84,Likert,User,1,"Was this item previously studied?","Critical Lure Sans F",Recog,1::2,2249,YES,28.571428571429,-1,-1,0,0,,1
20291142,ls1ug12wht,"DRM Reactivity 1_MSU",1,137,2023-11-16T18:47:19+00:00,4.2013292312622,9,Stim_A.csv,Read_A.csv,"Read A",Read,Tea,Tea,Recog,Presented,141,69,Likert,User,1,"Was this item previously studied?","List Item Sans F",Recog,1::2,3972,YES,33.333333333333,-1,-1,0,0,,1
20291142,ls1ug12wht,"DRM Reactivity 1_MSU",1,138,2023-11-16T18:47:27+00:00,8.201239824295,9,Stim_A.csv,Read_A.csv,"Read A",Read,Parrot,Parrot,Recog,Presented,117,103,Likert,User,1,"Was this item previously studied?","List Item Control",Recog,1::2,7986,YES,0,-1,-1,0,0,,0.625
20291142,ls1ug12wht,"DRM Reactivity 1_MSU",1,139,2023-11-16T18:47:30+00:00,2.8407499790192,9,Stim_A.csv,Read_A.csv,"Read A",Read,Wall,Wall,Recog,Control,77,115,Likert,User,1,"Was this item previously studied?","List Item Control",Recog,1::2,2627,NO,0,-1,-1,0,0,,1
20291142,ls1ug12wht,"DRM Reactivity 1_MSU",1,140,2023-11-16T18:47:32+00:00,1.9608891010284,9,Stim_A.csv,Read_A.csv,"Read A",Read,Rifle,Rifle,Recog,Presented,109,101,Likert,User,1,"Was this item previously studied?","List Item Control",Recog,1::2,1733,YES,25,-1,-1,0,0,,1
20291142,ls1ug12wht,"DRM Reactivity 1_MSU",1,141,2023-11-16T18:47:34+00:00,1.9517679214478,9,Stim_A.csv,Read_A.csv,"Read A",Read,Mango,Mango,Recog,Control,58,80,Likert,User,1,"Was this item previously studied?","Critical Lure Sans F",Recog,1::2,1734,NO,57.142857142857,-1,-1,0,0,,1
20291142,ls1ug12wht,"DRM Reactivity 1_MSU",1,142,2023-11-16T18:47:36+00:00,2.0213811397552,9,Stim_A.csv,Read_A.csv,"Read A",Read,Mother,Mother,Recog,Control,92,104,Likert,User,1,"Was this item previously studied?","List Item Control",Recog,1::2,1787,NO,25,-1,-1,0,0,,1
20291142,ls1ug12wht,"DRM Reactivity 1_MSU",1,143,2023-11-16T18:47:39+00:00,2.4750289916992,9,Stim_A.csv,Read_A.csv,"Read A",Read,Tulip,Tulip,Recog,Presented,135,145,Likert,User,1,"Was this item previously studied?","Critical Lure Control",Recog,1::2,2249,YES,0,-1,-1,0,0,,1
20291142,ls1ug12wht,"DRM Reactivity 1_MSU",1,144,2023-11-16T18:47:41+00:00,2.3090929985046,9,Stim_A.csv,Read_A.csv,"Read A",Read,Cook,Cook,Recog,Control,90,111,Likert,User,1,"Was this item previously studied?","List Item Control",Recog,1::2,2067,NO,33.333333333333,-1,-1,0,0,,1
20291142,ls1ug12wht,"DRM Reactivity 1_MSU",1,145,2023-11-16T18:47:44+00:00,2.9872319698334,9,Stim_A.csv,Read_A.csv,"Read A",Read,Grape,Grape,Recog,Control,52,71,Likert,User,1,"Was this item previously studied?","List Item Standard F",Recog,1::2,2757,NO,0,-1,-1,0,0,,1
20291142,ls1ug12wht,"DRM Reactivity 1_MSU",1,146,2023-11-16T18:47:46+00:00,2.4324650764465,9,Stim_A.csv,Read_A.csv,"Read A",Read,Cruise,Cruise,Recog,Presented,138,90,Likert,User,1,"Was this item previously studied?","List Item Control",Recog,1::2,2200,YES,22.222222222222,-1,-1,0,0,,1
20291142,ls1ug12wht,"DRM Reactivity 1_MSU",1,147,2023-11-16T18:47:51+00:00,4.5290548801422,9,Stim_A.csv,Read_A.csv,"Read A",Read,Student,Student,Recog,Presented,111,116,Likert,User,1,"Was this item previously studied?","List Item Control",Recog,1::2,4299,YES,20,-1,-1,0,0,,1
20291142,ls1ug12wht,"DRM Reactivity 1_MSU",1,148,2023-11-16T18:47:53+00:00,2.6153750419617,9,Stim_A.csv,Read_A.csv,"Read A",Read,Kiwi,Kiwi,Recog,Control,56,78,Likert,User,1,"Was this item previously studied?","List Item Standard F",Recog,1::2,2407,NO,0,-1,-1,0,0,,1
20291142,ls1ug12wht,"DRM Reactivity 1_MSU",1,149,2023-11-16T18:47:57+00:00,3.9974319934845,9,Stim_A.csv,Read_A.csv,"Read A",Read,Mountain,Mountain,Recog,Presented,103,96,Likert,User,1,"Was this item previously studied?","List Item Control",Recog,1::2,3771,YES,0,-1,-1,0,0,,1
20291142,ls1ug12wht,"DRM Reactivity 1_MSU",1,150,2023-11-16T18:48:00+00:00,2.5374329090118,9,Stim_A.csv,Read_A.csv,"Read A",Read,Hallway,Hallway,Recog,Control,83,112,Likert,User,1,"Was this item previously studied?","List Item Control",Recog,1::2,2309,NO,0,-1,-1,0,0,,1
20291142,ls1ug12wht,"DRM Reactivity 1_MSU",1,151,2023-11-16T18:48:02+00:00,2.0488021373749,9,Stim_A.csv,Read_A.csv,"Read A",Read,River,River,Recog,Presented,98,58,Likert,User,1,"Was this item previously studied?","List Item Sans F",Recog,1::2,1850,YES,25,-1,-1,0,0,,1
20291142,ls1ug12wht,"DRM Reactivity 1_MSU",1,152,2023-11-16T18:48:04+00:00,2.2417969703674,9,Stim_A.csv,Read_A.csv,"Read A",Read,Oxygen,Oxygen,Recog,Presented,114,89,Likert,User,1,"Was this item previously studied?","Critical Lure Standard F",Recog,1::2,2011,YES,44.444444444444,-1,-1,0,0,,1
20291142,ls1ug12wht,"DRM Reactivity 1_MSU",1,153,2023-11-16T18:48:07+00:00,2.3090438842773,9,Stim_A.csv,Read_A.csv,"Read A",Read,Basket,Basket,Recog,Control,89,92,Likert,User,1,"Was this item previously studied?","List Item Control",Recog,1::2,2080,NO,0,-1,-1,0,0,,1
20291142,ls1ug12wht,"DRM Reactivity 1_MSU",1,154,2023-11-16T18:48:10+00:00,3.6033711433411,9,Stim_A.csv,Read_A.csv,"Read A",Read,,,,,,0,Instruct,User,-,"You have completed this section. Please click next.",,Instruct7,,3386,,,-1,-1,,,,1
20291142,ls1ug12wht,"DRM Reactivity 1_MSU",1,155,2023-11-16T18:48:20+00:00,9.3942439556122,9,Stim_A.csv,Read_A.csv,"Read A",Read,,,,,,0,Instruct,User,-,"The following screen will ask you a few questions abour your experience today. You must complete these questions to receive credit.",,Instruct8,,9166,,,-1,-1,,,,0.978
