Username,ID,ExperimentName,Session,Trial,Date,TimeDif,"Condition Number","Stimuli File","Order File","Condition Description","Condition Notes",Stimuli*Cue,Stimuli*Answer,Stimuli*Shuffle,"Stimuli*Stimuli Notes",Stimuli*Value,Procedure*Item,"Procedure*Trial Type","Procedure*Max Time","Procedure*Min Time",Procedure*Text,"Procedure*Procedure Notes",Procedure*Shuffle,Response*RT,Response*Response,Response*Accuracy,Response*RTfirst,Response*RTlast,Response*strictAcc,Response*lenientAcc,Response*focus,Response*Focus
ADFADSF,ppuisak0x3,Anie_Ex1A,1,1,2021-03-31T15:20:41+00:00,5.9615590572357,2,Stim_B.csv,VersionB.csv,"Version B","Version B",,,,,,0,Instruct,-,5,"In this section, you will be presented with a series of words. Please study each word carefully. Your memory will be tested! Click next when you are ready to begin.",Initial_Instruct,Instruct1,5879,,,-1,-1,,,,1
ADFADSF,ppuisak0x3,Anie_Ex1A,1,2,2021-03-31T15:20:43+00:00,2.0858108997345,2,Stim_B.csv,VersionB.csv,"Version B","Version B",,,,,,0,Instruct,User,-,"You will now begin the study. Click next when you are ready to begin.",,Instruct16,1967,,,-1,-1,,,,1
ADFADSF,ppuisak0x3,Anie_Ex1A,1,3,2021-03-31T15:20:46+00:00,3.0175380706787,2,Stim_B.csv,VersionB.csv,"Version B","Version B",pane,,Win_1,Standard,,2,Study,User,2.5,,Window,Win_1,2907,,,-1,-1,,,,1
ADFADSF,ppuisak0x3,Anie_Ex1A,1,4,2021-03-31T15:20:49+00:00,2.9290509223938,2,Stim_B.csv,VersionB.csv,"Version B","Version B",sill,,Win_2,Standard,,3,Study,User,2.5,,Window,Win_2,2817,,,-1,-1,,,,1
ADFADSF,ppuisak0x3,Anie_Ex1A,1,5,2021-03-31T15:20:52+00:00,2.9155230522156,2,Stim_B.csv,VersionB.csv,"Version B","Version B",shutter,,Win_3,Standard,,4,Study,User,2.5,,Window,Win_3,2823,,,-1,-1,,,,1
ADFADSF,ppuisak0x3,Anie_Ex1A,1,6,2021-03-31T15:20:55+00:00,2.9172189235687,2,Stim_B.csv,VersionB.csv,"Version B","Version B",curtain,,Win_4,Standard,,5,Study,User,2.5,,Window,Win_4,2807,,,-1,-1,,,,1
ADFADSF,ppuisak0x3,Anie_Ex1A,1,7,2021-03-31T15:20:58+00:00,2.9797120094299,2,Stim_B.csv,VersionB.csv,"Version B","Version B",door,,Win_5,Standard,,6,Study,User,2.5,,Window,Win_5,2882,,,-1,-1,,,,1
ADFADSF,ppuisak0x3,Anie_Ex1A,1,8,2021-03-31T15:21:00+00:00,2.8979520797729,2,Stim_B.csv,VersionB.csv,"Version B","Version B",ledge,,Win_6,Standard,,7,Study,User,2.5,,Window,Win_6,2800,,,-1,-1,,,,1
ADFADSF,ppuisak0x3,Anie_Ex1A,1,9,2021-03-31T15:21:03+00:00,2.8935170173645,2,Stim_B.csv,VersionB.csv,"Version B","Version B",glass,,Win_7,Standard,,8,Study,User,2.5,,Window,Win_7,2793,,,-1,-1,,,,1
ADFADSF,ppuisak0x3,Anie_Ex1A,1,10,2021-03-31T15:21:06+00:00,2.8945288658142,2,Stim_B.csv,VersionB.csv,"Version B","Version B",view,,Win_8,Standard,,9,Study,User,2.5,,Window,Win_8,2803,,,-1,-1,,,,1
ADFADSF,ppuisak0x3,Anie_Ex1A,1,11,2021-03-31T15:21:09+00:00,2.9362001419067,2,Stim_B.csv,VersionB.csv,"Version B","Version B",screen,,Win_9,Standard,,10,Study,User,2.5,,Window,Win_9,2800,,,-1,-1,,,,1
ADFADSF,ppuisak0x3,Anie_Ex1A,1,12,2021-03-31T15:21:12+00:00,2.8844559192657,2,Stim_B.csv,VersionB.csv,"Version B","Version B",shade,,Win_10,Standard,,11,Study,User,2.5,,Window,Win_10,2779,,,-1,-1,,,,1
ADFADSF,ppuisak0x3,Anie_Ex1A,1,13,2021-03-31T15:21:15+00:00,2.8522629737854,2,Stim_B.csv,VersionB.csv,"Version B","Version B",open,,Win_11,Standard,,12,Study,User,2.5,,Window,Win_11,2756,,,-1,-1,,,,1
ADFADSF,ppuisak0x3,Anie_Ex1A,1,14,2021-03-31T15:21:18+00:00,2.9057831764221,2,Stim_B.csv,VersionB.csv,"Version B","Version B",frame,,Win_12,Standard,,13,Study,User,2.5,,Window,Win_12,2810,,,-1,-1,,,,1
ADFADSF,ppuisak0x3,Anie_Ex1A,1,15,2021-03-31T15:21:20+00:00,1.8814568519592,2,Stim_B.csv,VersionB.csv,"Version B","Version B",,,,,,0,Instruct,User,-,"You have completed this section. Please click next.",,Instruct166,1793,,,-1,-1,,,,1
ADFADSF,ppuisak0x3,Anie_Ex1A,1,16,2021-03-31T15:21:50+00:00,30.151205062866,2,Stim_B.csv,VersionB.csv,"Version B","Version B",,,,,,0,FreeRecall,30,30,"Please type as many words as you can that begin with the letter ""C"". The computer will automatically advance to the next screen in 30 seconds.",,FILLER,30008,,0,-1,-1,0,0,,0.74
ADFADSF,ppuisak0x3,Anie_Ex1A,1,17,2021-03-31T15:21:52+00:00,2.3340399265289,2,Stim_B.csv,VersionB.csv,"Version B","Version B",,,,,,0,Instruct,User,-,"You have completed this section. Please click next.",,Instruct166,2198,,,-1,-1,,,,1
ADFADSF,ppuisak0x3,Anie_Ex1A,1,18,2021-03-31T15:21:54+00:00,1.5051939487457,2,Stim_B.csv,VersionB.csv,"Version B","Version B",,,,,,0,Instruct,User,-,"You will now complete a memory test for the words you just studied. Spelling will not count against you and you can recall the words in any order. This test will be timed for one minute, and the computer will automatically advance once time is up. Click next when you are ready to begin.",,Instruct1666,1420,,,-1,-1,,,,1
ADFADSF,ppuisak0x3,Anie_Ex1A,1,19,2021-03-31T15:22:54+00:00,60.244899988174,2,Stim_B.csv,VersionB.csv,"Version B","Version B",,,,,,0,FreeRecall,60,60,"Type as many words as you can from the previous list in any order. Spelling will not count against you. This screen will automatically advance in one minute.",,RECALL_Test,60135,,0,-1,-1,0,0,,0.704
ADFADSF,ppuisak0x3,Anie_Ex1A,1,20,2021-03-31T15:22:57+00:00,3.4343121051788,2,Stim_B.csv,VersionB.csv,"Version B","Version B",,,,,,0,Instruct,3,-,"You will now be presented with a new study list. Click next when you are ready to begin.",,NEXT_LIST,3032,,,-1,-1,,,,0
ADFADSF,ppuisak0x3,Anie_Ex1A,1,21,2021-03-31T15:23:05+00:00,8.0573749542236,2,Stim_B.csv,VersionB.csv,"Version B","Version B",sandpaper,,R1,SF,,14,Study_SF,User,2.5,,Rough,R1,7642,,,-1,-1,,,,0.533
