Username,ID,ExperimentName,Session,Trial,Date,TimeDif,"Condition Number","Stimuli File","Order File","Condition Description","Condition Notes",Stimuli*Cue,Stimuli*Answer,Stimuli*Shuffle,"Stimuli*Stimuli Notes",Stimuli*Value,Procedure*Item,"Procedure*Trial Type","Procedure*Max Time","Procedure*Min Time",Procedure*Text,"Procedure*Procedure Notes",Procedure*Shuffle,Response*RT,Response*Response,Response*Accuracy,Response*RTfirst,Response*RTlast,Response*strictAcc,Response*lenientAcc,Response*focus,Response*Focus
652435bfb2930ba6d0c29bcf,2o3qjli6j2,Ex2A_Prolific,1,1,2023-12-20T19:10:42+00:00,9.6020340919495,9,Stim_A.csv,Read_A.csv,"Read A",Read,,,,,,0,Instruct,-,5,"In this section, you will be presented with a series of words. Please study each word carefully. Your memory will be tested! Each word will be displayed for 8 seconds. Click next when you are ready to begin.",Initial_Instruct,Instruct1,9472,,,-1,-1,,,,1
652435bfb2930ba6d0c29bcf,2o3qjli6j2,Ex2A_Prolific,1,2,2023-12-20T19:10:44+00:00,2.7294960021973,9,Stim_A.csv,Read_A.csv,"Read A",Read,,,,,,0,Instruct,User,-,"You will now begin the study. Click next when you are ready to begin.",,Instruct16,2524,,,-1,-1,,,,1
652435bfb2930ba6d0c29bcf,2o3qjli6j2,Ex2A_Prolific,1,3,2023-12-20T19:10:48+00:00,3.3053288459778,9,Stim_A.csv,Read_A.csv,"Read A",Read,Rock,Rock,R1,Related,5,13,Study,User,1,,Related,R1,3103,,,-1,-1,,,,1
652435bfb2930ba6d0c29bcf,2o3qjli6j2,Ex2A_Prolific,1,4,2023-12-20T19:10:49+00:00,1.5870599746704,9,Stim_A.csv,Read_A.csv,"Read A",Read,Mountain,Mountain,R1,Related,7,6,Study,User,1,,Related,R1,1389,,,-1,-1,,,,1
652435bfb2930ba6d0c29bcf,2o3qjli6j2,Ex2A_Prolific,1,5,2023-12-20T19:10:52+00:00,2.4909119606018,9,Stim_A.csv,Read_A.csv,"Read A",Read,Valley,Valley,R1,Related,1,8,Study,User,1,,Related,R1,2287,,,-1,-1,,,,1
652435bfb2930ba6d0c29bcf,2o3qjli6j2,Ex2A_Prolific,1,6,2023-12-20T19:10:54+00:00,2.5443201065063,9,Stim_A.csv,Read_A.csv,"Read A",Read,Glacier,Glacier,R1,Related,12,7,Study,User,1,,Related,R1,2320,,,-1,-1,,,,1
652435bfb2930ba6d0c29bcf,2o3qjli6j2,Ex2A_Prolific,1,7,2023-12-20T19:10:58+00:00,3.4490370750427,9,Stim_A.csv,Read_A.csv,"Read A",Read,Cave,Cave,R1,Related,11,10,Study,User,1,,Related,R1,3250,,,-1,-1,,,,1
652435bfb2930ba6d0c29bcf,2o3qjli6j2,Ex2A_Prolific,1,8,2023-12-20T19:11:01+00:00,3.4070188999176,9,Stim_A.csv,Read_A.csv,"Read A",Read,River,River,R1,Related,2,4,Study,User,1,,Related,R1,3210,,,-1,-1,,,,1
652435bfb2930ba6d0c29bcf,2o3qjli6j2,Ex2A_Prolific,1,9,2023-12-20T19:11:05+00:00,4.167328119278,9,Stim_A.csv,Read_A.csv,"Read A",Read,Volcano,Volcano,R1,Related,4,9,Study,User,1,,Related,R1,3959,,,-1,-1,,,,1
652435bfb2930ba6d0c29bcf,2o3qjli6j2,Ex2A_Prolific,1,10,2023-12-20T19:11:08+00:00,3.0714638233185,9,Stim_A.csv,Read_A.csv,"Read A",Read,Canyon,Canyon,R1,Related,3,11,Study,User,1,,Related,R1,2867,,,-1,-1,,,,1
652435bfb2930ba6d0c29bcf,2o3qjli6j2,Ex2A_Prolific,1,11,2023-12-20T19:11:10+00:00,1.7846410274506,9,Stim_A.csv,Read_A.csv,"Read A",Read,Hill,Hill,R1,Related,6,5,Study,User,1,,Related,R1,1588,,,-1,-1,,,,1
652435bfb2930ba6d0c29bcf,2o3qjli6j2,Ex2A_Prolific,1,12,2023-12-20T19:11:12+00:00,1.5930700302124,9,Stim_A.csv,Read_A.csv,"Read A",Read,Island,Island,R1,Related,9,12,Study,User,1,,Related,R1,1396,,,-1,-1,,,,1
652435bfb2930ba6d0c29bcf,2o3qjli6j2,Ex2A_Prolific,1,13,2023-12-20T19:11:14+00:00,2.2916719913483,9,Stim_A.csv,Read_A.csv,"Read A",Read,Lake,Lake,R1,Related,10,2,Study,User,1,,Related,R1,2091,,,-1,-1,,,,1
652435bfb2930ba6d0c29bcf,2o3qjli6j2,Ex2A_Prolific,1,14,2023-12-20T19:11:16+00:00,1.6068339347839,9,Stim_A.csv,Read_A.csv,"Read A",Read,Ocean,Ocean,R1,Related,8,3,Study,User,1,,Related,R1,1401,,,-1,-1,,,,1
652435bfb2930ba6d0c29bcf,2o3qjli6j2,Ex2A_Prolific,1,15,2023-12-20T19:11:18+00:00,2.7210490703583,9,Stim_A.csv,Read_A.csv,"Read A",Read,,,,,,0,Instruct,User,-,"You have completed this section. Please click next.",,Instruct166,2537,,,-1,-1,,,,1
652435bfb2930ba6d0c29bcf,2o3qjli6j2,Ex2A_Prolific,1,16,2023-12-20T19:11:49+00:00,30.426253080368,9,Stim_A.csv,Read_A.csv,"Read A",Read,,,,,,0,FreeRecall,30,30,"Please type as many words as you can that begin with the letter ""K"". The computer will automatically advance to the next screen in 30 seconds.",Related,FILLER,30240,,0,-1,-1,0,0,,0.962
652435bfb2930ba6d0c29bcf,2o3qjli6j2,Ex2A_Prolific,1,17,2023-12-20T19:11:56+00:00,7.1861660480499,9,Stim_A.csv,Read_A.csv,"Read A",Read,,,,,,0,Instruct,User,-,"You have completed this section. Please click next.",,Instruct166,6987,,,-1,-1,,,,0.667
652435bfb2930ba6d0c29bcf,2o3qjli6j2,Ex2A_Prolific,1,18,2023-12-20T19:13:02+00:00,66.236585855484,9,Stim_A.csv,Read_A.csv,"Read A",Read,,,,,,0,FreeRecall,65,65,"Please type from memory the words studied in the previous list. Spelling will not count against you and you can recall the words in any order. This test is timed for ONE MINUTE, and the computer will automatically advance once time is up.",Related,RECALL_Test1,65618,"hill, cave, ocean, valley, mountain, lake, ",0,8871,51794,0,0,,0.997
652435bfb2930ba6d0c29bcf,2o3qjli6j2,Ex2A_Prolific,1,19,2023-12-20T19:13:23+00:00,20.962661981583,9,Stim_A.csv,Read_A.csv,"Read A",Read,,,,,,0,Instruct,User,3,"You will now be presented with a new study list. Click next when you are ready to begin.",,NEXT_LIST,20766,,,-1,-1,,,,0.412
652435bfb2930ba6d0c29bcf,2o3qjli6j2,Ex2A_Prolific,1,20,2023-12-20T19:13:36+00:00,12.558575153351,9,Stim_A.csv,Read_A.csv,"Read A",Read,Pants,Pants,U1,Unrelated,17,18,Study,User,1,,Unrelated,U1,12359,,,-1,-1,,,,1
652435bfb2930ba6d0c29bcf,2o3qjli6j2,Ex2A_Prolific,1,21,2023-12-20T19:13:38+00:00,2.5146198272705,9,Stim_A.csv,Read_A.csv,"Read A",Read,Oxygen,Oxygen,U1,Unrelated,18,20,Study,User,1,,Unrelated,U1,2320,,,-1,-1,,,,1
652435bfb2930ba6d0c29bcf,2o3qjli6j2,Ex2A_Prolific,1,22,2023-12-20T19:13:42+00:00,3.3804130554199,9,Stim_A.csv,Read_A.csv,"Read A",Read,Guitar,Guitar,U1,Unrelated,19,17,Study,User,1,,Unrelated,U1,3196,,,-1,-1,,,,1
652435bfb2930ba6d0c29bcf,2o3qjli6j2,Ex2A_Prolific,1,23,2023-12-20T19:13:44+00:00,2.5376210212708,9,Stim_A.csv,Read_A.csv,"Read A",Read,Hockey,Hockey,U1,Unrelated,16,16,Study,User,1,,Unrelated,U1,2354,,,-1,-1,,,,1
652435bfb2930ba6d0c29bcf,2o3qjli6j2,Ex2A_Prolific,1,24,2023-12-20T19:13:48+00:00,4.0244019031525,9,Stim_A.csv,Read_A.csv,"Read A",Read,Parrot,Parrot,U1,Unrelated,21,15,Study,User,1,,Unrelated,U1,3826,,,-1,-1,,,,1
652435bfb2930ba6d0c29bcf,2o3qjli6j2,Ex2A_Prolific,1,25,2023-12-20T19:13:51+00:00,2.6813471317291,9,Stim_A.csv,Read_A.csv,"Read A",Read,Dollar,Dollar,U1,Unrelated,20,19,Study,User,1,,Unrelated,U1,2454,,,-1,-1,,,,1
652435bfb2930ba6d0c29bcf,2o3qjli6j2,Ex2A_Prolific,1,26,2023-12-20T19:13:54+00:00,3.0802700519562,9,Stim_A.csv,Read_A.csv,"Read A",Read,Jeep,Jeep,U1,Unrelated,23,22,Study,User,1,,Unrelated,U1,2885,,,-1,-1,,,,1
652435bfb2930ba6d0c29bcf,2o3qjli6j2,Ex2A_Prolific,1,27,2023-12-20T19:13:57+00:00,3.3401799201965,9,Stim_A.csv,Read_A.csv,"Read A",Read,Ballet,Ballet,U1,Unrelated,24,21,Study,User,1,,Unrelated,U1,3147,,,-1,-1,,,,1
652435bfb2930ba6d0c29bcf,2o3qjli6j2,Ex2A_Prolific,1,28,2023-12-20T19:14:00+00:00,2.9224541187286,9,Stim_A.csv,Read_A.csv,"Read A",Read,Student,Student,U1,Unrelated,15,14,Study,User,1,,Unrelated,U1,2735,,,-1,-1,,,,1
652435bfb2930ba6d0c29bcf,2o3qjli6j2,Ex2A_Prolific,1,29,2023-12-20T19:14:03+00:00,2.6090688705444,9,Stim_A.csv,Read_A.csv,"Read A",Read,Rifle,Rifle,U1,Unrelated,13,23,Study,User,1,,Unrelated,U1,2400,,,-1,-1,,,,1
652435bfb2930ba6d0c29bcf,2o3qjli6j2,Ex2A_Prolific,1,30,2023-12-20T19:14:05+00:00,2.5907850265503,9,Stim_A.csv,Read_A.csv,"Read A",Read,Milk,Milk,U1,Unrelated,22,24,Study,User,1,,Unrelated,U1,2398,,,-1,-1,,,,1
652435bfb2930ba6d0c29bcf,2o3qjli6j2,Ex2A_Prolific,1,31,2023-12-20T19:14:08+00:00,2.5863380432129,9,Stim_A.csv,Read_A.csv,"Read A",Read,Mayor,Mayor,U1,Unrelated,14,25,Study,User,1,,Unrelated,U1,2383,,,-1,-1,,,,1
652435bfb2930ba6d0c29bcf,2o3qjli6j2,Ex2A_Prolific,1,32,2023-12-20T19:14:11+00:00,2.7176458835602,9,Stim_A.csv,Read_A.csv,"Read A",Read,,,,,,0,Instruct,User,-,"You have completed this section. Please click next.",,Instruct166,2519,,,-1,-1,,,,1
652435bfb2930ba6d0c29bcf,2o3qjli6j2,Ex2A_Prolific,1,33,2023-12-20T19:14:41+00:00,30.18696808815,9,Stim_A.csv,Read_A.csv,"Read A",Read,,,,,,0,FreeRecall,30,30,"Please type as many words as you can that begin with the letter ""L"". The computer will automatically advance to the next screen in 30 seconds.",Unrelated,FILLER,30001,"Lake Lighthouse Lizard Laptop Leaf Lavender Lunch Letter Lollipop Lighthouse",0,-1,-1,0,0,,0.887
652435bfb2930ba6d0c29bcf,2o3qjli6j2,Ex2A_Prolific,1,34,2023-12-20T19:14:43+00:00,2.3795049190521,9,Stim_A.csv,Read_A.csv,"Read A",Read,,,,,,0,Instruct,User,-,"You have completed this section. Please click next.",,Instruct166,2176,,,-1,-1,,,,1
652435bfb2930ba6d0c29bcf,2o3qjli6j2,Ex2A_Prolific,1,35,2023-12-20T19:15:49+00:00,65.308834075928,9,Stim_A.csv,Read_A.csv,"Read A",Read,,,,,,0,FreeRecall,65,65,"Please type from memory the words studied in the previous list. Spelling will not count against you and you can recall the words in any order. This test is timed for ONE MINUTE, and the computer will automatically advance once time is up.",Unrelated,RECALL_Test2,65000,"mayor,student,ballet,pants, jeep,dollar,guitar",0,4854,59572,0,0,,1
652435bfb2930ba6d0c29bcf,2o3qjli6j2,Ex2A_Prolific,1,36,2023-12-20T19:15:53+00:00,4.4427070617676,9,Stim_A.csv,Read_A.csv,"Read A",Read,,,,,,0,Instruct,User,3,"You will now be presented with a new study list. Click next when you are ready to begin.",,NEXT_LIST,4230,,,-1,-1,,,,1
652435bfb2930ba6d0c29bcf,2o3qjli6j2,Ex2A_Prolific,1,37,2023-12-20T19:16:01+00:00,7.9064569473267,9,Stim_A.csv,Read_A.csv,"Read A",Read,Lion,Lion,R2,Related,26,28,Study,User,1,,Related,R2,7699,,,-1,-1,,,,1
652435bfb2930ba6d0c29bcf,2o3qjli6j2,Ex2A_Prolific,1,38,2023-12-20T19:16:03+00:00,1.8140618801117,9,Stim_A.csv,Read_A.csv,"Read A",Read,Wolf,Wolf,R2,Related,29,29,Study,User,1,,Related,R2,1600,,,-1,-1,,,,1
652435bfb2930ba6d0c29bcf,2o3qjli6j2,Ex2A_Prolific,1,39,2023-12-20T19:16:05+00:00,2.5484890937805,9,Stim_A.csv,Read_A.csv,"Read A",Read,Cheetah,Cheetah,R2,Related,28,36,Study,User,1,,Related,R2,2337,,,-1,-1,,,,1
652435bfb2930ba6d0c29bcf,2o3qjli6j2,Ex2A_Prolific,1,40,2023-12-20T19:16:07+00:00,1.9016990661621,9,Stim_A.csv,Read_A.csv,"Read A",Read,Girraffe,Girraffe,R2,Related,31,26,Study,User,1,,Related,R2,1702,,,-1,-1,,,,1
652435bfb2930ba6d0c29bcf,2o3qjli6j2,Ex2A_Prolific,1,41,2023-12-20T19:16:09+00:00,1.8212168216705,9,Stim_A.csv,Read_A.csv,"Read A",Read,Cat,Cat,R2,Related,33,30,Study,User,1,,Related,R2,1617,,,-1,-1,,,,1
652435bfb2930ba6d0c29bcf,2o3qjli6j2,Ex2A_Prolific,1,42,2023-12-20T19:16:11+00:00,2.4121150970459,9,Stim_A.csv,Read_A.csv,"Read A",Read,Goat,Goat,R2,Related,30,34,Study,User,1,,Related,R2,2209,,,-1,-1,,,,1
652435bfb2930ba6d0c29bcf,2o3qjli6j2,Ex2A_Prolific,1,43,2023-12-20T19:16:13+00:00,1.9531400203705,9,Stim_A.csv,Read_A.csv,"Read A",Read,Cow,Cow,R2,Related,36,37,Study,User,1,,Related,R2,1750,,,-1,-1,,,,1
652435bfb2930ba6d0c29bcf,2o3qjli6j2,Ex2A_Prolific,1,44,2023-12-20T19:16:15+00:00,1.8937349319458,9,Stim_A.csv,Read_A.csv,"Read A",Read,Zebra,Zebra,R2,Related,27,35,Study,User,1,,Related,R2,1694,,,-1,-1,,,,1
652435bfb2930ba6d0c29bcf,2o3qjli6j2,Ex2A_Prolific,1,45,2023-12-20T19:16:18+00:00,2.3587679862976,9,Stim_A.csv,Read_A.csv,"Read A",Read,Bear,Bear,R2,Related,35,27,Study,User,1,,Related,R2,2166,,,-1,-1,,,,1
652435bfb2930ba6d0c29bcf,2o3qjli6j2,Ex2A_Prolific,1,46,2023-12-20T19:16:20+00:00,2.631599187851,9,Stim_A.csv,Read_A.csv,"Read A",Read,Donkey,Donkey,R2,Related,34,31,Study,User,1,,Related,R2,2433,,,-1,-1,,,,1
652435bfb2930ba6d0c29bcf,2o3qjli6j2,Ex2A_Prolific,1,47,2023-12-20T19:16:23+00:00,2.7026360034943,9,Stim_A.csv,Read_A.csv,"Read A",Read,Elephant,Elephant,R2,Related,32,32,Study,User,1,,Related,R2,2508,,,-1,-1,,,,1
652435bfb2930ba6d0c29bcf,2o3qjli6j2,Ex2A_Prolific,1,48,2023-12-20T19:16:25+00:00,2.0775518417358,9,Stim_A.csv,Read_A.csv,"Read A",Read,Tiger,Tiger,R2,Related,25,33,Study,User,1,,Related,R2,1874,,,-1,-1,,,,1
652435bfb2930ba6d0c29bcf,2o3qjli6j2,Ex2A_Prolific,1,49,2023-12-20T19:16:28+00:00,2.5482361316681,9,Stim_A.csv,Read_A.csv,"Read A",Read,,,,,,0,Instruct,User,-,"You have completed this section. Please click next.",,Instruct166,2338,,,-1,-1,,,,1
652435bfb2930ba6d0c29bcf,2o3qjli6j2,Ex2A_Prolific,1,50,2023-12-20T19:16:58+00:00,30.198792934418,9,Stim_A.csv,Read_A.csv,"Read A",Read,,,,,,0,FreeRecall,30,30,"Please type as many words as you can that begin with the letter ""C"". The computer will automatically advance to the next screen in 30 seconds.",Unrelated,FILLER,30001,"Chair Cloud Castle Chicken Cookie Camera Clock Coin Crayon Compass",0,-1,-1,0,0,,0.853
652435bfb2930ba6d0c29bcf,2o3qjli6j2,Ex2A_Prolific,1,51,2023-12-20T19:16:59+00:00,1.5642368793488,9,Stim_A.csv,Read_A.csv,"Read A",Read,,,,,,0,Instruct,User,-,"You have completed this section. Please click next.",,Instruct166,1364,,,-1,-1,,,,1
652435bfb2930ba6d0c29bcf,2o3qjli6j2,Ex2A_Prolific,1,52,2023-12-20T19:18:05+00:00,65.311204195023,9,Stim_A.csv,Read_A.csv,"Read A",Read,,,,,,0,FreeRecall,65,65,"Please type from memory the words studied in the previous list. Spelling will not count against you and you can recall the words in any order. This test is timed for ONE MINUTE, and the computer will automatically advance once time is up.",Related,RECALL_Test3,65001,"Donkey, Bear, Zebra, Cow, Cat, Elephant, Wolf, lion",0,9801,46838,0,0,,1
652435bfb2930ba6d0c29bcf,2o3qjli6j2,Ex2A_Prolific,1,53,2023-12-20T19:18:10+00:00,5.4209518432617,9,Stim_A.csv,Read_A.csv,"Read A",Read,,,,,,0,Instruct,User,3,"You will now be presented with a new study list. Click next when you are ready to begin.",,NEXT_LIST,5231,,,-1,-1,,,,1
652435bfb2930ba6d0c29bcf,2o3qjli6j2,Ex2A_Prolific,1,54,2023-12-20T19:18:17+00:00,6.6638929843903,9,Stim_A.csv,Read_A.csv,"Read A",Read,Cold,Cold,U2,Unrelated,40,38,Study,User,1,,Unrelated,U2,6464,,,-1,-1,,,,1
652435bfb2930ba6d0c29bcf,2o3qjli6j2,Ex2A_Prolific,1,55,2023-12-20T19:18:20+00:00,2.8400039672852,9,Stim_A.csv,Read_A.csv,"Read A",Read,Shark,Shark,U2,Unrelated,43,42,Study,User,1,,Unrelated,U2,2643,,,-1,-1,,,,1
652435bfb2930ba6d0c29bcf,2o3qjli6j2,Ex2A_Prolific,1,56,2023-12-20T19:18:22+00:00,2.2767481803894,9,Stim_A.csv,Read_A.csv,"Read A",Read,Lipstick,Lipstick,U2,Unrelated,46,49,Study,User,1,,Unrelated,U2,2079,,,-1,-1,,,,1
652435bfb2930ba6d0c29bcf,2o3qjli6j2,Ex2A_Prolific,1,57,2023-12-20T19:18:24+00:00,1.8609178066254,9,Stim_A.csv,Read_A.csv,"Read A",Read,Sandal,Sandal,U2,Unrelated,37,44,Study,User,1,,Unrelated,U2,1645,,,-1,-1,,,,1
652435bfb2930ba6d0c29bcf,2o3qjli6j2,Ex2A_Prolific,1,58,2023-12-20T19:18:25+00:00,1.7691860198975,9,Stim_A.csv,Read_A.csv,"Read A",Read,Blue,Blue,U2,Unrelated,41,47,Study,User,1,,Unrelated,U2,1580,,,-1,-1,,,,1
652435bfb2930ba6d0c29bcf,2o3qjli6j2,Ex2A_Prolific,1,59,2023-12-20T19:18:27+00:00,1.9153242111206,9,Stim_A.csv,Read_A.csv,"Read A",Read,Fly,Fly,U2,Unrelated,38,43,Study,User,1,,Unrelated,U2,1728,,,-1,-1,,,,1
652435bfb2930ba6d0c29bcf,2o3qjli6j2,Ex2A_Prolific,1,60,2023-12-20T19:18:29+00:00,1.8623487949371,9,Stim_A.csv,Read_A.csv,"Read A",Read,Tea,Tea,U2,Unrelated,45,40,Study,User,1,,Unrelated,U2,1675,,,-1,-1,,,,1
652435bfb2930ba6d0c29bcf,2o3qjli6j2,Ex2A_Prolific,1,61,2023-12-20T19:18:31+00:00,2.0626339912415,9,Stim_A.csv,Read_A.csv,"Read A",Read,Eye,Eye,U2,Unrelated,48,46,Study,User,1,,Unrelated,U2,1867,,,-1,-1,,,,1
652435bfb2930ba6d0c29bcf,2o3qjli6j2,Ex2A_Prolific,1,62,2023-12-20T19:18:33+00:00,1.8621962070465,9,Stim_A.csv,Read_A.csv,"Read A",Read,Cruise,Cruise,U2,Unrelated,42,39,Study,User,1,,Unrelated,U2,1671,,,-1,-1,,,,1
652435bfb2930ba6d0c29bcf,2o3qjli6j2,Ex2A_Prolific,1,63,2023-12-20T19:18:35+00:00,1.7901887893677,9,Stim_A.csv,Read_A.csv,"Read A",Read,Tulip,Tulip,U2,Unrelated,39,41,Study,User,1,,Unrelated,U2,1602,,,-1,-1,,,,1
652435bfb2930ba6d0c29bcf,2o3qjli6j2,Ex2A_Prolific,1,64,2023-12-20T19:18:37+00:00,1.8378481864929,9,Stim_A.csv,Read_A.csv,"Read A",Read,Computer,Computer,U2,Unrelated,47,48,Study,User,1,,Unrelated,U2,1650,,,-1,-1,,,,1
652435bfb2930ba6d0c29bcf,2o3qjli6j2,Ex2A_Prolific,1,65,2023-12-20T19:18:39+00:00,1.8461878299713,9,Stim_A.csv,Read_A.csv,"Read A",Read,Viper,Viper,U2,Unrelated,44,45,Study,User,1,,Unrelated,U2,1644,,,-1,-1,,,,1
652435bfb2930ba6d0c29bcf,2o3qjli6j2,Ex2A_Prolific,1,66,2023-12-20T19:18:42+00:00,3.0579199790955,9,Stim_A.csv,Read_A.csv,"Read A",Read,,,,,,0,Instruct,User,-,"You have completed this section. Please click next.",,Instruct166,2868,,,-1,-1,,,,1
652435bfb2930ba6d0c29bcf,2o3qjli6j2,Ex2A_Prolific,1,67,2023-12-20T19:19:12+00:00,30.172765016556,9,Stim_A.csv,Read_A.csv,"Read A",Read,,,,,,0,FreeRecall,30,30,"Please type as many words as you can that begin with the letter ""M"". The computer will automatically advance to the next screen in 30 seconds.",Related,FILLER,30000,"Mountain Mango Magnet Music Mother Map Mouse Marble Mask Mail Machine Muffin Meadow Microphone Moose Motorcycle",0,-1,-1,0,0,,0.839
652435bfb2930ba6d0c29bcf,2o3qjli6j2,Ex2A_Prolific,1,68,2023-12-20T19:19:14+00:00,2.1550130844116,9,Stim_A.csv,Read_A.csv,"Read A",Read,,,,,,0,Instruct,User,-,"You have completed this section. Please click next.",,Instruct166,1963,,,-1,-1,,,,1
652435bfb2930ba6d0c29bcf,2o3qjli6j2,Ex2A_Prolific,1,69,2023-12-20T19:20:19+00:00,65.346679925919,9,Stim_A.csv,Read_A.csv,"Read A",Read,,,,,,0,FreeRecall,65,65,"Please type from memory the words studied in the previous list. Spelling will not count against you and you can recall the words in any order. This test is timed for ONE MINUTE, and the computer will automatically advance once time is up.",,RECALL_Test4,65000,"Computer, Eye, Fly, Tea, Sandal, Cold",0,6016,28648,0,0,,0.987
652435bfb2930ba6d0c29bcf,2o3qjli6j2,Ex2A_Prolific,1,70,2023-12-20T19:20:22+00:00,2.7833659648895,9,Stim_A.csv,Read_A.csv,"Read A",Read,,,,,,0,Instruct,User,-,"You have completed this section. Please click next.",,Instruct7,2579,,,-1,-1,,,,1
652435bfb2930ba6d0c29bcf,2o3qjli6j2,Ex2A_Prolific,1,71,2023-12-20T19:20:28+00:00,6.1491451263428,9,Stim_A.csv,Read_A.csv,"Read A",Read,,,,,,0,Instruct,User,-,"The following screen will ask you a few questions abour your experience today. You must complete these questions to receive credit.",,Instruct8,5932,,,-1,-1,,,,1
