Username,ID,ExperimentName,Session,Trial,Date,TimeDif,"Condition Number","Stimuli File","Order File","Condition Description","Condition Notes",Stimuli*Cue,Stimuli*Answer,Stimuli*Shuffle,"Stimuli*Stimuli Notes",Stimuli*Value,Procedure*Item,"Procedure*Trial Type","Procedure*Max Time","Procedure*Min Time",Procedure*Text,"Procedure*Procedure Notes",Procedure*Shuffle,Response*RT,Response*Response,Response*Accuracy,Response*RTfirst,Response*RTlast,Response*strictAcc,Response*lenientAcc,Response*focus,Response*Focus
HuffTest1,nexpx6jn4t,Anie_Ex1A,1,1,2021-04-05T21:04:21+00:00,41.395542144775,3,Stim_C.csv,VersionC.csv,"Version C","Version C",,,,,,0,Instruct,-,5,"In this section, you will be presented with a series of words. Please study each word carefully. Your memory will be tested! Click next when you are ready to begin.",Initial_Instruct,Instruct1,41167,,,-1,-1,,,,0.112
HuffTest1,nexpx6jn4t,Anie_Ex1A,1,2,2021-04-05T21:04:22+00:00,1.6645448207855,3,Stim_C.csv,VersionC.csv,"Version C","Version C",,,,,,0,Instruct,User,-,"You will now begin the study. Click next when you are ready to begin.",,Instruct16,1370,,,-1,-1,,,,1
HuffTest1,nexpx6jn4t,Anie_Ex1A,1,3,2021-04-05T21:04:26+00:00,4.0826530456543,3,Stim_C.csv,VersionC.csv,"Version C","Version C",aroma,,Win_1,SF,,2,Study_SF,User,2.5,,Smell,Win_1,3456,,,-1,-1,,,,1
HuffTest1,nexpx6jn4t,Anie_Ex1A,1,4,2021-04-05T21:04:30+00:00,3.2171819210052,3,Stim_C.csv,VersionC.csv,"Version C","Version C",scent,,Win_2,SF,,3,Study_SF,User,2.5,,Smell,Win_2,2895,,,-1,-1,,,,1
HuffTest1,nexpx6jn4t,Anie_Ex1A,1,5,2021-04-05T21:04:33+00:00,3.2436380386353,3,Stim_C.csv,VersionC.csv,"Version C","Version C",whiff,,Win_3,SF,,4,Study_SF,User,2.5,,Smell,Win_3,2917,,,-1,-1,,,,1
HuffTest1,nexpx6jn4t,Anie_Ex1A,1,6,2021-04-05T21:04:36+00:00,3.2777111530304,3,Stim_C.csv,VersionC.csv,"Version C","Version C",stench,,Win_4,SF,,5,Study_SF,User,2.5,,Smell,Win_4,2954,,,-1,-1,,,,1
HuffTest1,nexpx6jn4t,Anie_Ex1A,1,7,2021-04-05T21:04:45+00:00,8.6271889209747,3,Stim_C.csv,VersionC.csv,"Version C","Version C",reek,,Win_5,SF,,6,Study_SF,User,2.5,,Smell,Win_5,8276,,,-1,-1,,,,1
HuffTest1,nexpx6jn4t,Anie_Ex1A,1,8,2021-04-05T21:04:50+00:00,4.9685900211334,3,Stim_C.csv,VersionC.csv,"Version C","Version C",sniff,,Win_6,SF,,7,Study_SF,User,2.5,,Smell,Win_6,4644,,,-1,-1,,,,1
HuffTest1,nexpx6jn4t,Anie_Ex1A,1,9,2021-04-05T21:05:06+00:00,16.732064962387,3,Stim_C.csv,VersionC.csv,"Version C","Version C",perfume,,Win_7,SF,,8,Study_SF,User,2.5,,Smell,Win_7,16323,,,-1,-1,,,,0.4
HuffTest1,nexpx6jn4t,Anie_Ex1A,1,10,2021-04-05T21:05:10+00:00,3.4064490795135,3,Stim_C.csv,VersionC.csv,"Version C","Version C",fragrance,,Win_8,SF,,9,Study_SF,User,2.5,,Smell,Win_8,3032,,,-1,-1,,,,1
HuffTest1,nexpx6jn4t,Anie_Ex1A,1,11,2021-04-05T21:05:13+00:00,3.2110359668732,3,Stim_C.csv,VersionC.csv,"Version C","Version C",nose,,Win_9,SF,,10,Study_SF,User,2.5,,Smell,Win_9,2862,,,-1,-1,,,,1
HuffTest1,nexpx6jn4t,Anie_Ex1A,1,12,2021-04-05T21:05:16+00:00,3.3034889698029,3,Stim_C.csv,VersionC.csv,"Version C","Version C",rose,,Win_10,SF,,11,Study_SF,User,2.5,,Smell,Win_10,2974,,,-1,-1,,,,1
HuffTest1,nexpx6jn4t,Anie_Ex1A,1,13,2021-04-05T21:05:19+00:00,3.1690180301666,3,Stim_C.csv,VersionC.csv,"Version C","Version C",salts,,Win_11,SF,,12,Study_SF,User,2.5,,Smell,Win_11,2841,,,-1,-1,,,,1
HuffTest1,nexpx6jn4t,Anie_Ex1A,1,14,2021-04-05T21:05:23+00:00,3.2221949100494,3,Stim_C.csv,VersionC.csv,"Version C","Version C",breathe,,Win_12,SF,,13,Study_SF,User,2.5,,Smell,Win_12,2884,,,-1,-1,,,,1
HuffTest1,nexpx6jn4t,Anie_Ex1A,1,15,2021-04-05T21:05:26+00:00,2.809662103653,3,Stim_C.csv,VersionC.csv,"Version C","Version C",,,,,,0,Instruct,User,-,"You have completed this section. Please click next.",,Instruct166,2473,,,-1,-1,,,,1
HuffTest1,nexpx6jn4t,Anie_Ex1A,1,16,2021-04-05T21:05:56+00:00,30.391236066818,3,Stim_C.csv,VersionC.csv,"Version C","Version C",,,,,,0,FreeRecall,30,30,"Please type as many words as you can that begin with the letter ""T"". The computer will automatically advance to the next screen in 30 seconds.",,FILLER,30004,,0,-1,-1,0,0,,0.907
HuffTest1,nexpx6jn4t,Anie_Ex1A,1,17,2021-04-05T21:06:05+00:00,9.2455139160156,3,Stim_C.csv,VersionC.csv,"Version C","Version C",,,,,,0,Instruct,User,-,"You have completed this section. Please click next.",,Instruct166,8303,,,-1,-1,,,,1
HuffTest1,nexpx6jn4t,Anie_Ex1A,1,18,2021-04-05T21:06:07+00:00,1.9289309978485,3,Stim_C.csv,VersionC.csv,"Version C","Version C",,,,,,0,Instruct,User,-,"You will now complete a memory test for the words you just studied. Spelling will not count against you and you can recall the words in any order. This test will be timed for one minute, and the computer will automatically advance once time is up. Click next when you are ready to begin.",,Instruct1666,1620,,,-1,-1,,,,1
HuffTest1,nexpx6jn4t,Anie_Ex1A,1,19,2021-04-05T21:07:04+00:00,56.935755968094,3,Stim_C.csv,VersionC.csv,"Version C","Version C",,,,,,0,Instruct,User,-,"You will now complete a memory test for the words you just studied. Spelling will not count against you and you can recall the words in any order. This test will be timed for one minute, and the computer will automatically advance once time is up. Click next when you are ready to begin.",,RECALL_Test,1172,,,-1,-1,,,,1
HuffTest1,nexpx6jn4t,Anie_Ex1A,1,20,2021-04-05T21:07:08+00:00,4.1395680904388,3,Stim_C.csv,VersionC.csv,"Version C","Version C",,,,,,0,Instruct,3,-,"You will now be presented with a new study list. Click next when you are ready to begin.",,NEXT_LIST,3822,,,-1,-1,,,,0
HuffTest1,nexpx6jn4t,Anie_Ex1A,1,21,2021-04-05T21:07:32+00:00,24.340969800949,3,Stim_C.csv,VersionC.csv,"Version C","Version C",hard,,R1,Standard,,14,Study,User,2.5,,Soft,R1,23957,,,-1,-1,,,,0.167
HuffTest1,nexpx6jn4t,Anie_Ex1A,1,22,2021-04-05T21:07:44+00:00,11.705508232117,3,Stim_C.csv,VersionC.csv,"Version C","Version C",loud,,R2,Standard,,15,Study,User,2.5,,Soft,R2,3148,,,-1,-1,,,,1
HuffTest1,nexpx6jn4t,Anie_Ex1A,1,23,2021-04-05T21:07:48+00:00,3.6044459342957,3,Stim_C.csv,VersionC.csv,"Version C","Version C",tender,,R3,Standard,,16,Study,User,2.5,,Soft,R3,3242,,,-1,-1,,,,0.786
HuffTest1,nexpx6jn4t,Anie_Ex1A,1,24,2021-04-05T21:17:27+00:00,578.88289690018,3,Stim_C.csv,VersionC.csv,"Version C","Version C",fluffy,,R4,Standard,,17,Study,User,2.5,,Soft,R4,577897,,,-1,-1,,,,0.015
HuffTest1,nexpx6jn4t,Anie_Ex1A,1,25,2021-04-05T21:17:34+00:00,7.6749250888824,3,Stim_C.csv,VersionC.csv,"Version C","Version C",pillow,,R5,Standard,,18,Study,User,2.5,,Soft,R5,7279,,,-1,-1,,,,0.676
HuffTest1,nexpx6jn4t,Anie_Ex1A,1,26,2021-04-05T21:17:38+00:00,3.23273396492,3,Stim_C.csv,VersionC.csv,"Version C","Version C",downy,,R6,Standard,,19,Study,User,2.5,,Soft,R6,2891,,,-1,-1,,,,1
HuffTest1,nexpx6jn4t,Anie_Ex1A,1,27,2021-04-05T21:17:41+00:00,3.2227408885956,3,Stim_C.csv,VersionC.csv,"Version C","Version C",plush,,R7,Standard,,20,Study,User,2.5,,Soft,R7,2868,,,-1,-1,,,,1
HuffTest1,nexpx6jn4t,Anie_Ex1A,1,28,2021-04-05T21:17:44+00:00,3.2590169906616,3,Stim_C.csv,VersionC.csv,"Version C","Version C",cotton,,R8,Standard,,21,Study,User,2.5,,Soft,R8,2934,,,-1,-1,,,,1
HuffTest1,nexpx6jn4t,Anie_Ex1A,1,29,2021-04-05T21:17:47+00:00,3.1861090660095,3,Stim_C.csv,VersionC.csv,"Version C","Version C",skin,,R9,Standard,,22,Study,User,2.5,,Soft,R9,2862,,,-1,-1,,,,1
HuffTest1,nexpx6jn4t,Anie_Ex1A,1,30,2021-04-05T21:17:50+00:00,3.2038111686707,3,Stim_C.csv,VersionC.csv,"Version C","Version C",fur,,R10,Standard,,23,Study,User,2.5,,Soft,R10,2866,,,-1,-1,,,,1
HuffTest1,nexpx6jn4t,Anie_Ex1A,1,31,2021-04-05T21:17:54+00:00,3.1703789234161,3,Stim_C.csv,VersionC.csv,"Version C","Version C",touch,,R11,Standard,,24,Study,User,2.5,,Soft,R11,2831,,,-1,-1,,,,1
HuffTest1,nexpx6jn4t,Anie_Ex1A,1,32,2021-04-05T21:17:57+00:00,3.2312650680542,3,Stim_C.csv,VersionC.csv,"Version C","Version C",furry,,R12,Standard,,25,Study,User,2.5,,Soft,R12,2877,,,-1,-1,,,,1
HuffTest1,nexpx6jn4t,Anie_Ex1A,1,33,2021-04-05T21:17:59+00:00,1.9027299880981,3,Stim_C.csv,VersionC.csv,"Version C","Version C",,,,,,0,Instruct,User,-,"You have completed this section. Please click next.",,Instruct166,1658,,,-1,-1,,,,1
HuffTest1,nexpx6jn4t,Anie_Ex1A,1,34,2021-04-05T21:18:29+00:00,30.319255828857,3,Stim_C.csv,VersionC.csv,"Version C","Version C",,,,,,0,FreeRecall,30,30,"Please type as many words as you can that begin with the letter ""R"". The computer will automatically advance to the next screen in 30 seconds.",,FILLER,30001,,0,-1,-1,0,0,,0.798
HuffTest1,nexpx6jn4t,Anie_Ex1A,1,35,2021-04-05T21:18:33+00:00,3.9906921386719,3,Stim_C.csv,VersionC.csv,"Version C","Version C",,,,,,0,Instruct,User,-,"You have completed this section. Please click next.",,Instruct166,3607,,,-1,-1,,,,1
HuffTest1,nexpx6jn4t,Anie_Ex1A,1,36,2021-04-05T21:18:36+00:00,2.5183260440826,3,Stim_C.csv,VersionC.csv,"Version C","Version C",,,,,,0,Instruct,User,-,"You will now complete a memory test for the words you just studied. Spelling will not count against you and you can recall the words in any order. This test will be timed for one minute, and the computer will automatically advance once time is up. Click next when you are ready to begin.",,Instruct1666,2170,,,-1,-1,,,,1
HuffTest1,nexpx6jn4t,Anie_Ex1A,1,37,2021-04-05T21:19:36+00:00,60.327973842621,3,Stim_C.csv,VersionC.csv,"Version C","Version C",,,,,,0,FreeRecall,60,60,"Type as many words as you can from the previous list in any order. Spelling will not count against you. This screen will automatically advance in one minute.",,RECALL_Test,60001,,0,-1,-1,0,0,,1
HuffTest1,nexpx6jn4t,Anie_Ex1A,1,38,2021-04-05T21:19:39+00:00,3.3897180557251,3,Stim_C.csv,VersionC.csv,"Version C","Version C",,,,,,0,Instruct,3,-,"You will now be presented with a new study list. Click next when you are ready to begin.",,NEXT_LIST,3002,,,-1,-1,,,,1
HuffTest1,nexpx6jn4t,Anie_Ex1A,1,39,2021-04-05T21:19:43+00:00,3.6307299137115,3,Stim_C.csv,VersionC.csv,"Version C","Version C",honey,,A1,SF,,26,Study_SF,User,2.5,,Sweet,A1,3269,,,-1,-1,,,,1
HuffTest1,nexpx6jn4t,Anie_Ex1A,1,40,2021-04-05T21:19:46+00:00,3.2881960868835,3,Stim_C.csv,VersionC.csv,"Version C","Version C",bitter,,A2,SF,,27,Study_SF,User,2.5,,Sweet,A2,2966,,,-1,-1,,,,1
