Username,ID,ExperimentName,Session,Trial,Date,TimeDif,"Condition Number","Stimuli File","Order File","Condition Description","Condition Notes",Stimuli*Cue,Stimuli*Answer,Stimuli*Shuffle,"Stimuli*Stimuli Notes",Stimuli*Value,Procedure*Item,"Procedure*Trial Type","Procedure*Max Time","Procedure*Min Time",Procedure*Text,"Procedure*Procedure Notes",Procedure*Shuffle,Response*RT,Response*Response,Response*Accuracy,Response*RTfirst,Response*RTlast,Response*strictAcc,Response*lenientAcc,Response*focus,Response*JOL,Response*Focus
60ff2b5ee0fd69cbf82cd071,eq8uq6i4dj,Ex2A_Prolific,1,1,2024-02-29T00:29:02+00:00,6.8710589408875,6,Stim_B.csv,Item.csv,Item,B,,,,,,0,Instruct,-,5,"In this section, you will be presented with a series of words. Please study each word carefully. Your memory will be tested!",Initial_Instruct,Instruct1,6485,,,-1,-1,,,,,1
60ff2b5ee0fd69cbf82cd071,eq8uq6i4dj,Ex2A_Prolific,1,2,2024-02-29T00:29:10+00:00,8.2692019939423,6,Stim_B.csv,Item.csv,Item,B,,,,,,0,Instruct,-,5,"As you study, you will be asked to rate your ability to remember each item on a later memory test using a 0-100 scale. For example, if you study the word DOG, a rating of 0 indicates that you would not remember DOG at test, while a rating of 100 indicates full certainty that you would remember the word DOG at test.",,Instruct13,7797,,,-1,-1,,,,,1
60ff2b5ee0fd69cbf82cd071,eq8uq6i4dj,Ex2A_Prolific,1,3,2024-02-29T00:29:21+00:00,11.059668064117,6,Stim_B.csv,Item.csv,Item,B,,,,,,0,Instruct,-,10,"When making your ratings, it is criticial that you use the full range of the scale. You will be disqualified for only giving ratings of 0 or 100!",,Instruct15,10584,,,-1,-1,,,,,1
60ff2b5ee0fd69cbf82cd071,eq8uq6i4dj,Ex2A_Prolific,1,4,2024-02-29T00:29:23+00:00,2.4386119842529,6,Stim_B.csv,Item.csv,Item,B,,,,,,0,Instruct,User,-,"You will now begin the study. Click next when you are ready to begin.",,Instruct16,2103,,,-1,-1,,,,,1
60ff2b5ee0fd69cbf82cd071,eq8uq6i4dj,Ex2A_Prolific,1,5,2024-02-29T00:29:40+00:00,16.432781934738,6,Stim_B.csv,Item.csv,Item,B,aroma,,Win_1,,,2,JOL,User,1.25,"How likely are you to correctly recall the second item in the pair?|Type your response on a scale from 0-100 and then press Enter.",Window,Win_1,15939,,,15210,15705,,,,53,1
60ff2b5ee0fd69cbf82cd071,eq8uq6i4dj,Ex2A_Prolific,1,6,2024-02-29T00:29:42+00:00,2.4482281208038,6,Stim_B.csv,Item.csv,Item,B,scent,,Win_2,,,3,JOL,User,1.25,"How likely are you to correctly recall the second item in the pair?|Type your response on a scale from 0-100 and then press Enter.",Window,Win_2,1975,,,1582,1773,,,,54,1
60ff2b5ee0fd69cbf82cd071,eq8uq6i4dj,Ex2A_Prolific,1,7,2024-02-29T00:29:44+00:00,1.6591639518738,6,Stim_B.csv,Item.csv,Item,B,whiff,,Win_3,,,4,JOL,User,1.25,"How likely are you to correctly recall the second item in the pair?|Type your response on a scale from 0-100 and then press Enter.",Window,Win_3,1333,,,1002,1151,,,,84,1
60ff2b5ee0fd69cbf82cd071,eq8uq6i4dj,Ex2A_Prolific,1,8,2024-02-29T00:29:46+00:00,2.386234998703,6,Stim_B.csv,Item.csv,Item,B,stench,,Win_4,,,5,JOL,User,1.25,"How likely are you to correctly recall the second item in the pair?|Type your response on a scale from 0-100 and then press Enter.",Window,Win_4,1953,,,824,1022,,,,34,1
60ff2b5ee0fd69cbf82cd071,eq8uq6i4dj,Ex2A_Prolific,1,9,2024-02-29T00:29:50+00:00,3.8911960124969,6,Stim_B.csv,Item.csv,Item,B,reek,,Win_5,,,6,JOL,User,1.25,"How likely are you to correctly recall the second item in the pair?|Type your response on a scale from 0-100 and then press Enter.",Window,Win_5,3534,,,672,3268,,,,90,1
60ff2b5ee0fd69cbf82cd071,eq8uq6i4dj,Ex2A_Prolific,1,10,2024-02-29T00:29:54+00:00,3.2780539989471,6,Stim_B.csv,Item.csv,Item,B,sniff,,Win_6,,,7,JOL,User,1.25,"How likely are you to correctly recall the second item in the pair?|Type your response on a scale from 0-100 and then press Enter.",Window,Win_6,2806,,,888,2635,,,,45,1
60ff2b5ee0fd69cbf82cd071,eq8uq6i4dj,Ex2A_Prolific,1,11,2024-02-29T00:29:56+00:00,2.5928640365601,6,Stim_B.csv,Item.csv,Item,B,perfume,,Win_7,,,8,JOL,User,1.25,"How likely are you to correctly recall the second item in the pair?|Type your response on a scale from 0-100 and then press Enter.",Window,Win_7,2091,,,1696,1809,,,,99,1
60ff2b5ee0fd69cbf82cd071,eq8uq6i4dj,Ex2A_Prolific,1,12,2024-02-29T00:29:59+00:00,2.5280950069427,6,Stim_B.csv,Item.csv,Item,B,fragrance,,Win_8,,,9,JOL,User,1.25,"How likely are you to correctly recall the second item in the pair?|Type your response on a scale from 0-100 and then press Enter.",Window,Win_8,2179,,,1659,1899,,,,100,1
60ff2b5ee0fd69cbf82cd071,eq8uq6i4dj,Ex2A_Prolific,1,13,2024-02-29T00:30:01+00:00,2.8242199420929,6,Stim_B.csv,Item.csv,Item,B,nose,,Win_9,,,10,JOL,User,1.25,"How likely are you to correctly recall the second item in the pair?|Type your response on a scale from 0-100 and then press Enter.",Window,Win_9,2351,,,928,1105,,,,45,1
60ff2b5ee0fd69cbf82cd071,eq8uq6i4dj,Ex2A_Prolific,1,14,2024-02-29T00:30:03+00:00,1.9938530921936,6,Stim_B.csv,Item.csv,Item,B,rose,,Win_10,,,11,JOL,User,1.25,"How likely are you to correctly recall the second item in the pair?|Type your response on a scale from 0-100 and then press Enter.",Window,Win_10,1618,,,603,801,,,,65,1
60ff2b5ee0fd69cbf82cd071,eq8uq6i4dj,Ex2A_Prolific,1,15,2024-02-29T00:30:05+00:00,1.8809199333191,6,Stim_B.csv,Item.csv,Item,B,salts,,Win_11,,,12,JOL,User,1.25,"How likely are you to correctly recall the second item in the pair?|Type your response on a scale from 0-100 and then press Enter.",Window,Win_11,1541,,,384,540,,,,32,1
60ff2b5ee0fd69cbf82cd071,eq8uq6i4dj,Ex2A_Prolific,1,16,2024-02-29T00:30:07+00:00,1.9595379829407,6,Stim_B.csv,Item.csv,Item,B,breathe,,Win_12,,,13,JOL,User,1.25,"How likely are you to correctly recall the second item in the pair?|Type your response on a scale from 0-100 and then press Enter.",Window,Win_12,1516,,,356,486,,,,87,1
60ff2b5ee0fd69cbf82cd071,eq8uq6i4dj,Ex2A_Prolific,1,17,2024-02-29T00:30:09+00:00,1.9318339824677,6,Stim_B.csv,Item.csv,Item,B,,,,,,0,Instruct,User,-,"You have completed this section. Please click next.",,Instruct166,1564,,,442,537,,,,,1
60ff2b5ee0fd69cbf82cd071,eq8uq6i4dj,Ex2A_Prolific,1,18,2024-02-29T00:30:40+00:00,30.534346103668,6,Stim_B.csv,Item.csv,Item,B,,,,,,0,FreeRecall,30,30,"Please type as many words as you can that begin with the letter ""W"". The computer will automatically advance to the next screen in 30 seconds.",,FILLER,30009,"whale white when where what whiteborad w",0,1411,29239,0,0,,,1
60ff2b5ee0fd69cbf82cd071,eq8uq6i4dj,Ex2A_Prolific,1,19,2024-02-29T00:30:45+00:00,5.2598750591278,6,Stim_B.csv,Item.csv,Item,B,,,,,,0,Instruct,User,4,"You have completed this section. Please click next.",,Instruct166,4743,,,-1,-1,,,,,1
60ff2b5ee0fd69cbf82cd071,eq8uq6i4dj,Ex2A_Prolific,1,20,2024-02-29T00:30:50+00:00,5.3399958610535,6,Stim_B.csv,Item.csv,Item,B,,,,,,0,Instruct,User,4,"You will now complete a memory test for the words you just studied. Please type as many words from the previous list as you can seperated by a comma. Spelling will not count against you and you can recall the words in any order. This test will be timed for one minute, and the computer will automatically advance once time is up. Click next when you are ready to begin.",,Instruct1666,4820,,,-1,-1,,,,,1
60ff2b5ee0fd69cbf82cd071,eq8uq6i4dj,Ex2A_Prolific,1,21,2024-02-29T00:31:51+00:00,60.536657094955,6,Stim_B.csv,Item.csv,Item,B,,,,,,0,FreeRecall,60,60,"Please type as many words as you can from the previous study list in any order. Please separate each word with a comma. Spelling will not count against you. This screen will automatically advance in one minute.",,RECALL_Test,60006,"fragrance, reek, rose, aroma, perfume smell nose ",0,2371,59456,0,0,,,1
60ff2b5ee0fd69cbf82cd071,eq8uq6i4dj,Ex2A_Prolific,1,22,2024-02-29T00:31:55+00:00,4.0452318191528,6,Stim_B.csv,Item.csv,Item,B,,,,,,0,Instruct,User,3,"You will now be presented with a new study list. Click next when you are ready to begin.",,NEXT_LIST,3482,,,-1,-1,,,,,1
60ff2b5ee0fd69cbf82cd071,eq8uq6i4dj,Ex2A_Prolific,1,23,2024-02-29T00:32:07+00:00,12.332744121552,6,Stim_B.csv,Item.csv,Item,B,hard,,R1,,,14,JOL,User,1.25,"How likely are you to correctly recall the second item in the pair?|Type your response on a scale from 0-100 and then press Enter.",Rough,R1,11889,,,9746,11776,,,,56,1
60ff2b5ee0fd69cbf82cd071,eq8uq6i4dj,Ex2A_Prolific,1,24,2024-02-29T00:32:13+00:00,5.2261018753052,6,Stim_B.csv,Item.csv,Item,B,loud,,R2,,,15,JOL,User,1.25,"How likely are you to correctly recall the second item in the pair?|Type your response on a scale from 0-100 and then press Enter.",Rough,R2,4757,,,4134,4310,,,,89,1
60ff2b5ee0fd69cbf82cd071,eq8uq6i4dj,Ex2A_Prolific,1,25,2024-02-29T00:32:15+00:00,2.8799831867218,6,Stim_B.csv,Item.csv,Item,B,tender,,R3,,,16,JOL,User,1.25,"How likely are you to correctly recall the second item in the pair?|Type your response on a scale from 0-100 and then press Enter.",Rough,R3,2545,,,2280,2432,,,,45,1
60ff2b5ee0fd69cbf82cd071,eq8uq6i4dj,Ex2A_Prolific,1,26,2024-02-29T00:32:19+00:00,3.8438258171082,6,Stim_B.csv,Item.csv,Item,B,fluffy,,R4,,,17,JOL,User,1.25,"How likely are you to correctly recall the second item in the pair?|Type your response on a scale from 0-100 and then press Enter.",Rough,R4,3502,,,2981,3298,,,,100,1
60ff2b5ee0fd69cbf82cd071,eq8uq6i4dj,Ex2A_Prolific,1,27,2024-02-29T00:32:22+00:00,3.1754250526428,6,Stim_B.csv,Item.csv,Item,B,pillow,,R5,,,18,JOL,User,1.25,"How likely are you to correctly recall the second item in the pair?|Type your response on a scale from 0-100 and then press Enter.",Rough,R5,2707,,,2382,2483,,,,29,1
60ff2b5ee0fd69cbf82cd071,eq8uq6i4dj,Ex2A_Prolific,1,28,2024-02-29T00:32:25+00:00,2.8449511528015,6,Stim_B.csv,Item.csv,Item,B,downy,,R6,,,19,JOL,User,1.25,"How likely are you to correctly recall the second item in the pair?|Type your response on a scale from 0-100 and then press Enter.",Rough,R6,2463,,,2070,2172,,,,46,1
60ff2b5ee0fd69cbf82cd071,eq8uq6i4dj,Ex2A_Prolific,1,29,2024-02-29T00:32:28+00:00,2.48490691185,6,Stim_B.csv,Item.csv,Item,B,plush,,R7,,,20,JOL,User,1.25,"How likely are you to correctly recall the second item in the pair?|Type your response on a scale from 0-100 and then press Enter.",Rough,R7,2152,,,1816,1900,,,,78,1
60ff2b5ee0fd69cbf82cd071,eq8uq6i4dj,Ex2A_Prolific,1,30,2024-02-29T00:32:30+00:00,2.6886270046234,6,Stim_B.csv,Item.csv,Item,B,cotton,,R8,,,21,JOL,User,1.25,"How likely are you to correctly recall the second item in the pair?|Type your response on a scale from 0-100 and then press Enter.",Rough,R8,2312,,,1676,2097,,,,39,1
60ff2b5ee0fd69cbf82cd071,eq8uq6i4dj,Ex2A_Prolific,1,31,2024-02-29T00:32:33+00:00,2.8268930912018,6,Stim_B.csv,Item.csv,Item,B,skin,,R9,,,22,JOL,User,1.25,"How likely are you to correctly recall the second item in the pair?|Type your response on a scale from 0-100 and then press Enter.",Rough,R9,2388,,,2068,2188,,,,86,1
60ff2b5ee0fd69cbf82cd071,eq8uq6i4dj,Ex2A_Prolific,1,32,2024-02-29T00:32:37+00:00,3.3156368732452,6,Stim_B.csv,Item.csv,Item,B,fur,,R10,,,23,JOL,User,1.25,"How likely are you to correctly recall the second item in the pair?|Type your response on a scale from 0-100 and then press Enter.",Rough,R10,2964,,,2430,2676,,,,68,1
60ff2b5ee0fd69cbf82cd071,eq8uq6i4dj,Ex2A_Prolific,1,33,2024-02-29T00:32:40+00:00,3.0940589904785,6,Stim_B.csv,Item.csv,Item,B,touch,,R11,,,24,JOL,User,1.25,"How likely are you to correctly recall the second item in the pair?|Type your response on a scale from 0-100 and then press Enter.",Rough,R11,2733,,,2419,2562,,,,94,1
60ff2b5ee0fd69cbf82cd071,eq8uq6i4dj,Ex2A_Prolific,1,34,2024-02-29T00:32:42+00:00,2.4503800868988,6,Stim_B.csv,Item.csv,Item,B,furry,,R12,,,25,JOL,User,1.25,"How likely are you to correctly recall the second item in the pair?|Type your response on a scale from 0-100 and then press Enter.",Rough,R12,1973,,,1714,1850,,,,45,1
60ff2b5ee0fd69cbf82cd071,eq8uq6i4dj,Ex2A_Prolific,1,35,2024-02-29T00:32:47+00:00,4.9478979110718,6,Stim_B.csv,Item.csv,Item,B,,,,,,0,Instruct,User,4,"You have completed this section. Please click next.",,Instruct166,4483,,,-1,-1,,,,,1
60ff2b5ee0fd69cbf82cd071,eq8uq6i4dj,Ex2A_Prolific,1,36,2024-02-29T00:33:18+00:00,30.547778129578,6,Stim_B.csv,Item.csv,Item,B,,,,,,0,FreeRecall,30,30,"Please type as many words as you can that begin with the letter ""N"". The computer will automatically advance to the next screen in 30 seconds.",,FILLER,30004,"nose nest nine never nope no navel navy nevermind noon ",0,2122,28340,0,0,,,1
60ff2b5ee0fd69cbf82cd071,eq8uq6i4dj,Ex2A_Prolific,1,37,2024-02-29T00:33:20+00:00,1.9800009727478,6,Stim_B.csv,Item.csv,Item,B,,,,,,0,Instruct,User,-,"You have completed this section. Please click next.",,Instruct166,1610,,,-1,-1,,,,,1
60ff2b5ee0fd69cbf82cd071,eq8uq6i4dj,Ex2A_Prolific,1,38,2024-02-29T00:33:24+00:00,4.8644919395447,6,Stim_B.csv,Item.csv,Item,B,,,,,,0,Instruct,User,4,"You will now complete a memory test for the words you just studied. Please type as many words from the previous list as you can seperated by a comma. Spelling will not count against you and you can recall the words in any order. This test will be timed for one minute, and the computer will automatically advance once time is up. Click next when you are ready to begin.",,Instruct1666,4411,,,-1,-1,,,,,1
60ff2b5ee0fd69cbf82cd071,eq8uq6i4dj,Ex2A_Prolific,1,39,2024-02-29T00:34:25+00:00,60.534836053848,6,Stim_B.csv,Item.csv,Item,B,,,,,,0,FreeRecall,60,60,"Please type as many words as you can from the previous study list in any order. Please separate each word with a comma. Spelling will not count against you. This screen will automatically advance in one minute.",,RECALL_Test,60004,"hard, touch, fur, pillow, tender, loud, cotton, skin",0,2179,42671,0,0,,,1
60ff2b5ee0fd69cbf82cd071,eq8uq6i4dj,Ex2A_Prolific,1,40,2024-02-29T00:34:33+00:00,7.5775890350342,6,Stim_B.csv,Item.csv,Item,B,,,,,,0,Instruct,User,3,"You will now be presented with a new study list. Click next when you are ready to begin.",,NEXT_LIST,7042,,,-1,-1,,,,,1
60ff2b5ee0fd69cbf82cd071,eq8uq6i4dj,Ex2A_Prolific,1,41,2024-02-29T00:34:36+00:00,3.5614829063416,6,Stim_B.csv,Item.csv,Item,B,honey,,A1,,,26,JOL,User,1.25,"How likely are you to correctly recall the second item in the pair?|Type your response on a scale from 0-100 and then press Enter.",Anger,A1,3173,,,2675,2866,,,,98,1
60ff2b5ee0fd69cbf82cd071,eq8uq6i4dj,Ex2A_Prolific,1,42,2024-02-29T00:34:39+00:00,2.4623999595642,6,Stim_B.csv,Item.csv,Item,B,bitter,,A2,,,27,JOL,User,1.25,"How likely are you to correctly recall the second item in the pair?|Type your response on a scale from 0-100 and then press Enter.",Anger,A2,2122,,,1654,1817,,,,67,1
60ff2b5ee0fd69cbf82cd071,eq8uq6i4dj,Ex2A_Prolific,1,43,2024-02-29T00:34:42+00:00,3.857351064682,6,Stim_B.csv,Item.csv,Item,B,sugar,,A3,,,28,JOL,User,1.25,"How likely are you to correctly recall the second item in the pair?|Type your response on a scale from 0-100 and then press Enter.",Anger,A3,3377,,,2750,3029,,,,75,1
60ff2b5ee0fd69cbf82cd071,eq8uq6i4dj,Ex2A_Prolific,1,44,2024-02-29T00:34:47+00:00,4.1377320289612,6,Stim_B.csv,Item.csv,Item,B,sour,,A4,,,29,JOL,User,1.25,"How likely are you to correctly recall the second item in the pair?|Type your response on a scale from 0-100 and then press Enter.",Anger,A4,3769,,,3084,3299,,,,48,1
60ff2b5ee0fd69cbf82cd071,eq8uq6i4dj,Ex2A_Prolific,1,45,2024-02-29T00:34:49+00:00,2.2718598842621,6,Stim_B.csv,Item.csv,Item,B,candy,,A5,,,30,JOL,User,1.25,"How likely are you to correctly recall the second item in the pair?|Type your response on a scale from 0-100 and then press Enter.",Anger,A5,1932,,,1511,1664,,,,98,1
60ff2b5ee0fd69cbf82cd071,eq8uq6i4dj,Ex2A_Prolific,1,46,2024-02-29T00:34:52+00:00,3.4932539463043,6,Stim_B.csv,Item.csv,Item,B,tart,,A6,,,31,JOL,User,1.25,"How likely are you to correctly recall the second item in the pair?|Type your response on a scale from 0-100 and then press Enter.",Anger,A6,2990,,,846,1018,,,,65,1
60ff2b5ee0fd69cbf82cd071,eq8uq6i4dj,Ex2A_Prolific,1,47,2024-02-29T00:34:55+00:00,2.2299201488495,6,Stim_B.csv,Item.csv,Item,B,chocolate,,A7,,,32,JOL,User,1.25,"How likely are you to correctly recall the second item in the pair?|Type your response on a scale from 0-100 and then press Enter.",Anger,A7,1877,,,1443,1588,,,,99,1
60ff2b5ee0fd69cbf82cd071,eq8uq6i4dj,Ex2A_Prolific,1,48,2024-02-29T00:35:01+00:00,6.2041220664978,6,Stim_B.csv,Item.csv,Item,B,nice,,A8,,,33,JOL,User,1.25,"How likely are you to correctly recall the second item in the pair?|Type your response on a scale from 0-100 and then press Enter.",Anger,A8,5827,,,5321,5511,,,,96,1
60ff2b5ee0fd69cbf82cd071,eq8uq6i4dj,Ex2A_Prolific,1,49,2024-02-29T00:35:03+00:00,2.4300220012665,6,Stim_B.csv,Item.csv,Item,B,taste,,A9,,,34,JOL,User,1.25,"How likely are you to correctly recall the second item in the pair?|Type your response on a scale from 0-100 and then press Enter.",Anger,A9,1976,,,1457,1682,,,,56,1
60ff2b5ee0fd69cbf82cd071,eq8uq6i4dj,Ex2A_Prolific,1,50,2024-02-29T00:35:06+00:00,2.3213658332825,6,Stim_B.csv,Item.csv,Item,B,cake,,A10,,,35,JOL,User,1.25,"How likely are you to correctly recall the second item in the pair?|Type your response on a scale from 0-100 and then press Enter.",Anger,A10,2002,,,975,1229,,,,75,1
60ff2b5ee0fd69cbf82cd071,eq8uq6i4dj,Ex2A_Prolific,1,51,2024-02-29T00:35:09+00:00,3.3046109676361,6,Stim_B.csv,Item.csv,Item,B,good,,A11,,,36,JOL,User,1.25,"How likely are you to correctly recall the second item in the pair?|Type your response on a scale from 0-100 and then press Enter.",Anger,A11,2954,,,1218,1389,,,,87,1
60ff2b5ee0fd69cbf82cd071,eq8uq6i4dj,Ex2A_Prolific,1,52,2024-02-29T00:35:11+00:00,2.3639600276947,6,Stim_B.csv,Item.csv,Item,B,tooth,,A12,,,37,JOL,User,1.25,"How likely are you to correctly recall the second item in the pair?|Type your response on a scale from 0-100 and then press Enter.",Anger,A12,1883,,,997,1153,,,,99,1
60ff2b5ee0fd69cbf82cd071,eq8uq6i4dj,Ex2A_Prolific,1,53,2024-02-29T00:35:14+00:00,2.547966003418,6,Stim_B.csv,Item.csv,Item,B,,,,,,0,Instruct,User,-,"You have completed this section. Please click next.",,Instruct166,2245,,,-1,-1,,,,,1
60ff2b5ee0fd69cbf82cd071,eq8uq6i4dj,Ex2A_Prolific,1,54,2024-02-29T00:35:44+00:00,30.559056043625,6,Stim_B.csv,Item.csv,Item,B,,,,,,0,FreeRecall,30,30,"Please type as many words as you can that begin with the letter ""K"". The computer will automatically advance to the next screen in 30 seconds.",,FILLER,30026,"kickball kick knock knickers killer",0,1883,30007,0,0,,,1
60ff2b5ee0fd69cbf82cd071,eq8uq6i4dj,Ex2A_Prolific,1,55,2024-02-29T00:35:46+00:00,1.5677981376648,6,Stim_B.csv,Item.csv,Item,B,,,,,,0,Instruct,User,-,"You have completed this section. Please click next.",,Instruct166,1171,,,-1,-1,,,,,1
60ff2b5ee0fd69cbf82cd071,eq8uq6i4dj,Ex2A_Prolific,1,56,2024-02-29T00:35:52+00:00,5.9353158473969,6,Stim_B.csv,Item.csv,Item,B,,,,,,0,Instruct,User,4,"You will now complete a memory test for the words you just studied. Please type as many words from the previous list as you can seperated by a comma. Spelling will not count against you and you can recall the words in any order. This test will be timed for one minute, and the computer will automatically advance once time is up. Click next when you are ready to begin.",,Instruct1666,5477,,,-1,-1,,,,,1
60ff2b5ee0fd69cbf82cd071,eq8uq6i4dj,Ex2A_Prolific,1,57,2024-02-29T00:36:52+00:00,60.575067996979,6,Stim_B.csv,Item.csv,Item,B,,,,,,0,FreeRecall,60,60,"Please type as many words as you can from the previous study list in any order. Please separate each word with a comma. Spelling will not count against you. This screen will automatically advance in one minute.",,RECALL_Test,60007,"chocolate, good, tart, nice, taste, candy, sour, sugar, honey,",0,665,24167,0,0,,,1
60ff2b5ee0fd69cbf82cd071,eq8uq6i4dj,Ex2A_Prolific,1,58,2024-02-29T00:36:58+00:00,5.4492530822754,6,Stim_B.csv,Item.csv,Item,B,,,,,,0,Instruct,User,3,"You will now be presented with a new study list. Click next when you are ready to begin.",,NEXT_LIST,4953,,,-1,-1,,,,,1
60ff2b5ee0fd69cbf82cd071,eq8uq6i4dj,Ex2A_Prolific,1,59,2024-02-29T00:37:01+00:00,2.9894218444824,6,Stim_B.csv,Item.csv,Item,B,table,,T1,,,38,JOL,User,1.25,"How likely are you to correctly recall the second item in the pair?|Type your response on a scale from 0-100 and then press Enter.",Trash,T1,2613,,,2161,2287,,,,55,1
60ff2b5ee0fd69cbf82cd071,eq8uq6i4dj,Ex2A_Prolific,1,60,2024-02-29T00:37:03+00:00,2.6349201202393,6,Stim_B.csv,Item.csv,Item,B,swivel,,T2,,,39,JOL,User,1.25,"How likely are you to correctly recall the second item in the pair?|Type your response on a scale from 0-100 and then press Enter.",Trash,T2,2162,,,1651,1797,,,,34,1
60ff2b5ee0fd69cbf82cd071,eq8uq6i4dj,Ex2A_Prolific,1,61,2024-02-29T00:37:06+00:00,2.444659948349,6,Stim_B.csv,Item.csv,Item,B,rocking,,T3,,,40,JOL,User,1.25,"How likely are you to correctly recall the second item in the pair?|Type your response on a scale from 0-100 and then press Enter.",Trash,T3,2089,,,1601,1750,,,,76,1
60ff2b5ee0fd69cbf82cd071,eq8uq6i4dj,Ex2A_Prolific,1,62,2024-02-29T00:37:12+00:00,6.3439540863037,6,Stim_B.csv,Item.csv,Item,B,recliner,,T4,,,41,JOL,User,1.25,"How likely are you to correctly recall the second item in the pair?|Type your response on a scale from 0-100 and then press Enter.",Trash,T4,5884,,,1563,5300,,,,35,1
60ff2b5ee0fd69cbf82cd071,eq8uq6i4dj,Ex2A_Prolific,1,63,2024-02-29T00:37:15+00:00,2.3936309814453,6,Stim_B.csv,Item.csv,Item,B,seat,,T5,,,42,JOL,User,1.25,"How likely are you to correctly recall the second item in the pair?|Type your response on a scale from 0-100 and then press Enter.",Trash,T5,2030,,,1271,1440,,,,23,1
60ff2b5ee0fd69cbf82cd071,eq8uq6i4dj,Ex2A_Prolific,1,64,2024-02-29T00:37:18+00:00,3.4950189590454,6,Stim_B.csv,Item.csv,Item,B,stool,,T6,,,43,JOL,User,1.25,"How likely are you to correctly recall the second item in the pair?|Type your response on a scale from 0-100 and then press Enter.",Trash,T6,3011,,,2280,2518,,,,78,1
60ff2b5ee0fd69cbf82cd071,eq8uq6i4dj,Ex2A_Prolific,1,65,2024-02-29T00:37:22+00:00,3.4101600646973,6,Stim_B.csv,Item.csv,Item,B,desk,,T7,,,44,JOL,User,1.25,"How likely are you to correctly recall the second item in the pair?|Type your response on a scale from 0-100 and then press Enter.",Trash,T7,2974,,,1218,2646,,,,67,1
60ff2b5ee0fd69cbf82cd071,eq8uq6i4dj,Ex2A_Prolific,1,66,2024-02-29T00:37:25+00:00,3.0248398780823,6,Stim_B.csv,Item.csv,Item,B,couch,,T8,,,45,JOL,User,1.25,"How likely are you to correctly recall the second item in the pair?|Type your response on a scale from 0-100 and then press Enter.",Trash,T8,2565,,,997,1152,,,,98,1
60ff2b5ee0fd69cbf82cd071,eq8uq6i4dj,Ex2A_Prolific,1,67,2024-02-29T00:37:30+00:00,5.2957899570465,6,Stim_B.csv,Item.csv,Item,B,sit,,T9,,,46,JOL,User,1.25,"How likely are you to correctly recall the second item in the pair?|Type your response on a scale from 0-100 and then press Enter.",Trash,T9,4844,,,1405,3221,,,,52,1
60ff2b5ee0fd69cbf82cd071,eq8uq6i4dj,Ex2A_Prolific,1,68,2024-02-29T00:37:33+00:00,3.5885200500488,6,Stim_B.csv,Item.csv,Item,B,sofa,,T10,,,47,JOL,User,1.25,"How likely are you to correctly recall the second item in the pair?|Type your response on a scale from 0-100 and then press Enter.",Trash,T10,3118,,,972,1491,,,,32,1
60ff2b5ee0fd69cbf82cd071,eq8uq6i4dj,Ex2A_Prolific,1,69,2024-02-29T00:37:37+00:00,3.3905441761017,6,Stim_B.csv,Item.csv,Item,B,bench,,T11,,,48,JOL,User,1.25,"How likely are you to correctly recall the second item in the pair?|Type your response on a scale from 0-100 and then press Enter.",Trash,T11,2899,,,439,1543,,,,90,1
60ff2b5ee0fd69cbf82cd071,eq8uq6i4dj,Ex2A_Prolific,1,70,2024-02-29T00:37:41+00:00,4.4313259124756,6,Stim_B.csv,Item.csv,Item,B,sitting,,T12,,,49,JOL,User,1.25,"How likely are you to correctly recall the second item in the pair?|Type your response on a scale from 0-100 and then press Enter.",Trash,T12,4050,,,1784,2871,,,,99,1
60ff2b5ee0fd69cbf82cd071,eq8uq6i4dj,Ex2A_Prolific,1,71,2024-02-29T00:37:46+00:00,4.9219150543213,6,Stim_B.csv,Item.csv,Item,B,,,,,,0,Instruct,User,4,"You have completed this section. Please click next.",,Instruct166,4592,,,-1,-1,,,,,1
60ff2b5ee0fd69cbf82cd071,eq8uq6i4dj,Ex2A_Prolific,1,72,2024-02-29T00:38:17+00:00,30.512928009033,6,Stim_B.csv,Item.csv,Item,B,,,,,,0,FreeRecall,30,30,"Please type as many words as you can that begin with the letter ""R"". The computer will automatically advance to the next screen in 30 seconds.",,FILLER,30007,"rope rose roll rack ran run running rape right rhyme rang",0,1487,29372,0,0,,,1
60ff2b5ee0fd69cbf82cd071,eq8uq6i4dj,Ex2A_Prolific,1,73,2024-02-29T00:38:19+00:00,2.223415851593,6,Stim_B.csv,Item.csv,Item,B,,,,,,0,Instruct,User,-,"You have completed this section. Please click next.",,Instruct166,1853,,,-1,-1,,,,,1
60ff2b5ee0fd69cbf82cd071,eq8uq6i4dj,Ex2A_Prolific,1,74,2024-02-29T00:38:25+00:00,5.7879409790039,6,Stim_B.csv,Item.csv,Item,B,,,,,,0,Instruct,User,4,"You will now complete a memory test for the words you just studied. Please type as many words from the previous list as you can seperated by a comma. Spelling will not count against you and you can recall the words in any order. This test will be timed for one minute, and the computer will automatically advance once time is up. Click next when you are ready to begin.",,Instruct1666,5352,,,-1,-1,,,,,1
60ff2b5ee0fd69cbf82cd071,eq8uq6i4dj,Ex2A_Prolific,1,75,2024-02-29T00:39:25+00:00,60.56582403183,6,Stim_B.csv,Item.csv,Item,B,,,,,,0,FreeRecall,60,60,"Please type as many words as you can from the previous study list in any order. Please separate each word with a comma. Spelling will not count against you. This screen will automatically advance in one minute.",,RECALL_Test,60003,"sitting, bench, sit, sofa, chair, couch, stool, seat, recliner, rocking, table, desk, ",0,671,30907,0,0,,,1
60ff2b5ee0fd69cbf82cd071,eq8uq6i4dj,Ex2A_Prolific,1,76,2024-02-29T00:39:33+00:00,7.592668056488,6,Stim_B.csv,Item.csv,Item,B,,,,,,0,Instruct,User,3,"You will now be presented with a new study list. Click next when you are ready to begin.",,NEXT_LIST,7045,,,-1,-1,,,,,1
60ff2b5ee0fd69cbf82cd071,eq8uq6i4dj,Ex2A_Prolific,1,77,2024-02-29T00:39:37+00:00,4.0625150203705,6,Stim_B.csv,Item.csv,Item,B,climber,,D1,,,50,JOL,User,1.25,"How likely are you to correctly recall the second item in the pair?|Type your response on a scale from 0-100 and then press Enter.",Doctor,D1,3588,,,2247,2640,,,,53,1
60ff2b5ee0fd69cbf82cd071,eq8uq6i4dj,Ex2A_Prolific,1,78,2024-02-29T00:39:46+00:00,9.0390069484711,6,Stim_B.csv,Item.csv,Item,B,hill,,D2,,,51,JOL,User,1.25,"How likely are you to correctly recall the second item in the pair?|Type your response on a scale from 0-100 and then press Enter.",Doctor,D2,8568,,,2615,2735,,,,88,1
60ff2b5ee0fd69cbf82cd071,eq8uq6i4dj,Ex2A_Prolific,1,79,2024-02-29T00:39:51+00:00,5.0370299816132,6,Stim_B.csv,Item.csv,Item,B,climb,,D3,,,52,JOL,User,1.25,"How likely are you to correctly recall the second item in the pair?|Type your response on a scale from 0-100 and then press Enter.",Doctor,D3,4575,,,1471,1675,,,,67,1
60ff2b5ee0fd69cbf82cd071,eq8uq6i4dj,Ex2A_Prolific,1,80,2024-02-29T00:40:02+00:00,11.33612704277,6,Stim_B.csv,Item.csv,Item,B,molehill,,D4,,,53,JOL,User,1.25,"How likely are you to correctly recall the second item in the pair?|Type your response on a scale from 0-100 and then press Enter.",Doctor,D4,10878,,,734,3863,,,,32,1
60ff2b5ee0fd69cbf82cd071,eq8uq6i4dj,Ex2A_Prolific,1,81,2024-02-29T00:40:11+00:00,9.0819020271301,6,Stim_B.csv,Item.csv,Item,B,peak,,D5,,,54,JOL,User,1.25,"How likely are you to correctly recall the second item in the pair?|Type your response on a scale from 0-100 and then press Enter.",Doctor,D5,8564,,,1025,7423,,,,48,1
60ff2b5ee0fd69cbf82cd071,eq8uq6i4dj,Ex2A_Prolific,1,82,2024-02-29T00:40:14+00:00,2.6918098926544,6,Stim_B.csv,Item.csv,Item,B,valley,,D6,,,55,JOL,User,1.25,"How likely are you to correctly recall the second item in the pair?|Type your response on a scale from 0-100 and then press Enter.",Doctor,D6,2206,,,767,904,,,,67,1
60ff2b5ee0fd69cbf82cd071,eq8uq6i4dj,Ex2A_Prolific,1,83,2024-02-29T00:40:17+00:00,2.600170135498,6,Stim_B.csv,Item.csv,Item,B,summit,,D7,,,56,JOL,User,1.25,"How likely are you to correctly recall the second item in the pair?|Type your response on a scale from 0-100 and then press Enter.",Doctor,D7,2100,,,1670,1810,,,,89,1
60ff2b5ee0fd69cbf82cd071,eq8uq6i4dj,Ex2A_Prolific,1,84,2024-02-29T00:40:20+00:00,2.9482510089874,6,Stim_B.csv,Item.csv,Item,B,steep,,D8,,,57,JOL,User,1.25,"How likely are you to correctly recall the second item in the pair?|Type your response on a scale from 0-100 and then press Enter.",Doctor,D8,2619,,,1245,2116,,,,35,1
60ff2b5ee0fd69cbf82cd071,eq8uq6i4dj,Ex2A_Prolific,1,85,2024-02-29T00:40:24+00:00,4.0967888832092,6,Stim_B.csv,Item.csv,Item,B,ski,,D9,,,58,JOL,User,1.25,"How likely are you to correctly recall the second item in the pair?|Type your response on a scale from 0-100 and then press Enter.",Doctor,D9,3624,,,3183,3322,,,,99,1
60ff2b5ee0fd69cbf82cd071,eq8uq6i4dj,Ex2A_Prolific,1,86,2024-02-29T00:40:32+00:00,7.9119961261749,6,Stim_B.csv,Item.csv,Item,B,bike,,D10,,,59,JOL,User,1.25,"How likely are you to correctly recall the second item in the pair?|Type your response on a scale from 0-100 and then press Enter.",Doctor,D10,7481,,,2441,3038,,,,100,1
60ff2b5ee0fd69cbf82cd071,eq8uq6i4dj,Ex2A_Prolific,1,87,2024-02-29T00:40:35+00:00,2.9203548431396,6,Stim_B.csv,Item.csv,Item,B,goat,,D11,,,60,JOL,User,1.25,"How likely are you to correctly recall the second item in the pair?|Type your response on a scale from 0-100 and then press Enter.",Doctor,D11,2561,,,1325,1448,,,,99,1
60ff2b5ee0fd69cbf82cd071,eq8uq6i4dj,Ex2A_Prolific,1,88,2024-02-29T00:40:40+00:00,5.2549681663513,6,Stim_B.csv,Item.csv,Item,B,glacier,,D12,,,61,JOL,User,1.25,"How likely are you to correctly recall the second item in the pair?|Type your response on a scale from 0-100 and then press Enter.",Doctor,D12,4801,,,1898,3259,,,,51,1
60ff2b5ee0fd69cbf82cd071,eq8uq6i4dj,Ex2A_Prolific,1,89,2024-02-29T00:40:45+00:00,4.8837509155273,6,Stim_B.csv,Item.csv,Item,B,,,,,,0,Instruct,User,4,"You have completed this section. Please click next.",,Instruct166,4444,,,-1,-1,,,,,1
60ff2b5ee0fd69cbf82cd071,eq8uq6i4dj,Ex2A_Prolific,1,90,2024-02-29T00:41:15+00:00,30.503273010254,6,Stim_B.csv,Item.csv,Item,B,,,,,,0,FreeRecall,30,30,"Please type as many words as you can that begin with the letter ""C"". The computer will automatically advance to the next screen in 30 seconds.",,FILLER,30003,"cold cook cane crane candy cock curry country county court calling call ",0,1260,28456,0,0,,,1
60ff2b5ee0fd69cbf82cd071,eq8uq6i4dj,Ex2A_Prolific,1,91,2024-02-29T00:41:20+00:00,4.8111529350281,6,Stim_B.csv,Item.csv,Item,B,,,,,,0,Instruct,User,4,"You have completed this section. Please click next.",,Instruct166,4311,,,-1,-1,,,,,1
60ff2b5ee0fd69cbf82cd071,eq8uq6i4dj,Ex2A_Prolific,1,92,2024-02-29T00:41:25+00:00,4.933737039566,6,Stim_B.csv,Item.csv,Item,B,,,,,,0,Instruct,User,4,"You will now complete a memory test for the words you just studied. Please type as many words from the previous list as you can seperated by a comma. Spelling will not count against you and you can recall the words in any order. This test will be timed for one minute, and the computer will automatically advance once time is up. Click next when you are ready to begin.",,Instruct1666,4457,,,-1,-1,,,,,1
60ff2b5ee0fd69cbf82cd071,eq8uq6i4dj,Ex2A_Prolific,1,93,2024-02-29T00:42:26+00:00,60.530674934387,6,Stim_B.csv,Item.csv,Item,B,,,,,,0,FreeRecall,60,60,"Please type as many words as you can from the previous study list in any order. Please separate each word with a comma. Spelling will not count against you. This screen will automatically advance in one minute.",,RECALL_Test,60002,"goat, glacier, bike, climb, skiing, ski, valley, peak, hill, climber,",0,854,33290,0,0,,,1
60ff2b5ee0fd69cbf82cd071,eq8uq6i4dj,Ex2A_Prolific,1,94,2024-02-29T00:42:30+00:00,4.4189140796661,6,Stim_B.csv,Item.csv,Item,B,,,,,,0,Instruct,User,3,"You will now be presented with a new study list. Click next when you are ready to begin.",,NEXT_LIST,3938,,,-1,-1,,,,,1
60ff2b5ee0fd69cbf82cd071,eq8uq6i4dj,Ex2A_Prolific,1,95,2024-02-29T00:42:35+00:00,5.0674569606781,6,Stim_B.csv,Item.csv,Item,B,band,,S1,,,62,JOL,User,1.25,"How likely are you to correctly recall the second item in the pair?|Type your response on a scale from 0-100 and then press Enter.",Slow,S1,4720,,,1490,2977,,,,44,1
60ff2b5ee0fd69cbf82cd071,eq8uq6i4dj,Ex2A_Prolific,1,96,2024-02-29T00:42:38+00:00,3.3414270877838,6,Stim_B.csv,Item.csv,Item,B,concert,,S2,,,63,JOL,User,1.25,"How likely are you to correctly recall the second item in the pair?|Type your response on a scale from 0-100 and then press Enter.",Slow,S2,2896,,,1037,1189,,,,76,1
60ff2b5ee0fd69cbf82cd071,eq8uq6i4dj,Ex2A_Prolific,1,97,2024-02-29T00:42:43+00:00,4.5246300697327,6,Stim_B.csv,Item.csv,Item,B,jazz,,S3,,,64,JOL,User,1.25,"How likely are you to correctly recall the second item in the pair?|Type your response on a scale from 0-100 and then press Enter.",Slow,S3,4155,,,973,2628,,,,99,1
60ff2b5ee0fd69cbf82cd071,eq8uq6i4dj,Ex2A_Prolific,1,98,2024-02-29T00:42:47+00:00,4.4438769817352,6,Stim_B.csv,Item.csv,Item,B,symphony,,S4,,,65,JOL,User,1.25,"How likely are you to correctly recall the second item in the pair?|Type your response on a scale from 0-100 and then press Enter.",Slow,S4,3965,,,2016,2194,,,,65,1
60ff2b5ee0fd69cbf82cd071,eq8uq6i4dj,Ex2A_Prolific,1,99,2024-02-29T00:42:53+00:00,5.4679229259491,6,Stim_B.csv,Item.csv,Item,B,orchestra,,S5,,,66,JOL,User,1.25,"How likely are you to correctly recall the second item in the pair?|Type your response on a scale from 0-100 and then press Enter.",Slow,S5,5105,,,3369,3726,,,,74,1
60ff2b5ee0fd69cbf82cd071,eq8uq6i4dj,Ex2A_Prolific,1,100,2024-02-29T00:42:58+00:00,5.1420428752899,6,Stim_B.csv,Item.csv,Item,B,rhythm,,S6,,,67,JOL,User,1.25,"How likely are you to correctly recall the second item in the pair?|Type your response on a scale from 0-100 and then press Enter.",Slow,S6,4658,,,1719,2099,,,,17,1
60ff2b5ee0fd69cbf82cd071,eq8uq6i4dj,Ex2A_Prolific,1,101,2024-02-29T00:43:01+00:00,3.5071310997009,6,Stim_B.csv,Item.csv,Item,B,radio,,S7,,,68,JOL,User,1.25,"How likely are you to correctly recall the second item in the pair?|Type your response on a scale from 0-100 and then press Enter.",Slow,S7,3127,,,1206,1333,,,,55,1
60ff2b5ee0fd69cbf82cd071,eq8uq6i4dj,Ex2A_Prolific,1,102,2024-02-29T00:43:07+00:00,5.8469250202179,6,Stim_B.csv,Item.csv,Item,B,melody,,S8,,,69,JOL,User,1.25,"How likely are you to correctly recall the second item in the pair?|Type your response on a scale from 0-100 and then press Enter.",Slow,S8,5371,,,795,4382,,,,32,1
60ff2b5ee0fd69cbf82cd071,eq8uq6i4dj,Ex2A_Prolific,1,103,2024-02-29T00:43:15+00:00,7.1823360919952,6,Stim_B.csv,Item.csv,Item,B,piano,,S9,,,70,JOL,User,1.25,"How likely are you to correctly recall the second item in the pair?|Type your response on a scale from 0-100 and then press Enter.",Slow,S9,6802,,,1307,5724,,,,50,1
60ff2b5ee0fd69cbf82cd071,eq8uq6i4dj,Ex2A_Prolific,1,104,2024-02-29T00:43:19+00:00,4.1658318042755,6,Stim_B.csv,Item.csv,Item,B,sound,,S10,,,71,JOL,User,1.25,"How likely are you to correctly recall the second item in the pair?|Type your response on a scale from 0-100 and then press Enter.",Slow,S10,3726,,,2128,2301,,,,67,1
60ff2b5ee0fd69cbf82cd071,eq8uq6i4dj,Ex2A_Prolific,1,105,2024-02-29T00:43:22+00:00,3.3058400154114,6,Stim_B.csv,Item.csv,Item,B,instrument,,S11,,,72,JOL,User,1.25,"How likely are you to correctly recall the second item in the pair?|Type your response on a scale from 0-100 and then press Enter.",Slow,S11,2956,,,1163,1342,,,,45,1
60ff2b5ee0fd69cbf82cd071,eq8uq6i4dj,Ex2A_Prolific,1,106,2024-02-29T00:43:26+00:00,4.1779170036316,6,Stim_B.csv,Item.csv,Item,B,note,,S12,,,73,JOL,User,1.25,"How likely are you to correctly recall the second item in the pair?|Type your response on a scale from 0-100 and then press Enter.",Slow,S12,3782,,,926,2455,,,,94,1
60ff2b5ee0fd69cbf82cd071,eq8uq6i4dj,Ex2A_Prolific,1,107,2024-02-29T00:43:27+00:00,1.2180199623108,6,Stim_B.csv,Item.csv,Item,B,,,,,,0,Instruct,User,-,"You have completed this section. Please click next.",,Instruct166,766,,,-1,-1,,,,,1
60ff2b5ee0fd69cbf82cd071,eq8uq6i4dj,Ex2A_Prolific,1,108,2024-02-29T00:43:58+00:00,30.566742181778,6,Stim_B.csv,Item.csv,Item,B,,,,,,0,FreeRecall,30,30,"Please type as many words as you can that begin with the letter ""M"". The computer will automatically advance to the next screen in 30 seconds.",,FILLER,30005,"make man monkey more most mountain mate ",0,4235,22257,0,0,,,1
60ff2b5ee0fd69cbf82cd071,eq8uq6i4dj,Ex2A_Prolific,1,109,2024-02-29T00:44:00+00:00,1.8953218460083,6,Stim_B.csv,Item.csv,Item,B,,,,,,0,Instruct,User,-,"You have completed this section. Please click next.",,Instruct166,1498,,,-1,-1,,,,,1
60ff2b5ee0fd69cbf82cd071,eq8uq6i4dj,Ex2A_Prolific,1,110,2024-02-29T00:44:05+00:00,5.1997580528259,6,Stim_B.csv,Item.csv,Item,B,,,,,,0,Instruct,User,4,"You will now complete a memory test for the words you just studied. Please type as many words from the previous list as you can seperated by a comma. Spelling will not count against you and you can recall the words in any order. This test will be timed for one minute, and the computer will automatically advance once time is up. Click next when you are ready to begin.",,Instruct1666,4869,,,-1,-1,,,,,1
60ff2b5ee0fd69cbf82cd071,eq8uq6i4dj,Ex2A_Prolific,1,111,2024-02-29T00:45:06+00:00,60.499001026154,6,Stim_B.csv,Item.csv,Item,B,,,,,,0,FreeRecall,60,60,"Please type as many words as you can from the previous study list in any order. Please separate each word with a comma. Spelling will not count against you. This screen will automatically advance in one minute.",,RECALL_Test,60004,"melody, noise, note, piano, orchestra, concert, music, sound, radio, instrument, jazz, band, rhythm",0,700,56536,0,0,,,1
60ff2b5ee0fd69cbf82cd071,eq8uq6i4dj,Ex2A_Prolific,1,112,2024-02-29T00:45:26+00:00,20.27943110466,6,Stim_B.csv,Item.csv,Item,B,,,,,,0,Instruct,User,3,"You will now be presented with a new study list. Click next when you are ready to begin.",,NEXT_LIST,19529,,,-1,-1,,,,,1
60ff2b5ee0fd69cbf82cd071,eq8uq6i4dj,Ex2A_Prolific,1,113,2024-02-29T00:45:32+00:00,6.2948408126831,6,Stim_B.csv,Item.csv,Item,B,foam,,RR1,,,74,JOL,User,1.25,"How likely are you to correctly recall the second item in the pair?|Type your response on a scale from 0-100 and then press Enter.",River,RR1,5815,,,4713,5442,,,,19,1
60ff2b5ee0fd69cbf82cd071,eq8uq6i4dj,Ex2A_Prolific,1,114,2024-02-29T00:45:35+00:00,3.3349449634552,6,Stim_B.csv,Item.csv,Item,B,latex,,RR2,,,75,JOL,User,1.25,"How likely are you to correctly recall the second item in the pair?|Type your response on a scale from 0-100 and then press Enter.",River,RR2,2949,,,1686,2472,,,,39,1
60ff2b5ee0fd69cbf82cd071,eq8uq6i4dj,Ex2A_Prolific,1,115,2024-02-29T00:45:39+00:00,3.2636430263519,6,Stim_B.csv,Item.csv,Item,B,galoshes,,RR3,,,76,JOL,User,1.25,"How likely are you to correctly recall the second item in the pair?|Type your response on a scale from 0-100 and then press Enter.",River,RR3,2797,,,2156,2156,,,,1,1
60ff2b5ee0fd69cbf82cd071,eq8uq6i4dj,Ex2A_Prolific,1,116,2024-02-29T00:45:42+00:00,3.4280622005463,6,Stim_B.csv,Item.csv,Item,B,tire,,RR4,,,77,JOL,User,1.25,"How likely are you to correctly recall the second item in the pair?|Type your response on a scale from 0-100 and then press Enter.",River,RR4,2940,,,1982,2188,,,,98,1
60ff2b5ee0fd69cbf82cd071,eq8uq6i4dj,Ex2A_Prolific,1,117,2024-02-29T00:45:45+00:00,2.8576858043671,6,Stim_B.csv,Item.csv,Item,B,flexible,,RR5,,,78,JOL,User,1.25,"How likely are you to correctly recall the second item in the pair?|Type your response on a scale from 0-100 and then press Enter.",River,RR5,2507,,,1646,1835,,,,56,1
60ff2b5ee0fd69cbf82cd071,eq8uq6i4dj,Ex2A_Prolific,1,118,2024-02-29T00:45:50+00:00,4.8060259819031,6,Stim_B.csv,Item.csv,Item,B,elastic,,RR6,,,79,JOL,User,1.25,"How likely are you to correctly recall the second item in the pair?|Type your response on a scale from 0-100 and then press Enter.",River,RR6,4289,,,2389,3523,,,,73,1
60ff2b5ee0fd69cbf82cd071,eq8uq6i4dj,Ex2A_Prolific,1,119,2024-02-29T00:45:54+00:00,4.1670122146606,6,Stim_B.csv,Item.csv,Item,B,gloves,,RR7,,,80,JOL,User,1.25,"How likely are you to correctly recall the second item in the pair?|Type your response on a scale from 0-100 and then press Enter.",River,RR7,3718,,,2720,3165,,,,66,1
60ff2b5ee0fd69cbf82cd071,eq8uq6i4dj,Ex2A_Prolific,1,120,2024-02-29T00:45:58+00:00,3.7554979324341,6,Stim_B.csv,Item.csv,Item,B,eraser,,RR8,,,81,JOL,User,1.25,"How likely are you to correctly recall the second item in the pair?|Type your response on a scale from 0-100 and then press Enter.",River,RR8,3321,,,2598,2783,,,,21,1
60ff2b5ee0fd69cbf82cd071,eq8uq6i4dj,Ex2A_Prolific,1,121,2024-02-29T00:46:00+00:00,2.4533059597015,6,Stim_B.csv,Item.csv,Item,B,bounce,,RR9,,,82,JOL,User,1.25,"How likely are you to correctly recall the second item in the pair?|Type your response on a scale from 0-100 and then press Enter.",River,RR9,2089,,,1491,1664,,,,98,1
60ff2b5ee0fd69cbf82cd071,eq8uq6i4dj,Ex2A_Prolific,1,122,2024-02-29T00:46:03+00:00,2.5566830635071,6,Stim_B.csv,Item.csv,Item,B,ball,,RR10,,,83,JOL,User,1.25,"How likely are you to correctly recall the second item in the pair?|Type your response on a scale from 0-100 and then press Enter.",River,RR10,2096,,,1453,1624,,,,34,1
60ff2b5ee0fd69cbf82cd071,eq8uq6i4dj,Ex2A_Prolific,1,123,2024-02-29T00:46:06+00:00,3.0334048271179,6,Stim_B.csv,Item.csv,Item,B,soles,,RR11,,,84,JOL,User,1.25,"How likely are you to correctly recall the second item in the pair?|Type your response on a scale from 0-100 and then press Enter.",River,RR11,2667,,,1647,1832,,,,87,1
60ff2b5ee0fd69cbf82cd071,eq8uq6i4dj,Ex2A_Prolific,1,124,2024-02-29T00:46:09+00:00,2.930319070816,6,Stim_B.csv,Item.csv,Item,B,springy,,RR12,,,85,JOL,User,1.25,"How likely are you to correctly recall the second item in the pair?|Type your response on a scale from 0-100 and then press Enter.",River,RR12,2457,,,1771,1954,,,,99,1
60ff2b5ee0fd69cbf82cd071,eq8uq6i4dj,Ex2A_Prolific,1,125,2024-02-29T00:46:11+00:00,2.2738289833069,6,Stim_B.csv,Item.csv,Item,B,,,,,,0,Instruct,User,-,"You have completed this section. Please click next.",,Instruct166,1894,,,-1,-1,,,,,1
60ff2b5ee0fd69cbf82cd071,eq8uq6i4dj,Ex2A_Prolific,1,126,2024-02-29T00:46:42+00:00,30.540421962738,6,Stim_B.csv,Item.csv,Item,B,,,,,,0,FreeRecall,30,30,"Please type as many words as you can that begin with the letter ""M"". The computer will automatically advance to the next screen in 30 seconds.",,FILLER,30006,"more mountain melody monster make man monkey mallet mo",0,1377,29331,0,0,,,1
60ff2b5ee0fd69cbf82cd071,eq8uq6i4dj,Ex2A_Prolific,1,127,2024-02-29T00:46:47+00:00,5.1422901153564,6,Stim_B.csv,Item.csv,Item,B,,,,,,0,Instruct,User,4,"You have completed this section. Please click next.",,Instruct166,4680,,,-1,-1,,,,,1
60ff2b5ee0fd69cbf82cd071,eq8uq6i4dj,Ex2A_Prolific,1,128,2024-02-29T00:46:53+00:00,6.1138548851013,6,Stim_B.csv,Item.csv,Item,B,,,,,,0,Instruct,User,4,"You will now complete a memory test for the words you just studied. Please type as many words from the previous list as you can seperated by a comma. Spelling will not count against you and you can recall the words in any order. This test will be timed for one minute, and the computer will automatically advance once time is up. Click next when you are ready to begin.",,Instruct1666,5676,,,-1,-1,,,,,1
60ff2b5ee0fd69cbf82cd071,eq8uq6i4dj,Ex2A_Prolific,1,129,2024-02-29T00:47:53+00:00,60.49661397934,6,Stim_B.csv,Item.csv,Item,B,,,,,,0,FreeRecall,60,60,"Please type as many words as you can from the previous study list in any order. Please separate each word with a comma. Spelling will not count against you. This screen will automatically advance in one minute.",,RECALL_Test,60007,"latex, tire, elastic, gloves, eraser, bounce, ball,",0,1526,20672,0,0,,,1
60ff2b5ee0fd69cbf82cd071,eq8uq6i4dj,Ex2A_Prolific,1,130,2024-02-29T00:48:16+00:00,22.287822008133,6,Stim_B.csv,Item.csv,Item,B,,,,,,0,Instruct,User,3,"You will now be presented with a new study list. Click next when you are ready to begin.",,NEXT_LIST,21751,,,-1,-1,,,,,1
60ff2b5ee0fd69cbf82cd071,eq8uq6i4dj,Ex2A_Prolific,1,131,2024-02-29T00:48:23+00:00,7.2195811271667,6,Stim_B.csv,Item.csv,Item,B,toe,,B1,,,86,JOL,User,1.25,"How likely are you to correctly recall the second item in the pair?|Type your response on a scale from 0-100 and then press Enter.",Bread,B1,6769,,,6431,6591,,,,99,1
60ff2b5ee0fd69cbf82cd071,eq8uq6i4dj,Ex2A_Prolific,1,132,2024-02-29T00:48:26+00:00,3.5587298870087,6,Stim_B.csv,Item.csv,Item,B,inch,,B2,,,87,JOL,User,1.25,"How likely are you to correctly recall the second item in the pair?|Type your response on a scale from 0-100 and then press Enter.",Bread,B2,3167,,,2556,2704,,,,87,1
60ff2b5ee0fd69cbf82cd071,eq8uq6i4dj,Ex2A_Prolific,1,133,2024-02-29T00:48:31+00:00,4.914783000946,6,Stim_B.csv,Item.csv,Item,B,ankle,,B3,,,88,JOL,User,1.25,"How likely are you to correctly recall the second item in the pair?|Type your response on a scale from 0-100 and then press Enter.",Bread,B3,4432,,,2084,3166,,,,74,1
60ff2b5ee0fd69cbf82cd071,eq8uq6i4dj,Ex2A_Prolific,1,134,2024-02-29T00:48:34+00:00,2.885852098465,6,Stim_B.csv,Item.csv,Item,B,shoe,,B4,,,89,JOL,User,1.25,"How likely are you to correctly recall the second item in the pair?|Type your response on a scale from 0-100 and then press Enter.",Bread,B4,2564,,,2126,2267,,,,99,1
60ff2b5ee0fd69cbf82cd071,eq8uq6i4dj,Ex2A_Prolific,1,135,2024-02-29T00:48:42+00:00,8.0308229923248,6,Stim_B.csv,Item.csv,Item,B,sandals,,B5,,,90,JOL,User,1.25,"How likely are you to correctly recall the second item in the pair?|Type your response on a scale from 0-100 and then press Enter.",Bread,B5,7600,,,1916,2183,,,,86,1
60ff2b5ee0fd69cbf82cd071,eq8uq6i4dj,Ex2A_Prolific,1,136,2024-02-29T00:48:48+00:00,5.6068449020386,6,Stim_B.csv,Item.csv,Item,B,sock,,B6,,,91,JOL,User,1.25,"How likely are you to correctly recall the second item in the pair?|Type your response on a scale from 0-100 and then press Enter.",Bread,B6,5151,,,2436,4231,,,,70,1
60ff2b5ee0fd69cbf82cd071,eq8uq6i4dj,Ex2A_Prolific,1,137,2024-02-29T00:48:51+00:00,2.8435361385345,6,Stim_B.csv,Item.csv,Item,B,hand,,B7,,,92,JOL,User,1.25,"How likely are you to correctly recall the second item in the pair?|Type your response on a scale from 0-100 and then press Enter.",Bread,B7,2496,,,1849,1996,,,,99,1
60ff2b5ee0fd69cbf82cd071,eq8uq6i4dj,Ex2A_Prolific,1,138,2024-02-29T00:48:55+00:00,4.3546988964081,6,Stim_B.csv,Item.csv,Item,B,boot,,B8,,,93,JOL,User,1.25,"How likely are you to correctly recall the second item in the pair?|Type your response on a scale from 0-100 and then press Enter.",Bread,B8,3971,,,2469,2749,,,,100,1
60ff2b5ee0fd69cbf82cd071,eq8uq6i4dj,Ex2A_Prolific,1,139,2024-02-29T00:48:59+00:00,4.1743471622467,6,Stim_B.csv,Item.csv,Item,B,yard,,B9,,,94,JOL,User,1.25,"How likely are you to correctly recall the second item in the pair?|Type your response on a scale from 0-100 and then press Enter.",Bread,B9,3709,,,1054,1402,,,,43,1
60ff2b5ee0fd69cbf82cd071,eq8uq6i4dj,Ex2A_Prolific,1,140,2024-02-29T00:49:03+00:00,3.7750339508057,6,Stim_B.csv,Item.csv,Item,B,kick,,B10,,,95,JOL,User,1.25,"How likely are you to correctly recall the second item in the pair?|Type your response on a scale from 0-100 and then press Enter.",Bread,B10,3380,,,814,1790,,,,36,1
60ff2b5ee0fd69cbf82cd071,eq8uq6i4dj,Ex2A_Prolific,1,141,2024-02-29T00:49:05+00:00,1.8780169487,6,Stim_B.csv,Item.csv,Item,B,knee,,B11,,,96,JOL,User,1.25,"How likely are you to correctly recall the second item in the pair?|Type your response on a scale from 0-100 and then press Enter.",Bread,B11,1531,,,1137,1272,,,,96,1
60ff2b5ee0fd69cbf82cd071,eq8uq6i4dj,Ex2A_Prolific,1,142,2024-02-29T00:49:07+00:00,2.1241149902344,6,Stim_B.csv,Item.csv,Item,B,walk,,B12,,,97,JOL,User,1.25,"How likely are you to correctly recall the second item in the pair?|Type your response on a scale from 0-100 and then press Enter.",Bread,B12,1732,,,1275,1434,,,,89,1
60ff2b5ee0fd69cbf82cd071,eq8uq6i4dj,Ex2A_Prolific,1,143,2024-02-29T00:49:11+00:00,4.0589070320129,6,Stim_B.csv,Item.csv,Item,B,,,,,,0,Instruct,User,-,"You have completed this section. Please click next.",,Instruct166,3547,,,-1,-1,,,,,1
60ff2b5ee0fd69cbf82cd071,eq8uq6i4dj,Ex2A_Prolific,1,144,2024-02-29T00:49:42+00:00,30.557965040207,6,Stim_B.csv,Item.csv,Item,B,,,,,,0,FreeRecall,30,30,"Please type as many words as you can that begin with the letter ""L"". The computer will automatically advance to the next screen in 30 seconds.",,FILLER,30002,"long look lake large lunge like lick lack lollipop ",0,1368,29261,0,0,,,1
60ff2b5ee0fd69cbf82cd071,eq8uq6i4dj,Ex2A_Prolific,1,145,2024-02-29T00:49:47+00:00,5.6130239963531,6,Stim_B.csv,Item.csv,Item,B,,,,,,0,Instruct,User,4,"You have completed this section. Please click next.",,Instruct166,5181,,,-1,-1,,,,,1
60ff2b5ee0fd69cbf82cd071,eq8uq6i4dj,Ex2A_Prolific,1,146,2024-02-29T00:49:53+00:00,5.5019760131836,6,Stim_B.csv,Item.csv,Item,B,,,,,,0,Instruct,User,4,"You will now complete a memory test for the words you just studied. Please type as many words from the previous list as you can seperated by a comma. Spelling will not count against you and you can recall the words in any order. This test will be timed for one minute, and the computer will automatically advance once time is up. Click next when you are ready to begin.",,Instruct1666,5035,,,-1,-1,,,,,1
60ff2b5ee0fd69cbf82cd071,eq8uq6i4dj,Ex2A_Prolific,1,147,2024-02-29T00:50:53+00:00,60.55509185791,6,Stim_B.csv,Item.csv,Item,B,,,,,,0,FreeRecall,60,60,"Please type as many words as you can from the previous study list in any order. Please separate each word with a comma. Spelling will not count against you. This screen will automatically advance in one minute.",,RECALL_Test,60008,"yard, boot, hand, sock, shoe, inch, toe, ",0,815,21468,0,0,,,1
60ff2b5ee0fd69cbf82cd071,eq8uq6i4dj,Ex2A_Prolific,1,148,2024-02-29T00:50:57+00:00,4.0473740100861,6,Stim_B.csv,Item.csv,Item,B,,,,,,0,Instruct,User,3,"You will now be presented with a new study list. Click next when you are ready to begin.",,NEXT_LIST,3660,,,-1,-1,,,,,1
60ff2b5ee0fd69cbf82cd071,eq8uq6i4dj,Ex2A_Prolific,1,149,2024-02-29T00:51:05+00:00,7.425940990448,6,Stim_B.csv,Item.csv,Item,B,boy,,F1,,,98,JOL,User,1.25,"How likely are you to correctly recall the second item in the pair?|Type your response on a scale from 0-100 and then press Enter.",Flag,F1,6976,,,5234,6637,,,,99,1
60ff2b5ee0fd69cbf82cd071,eq8uq6i4dj,Ex2A_Prolific,1,150,2024-02-29T00:51:08+00:00,3.4766969680786,6,Stim_B.csv,Item.csv,Item,B,dolls,,F2,,,99,JOL,User,1.25,"How likely are you to correctly recall the second item in the pair?|Type your response on a scale from 0-100 and then press Enter.",Flag,F2,3139,,,2546,2729,,,,87,1
60ff2b5ee0fd69cbf82cd071,eq8uq6i4dj,Ex2A_Prolific,1,151,2024-02-29T00:51:11+00:00,3.0079250335693,6,Stim_B.csv,Item.csv,Item,B,pretty,,F3,,,100,JOL,User,1.25,"How likely are you to correctly recall the second item in the pair?|Type your response on a scale from 0-100 and then press Enter.",Flag,F3,2649,,,1829,2018,,,,65,1
60ff2b5ee0fd69cbf82cd071,eq8uq6i4dj,Ex2A_Prolific,1,152,2024-02-29T00:51:21+00:00,9.9823651313782,6,Stim_B.csv,Item.csv,Item,B,female,,F4,,,101,JOL,User,1.25,"How likely are you to correctly recall the second item in the pair?|Type your response on a scale from 0-100 and then press Enter.",Flag,F4,9546,,,2274,4453,,,,100,1
60ff2b5ee0fd69cbf82cd071,eq8uq6i4dj,Ex2A_Prolific,1,153,2024-02-29T00:51:27+00:00,5.914134979248,6,Stim_B.csv,Item.csv,Item,B,dress,,F5,,,102,JOL,User,1.25,"How likely are you to correctly recall the second item in the pair?|Type your response on a scale from 0-100 and then press Enter.",Flag,F5,5461,,,1930,2401,,,,55,1
60ff2b5ee0fd69cbf82cd071,eq8uq6i4dj,Ex2A_Prolific,1,154,2024-02-29T00:51:33+00:00,6.239807844162,6,Stim_B.csv,Item.csv,Item,B,date,,F6,,,103,JOL,User,1.25,"How likely are you to correctly recall the second item in the pair?|Type your response on a scale from 0-100 and then press Enter.",Flag,F6,5672,,,4060,4460,,,,65,1
60ff2b5ee0fd69cbf82cd071,eq8uq6i4dj,Ex2A_Prolific,1,155,2024-02-29T00:51:37+00:00,3.7076661586761,6,Stim_B.csv,Item.csv,Item,B,beautiful,,F7,,,104,JOL,User,1.25,"How likely are you to correctly recall the second item in the pair?|Type your response on a scale from 0-100 and then press Enter.",Flag,F7,3325,,,1615,1887,,,,87,1
60ff2b5ee0fd69cbf82cd071,eq8uq6i4dj,Ex2A_Prolific,1,156,2024-02-29T00:51:43+00:00,6.2914800643921,6,Stim_B.csv,Item.csv,Item,B,daughter,,F8,,,105,JOL,User,1.25,"How likely are you to correctly recall the second item in the pair?|Type your response on a scale from 0-100 and then press Enter.",Flag,F8,5853,,,2827,4975,,,,46,1
60ff2b5ee0fd69cbf82cd071,eq8uq6i4dj,Ex2A_Prolific,1,157,2024-02-29T00:51:46+00:00,2.6557428836823,6,Stim_B.csv,Item.csv,Item,B,sister,,F9,,,106,JOL,User,1.25,"How likely are you to correctly recall the second item in the pair?|Type your response on a scale from 0-100 and then press Enter.",Flag,F9,2322,,,1434,1575,,,,99,1
60ff2b5ee0fd69cbf82cd071,eq8uq6i4dj,Ex2A_Prolific,1,158,2024-02-29T00:51:48+00:00,2.3984479904175,6,Stim_B.csv,Item.csv,Item,B,cute,,F10,,,107,JOL,User,1.25,"How likely are you to correctly recall the second item in the pair?|Type your response on a scale from 0-100 and then press Enter.",Flag,F10,1923,,,1384,1518,,,,99,1
60ff2b5ee0fd69cbf82cd071,eq8uq6i4dj,Ex2A_Prolific,1,159,2024-02-29T00:51:55+00:00,6.9984169006348,6,Stim_B.csv,Item.csv,Item,B,niece,,F11,,,108,JOL,User,1.25,"How likely are you to correctly recall the second item in the pair?|Type your response on a scale from 0-100 and then press Enter.",Flag,F11,6626,,,2806,4578,,,,59,1
60ff2b5ee0fd69cbf82cd071,eq8uq6i4dj,Ex2A_Prolific,1,160,2024-02-29T00:51:59+00:00,3.7147572040558,6,Stim_B.csv,Item.csv,Item,B,young,,F12,,,109,JOL,User,1.25,"How likely are you to correctly recall the second item in the pair?|Type your response on a scale from 0-100 and then press Enter.",Flag,F12,3252,,,2724,2896,,,,90,1
60ff2b5ee0fd69cbf82cd071,eq8uq6i4dj,Ex2A_Prolific,1,161,2024-02-29T00:52:04+00:00,4.9452848434448,6,Stim_B.csv,Item.csv,Item,B,,,,,,0,Instruct,User,4,"You have completed this section. Please click next.",,Instruct166,4613,,,-1,-1,,,,,1
60ff2b5ee0fd69cbf82cd071,eq8uq6i4dj,Ex2A_Prolific,1,162,2024-02-29T00:52:35+00:00,30.542124986649,6,Stim_B.csv,Item.csv,Item,B,,,,,,0,FreeRecall,30,30,"Please type as many words as you can that begin with the letter ""T"". The computer will automatically advance to the next screen in 30 seconds.",,FILLER,30005,"talk take trophy talkative trance trace taco taking traffic trash tik",0,1676,29639,0,0,,,1
60ff2b5ee0fd69cbf82cd071,eq8uq6i4dj,Ex2A_Prolific,1,163,2024-02-29T00:52:36+00:00,1.3292281627655,6,Stim_B.csv,Item.csv,Item,B,,,,,,0,Instruct,User,-,"You have completed this section. Please click next.",,Instruct166,943,,,-1,-1,,,,,1
60ff2b5ee0fd69cbf82cd071,eq8uq6i4dj,Ex2A_Prolific,1,164,2024-02-29T00:52:41+00:00,5.3392069339752,6,Stim_B.csv,Item.csv,Item,B,,,,,,0,Instruct,User,4,"You will now complete a memory test for the words you just studied. Please type as many words from the previous list as you can seperated by a comma. Spelling will not count against you and you can recall the words in any order. This test will be timed for one minute, and the computer will automatically advance once time is up. Click next when you are ready to begin.",,Instruct1666,4909,,,-1,-1,,,,,1
60ff2b5ee0fd69cbf82cd071,eq8uq6i4dj,Ex2A_Prolific,1,165,2024-02-29T00:53:42+00:00,60.477200031281,6,Stim_B.csv,Item.csv,Item,B,,,,,,0,FreeRecall,60,60,"Please type as many words as you can from the previous study list in any order. Please separate each word with a comma. Spelling will not count against you. This screen will automatically advance in one minute.",,RECALL_Test,60005,"sister, daughter, beautiful, pretty, date, young, niece, cute, dress, female, dolls, boy,",0,726,42576,0,0,,,1
60ff2b5ee0fd69cbf82cd071,eq8uq6i4dj,Ex2A_Prolific,1,166,2024-02-29T00:53:47+00:00,5.1436078548431,6,Stim_B.csv,Item.csv,Item,B,,,,,,0,Instruct,User,3,"You will now be presented with a new study list. Click next when you are ready to begin.",,NEXT_LIST,4647,,,-1,-1,,,,,1
60ff2b5ee0fd69cbf82cd071,eq8uq6i4dj,Ex2A_Prolific,1,167,2024-02-29T00:53:50+00:00,3.6500539779663,6,Stim_B.csv,Item.csv,Item,B,white,,SS1,,,110,JOL,User,1.25,"How likely are you to correctly recall the second item in the pair?|Type your response on a scale from 0-100 and then press Enter.",Shirt,SS1,3154,,,2523,2691,,,,98,1
60ff2b5ee0fd69cbf82cd071,eq8uq6i4dj,Ex2A_Prolific,1,168,2024-02-29T00:53:54+00:00,3.3868930339813,6,Stim_B.csv,Item.csv,Item,B,gray,,SS2,,,111,JOL,User,1.25,"How likely are you to correctly recall the second item in the pair?|Type your response on a scale from 0-100 and then press Enter.",Shirt,SS2,2946,,,2105,2279,,,,89,1
60ff2b5ee0fd69cbf82cd071,eq8uq6i4dj,Ex2A_Prolific,1,169,2024-02-29T00:53:56+00:00,2.2851572036743,6,Stim_B.csv,Item.csv,Item,B,brown,,SS3,,,112,JOL,User,1.25,"How likely are you to correctly recall the second item in the pair?|Type your response on a scale from 0-100 and then press Enter.",Shirt,SS3,1884,,,1339,1485,,,,78,1
60ff2b5ee0fd69cbf82cd071,eq8uq6i4dj,Ex2A_Prolific,1,170,2024-02-29T00:53:58+00:00,2.2497758865356,6,Stim_B.csv,Item.csv,Item,B,coal,,SS4,,,113,JOL,User,1.25,"How likely are you to correctly recall the second item in the pair?|Type your response on a scale from 0-100 and then press Enter.",Shirt,SS4,1736,,,1177,1340,,,,67,1
60ff2b5ee0fd69cbf82cd071,eq8uq6i4dj,Ex2A_Prolific,1,171,2024-02-29T00:54:01+00:00,2.9686179161072,6,Stim_B.csv,Item.csv,Item,B,dark,,SS5,,,114,JOL,User,1.25,"How likely are you to correctly recall the second item in the pair?|Type your response on a scale from 0-100 and then press Enter.",Shirt,SS5,2625,,,1162,1446,,,,75,1
60ff2b5ee0fd69cbf82cd071,eq8uq6i4dj,Ex2A_Prolific,1,172,2024-02-29T00:54:04+00:00,2.2679121494293,6,Stim_B.csv,Item.csv,Item,B,color,,SS6,,,115,JOL,User,1.25,"How likely are you to correctly recall the second item in the pair?|Type your response on a scale from 0-100 and then press Enter.",Shirt,SS6,1823,,,1280,1443,,,,45,1
60ff2b5ee0fd69cbf82cd071,eq8uq6i4dj,Ex2A_Prolific,1,173,2024-02-29T00:54:09+00:00,5.2281908988953,6,Stim_B.csv,Item.csv,Item,B,funeral,,SS7,,,116,JOL,User,1.25,"How likely are you to correctly recall the second item in the pair?|Type your response on a scale from 0-100 and then press Enter.",Shirt,SS7,4783,,,1216,3590,,,,53,1
60ff2b5ee0fd69cbf82cd071,eq8uq6i4dj,Ex2A_Prolific,1,174,2024-02-29T00:54:14+00:00,4.8741450309753,6,Stim_B.csv,Item.csv,Item,B,blue,,SS8,,,117,JOL,User,1.25,"How likely are you to correctly recall the second item in the pair?|Type your response on a scale from 0-100 and then press Enter.",Shirt,SS8,4528,,,402,3302,,,,99,1
60ff2b5ee0fd69cbf82cd071,eq8uq6i4dj,Ex2A_Prolific,1,175,2024-02-29T00:54:16+00:00,2.673290014267,6,Stim_B.csv,Item.csv,Item,B,charred,,SS9,,,118,JOL,User,1.25,"How likely are you to correctly recall the second item in the pair?|Type your response on a scale from 0-100 and then press Enter.",Shirt,SS9,2303,,,1622,1830,,,,23,1
60ff2b5ee0fd69cbf82cd071,eq8uq6i4dj,Ex2A_Prolific,1,176,2024-02-29T00:54:19+00:00,2.9567959308624,6,Stim_B.csv,Item.csv,Item,B,ink,,SS10,,,119,JOL,User,1.25,"How likely are you to correctly recall the second item in the pair?|Type your response on a scale from 0-100 and then press Enter.",Shirt,SS10,2492,,,1408,1583,,,,87,1
60ff2b5ee0fd69cbf82cd071,eq8uq6i4dj,Ex2A_Prolific,1,177,2024-02-29T00:54:24+00:00,4.5365099906921,6,Stim_B.csv,Item.csv,Item,B,death,,SS11,,,120,JOL,User,1.25,"How likely are you to correctly recall the second item in the pair?|Type your response on a scale from 0-100 and then press Enter.",Shirt,SS11,4060,,,2247,3205,,,,100,1
60ff2b5ee0fd69cbf82cd071,eq8uq6i4dj,Ex2A_Prolific,1,178,2024-02-29T00:54:28+00:00,3.7246000766754,6,Stim_B.csv,Item.csv,Item,B,cat,,SS12,,,121,JOL,User,1.25,"How likely are you to correctly recall the second item in the pair?|Type your response on a scale from 0-100 and then press Enter.",Shirt,SS12,3378,,,1619,2552,,,,100,1
60ff2b5ee0fd69cbf82cd071,eq8uq6i4dj,Ex2A_Prolific,1,179,2024-02-29T00:54:32+00:00,4.5503129959106,6,Stim_B.csv,Item.csv,Item,B,,,,,,0,Instruct,User,4,"You have completed this section. Please click next.",,Instruct166,4097,,,-1,-1,,,,,1
60ff2b5ee0fd69cbf82cd071,eq8uq6i4dj,Ex2A_Prolific,1,180,2024-02-29T00:55:03+00:00,30.501648902893,6,Stim_B.csv,Item.csv,Item,B,,,,,,0,FreeRecall,30,30,"Please type as many words as you can that begin with the letter ""S"". The computer will automatically advance to the next screen in 30 seconds.",,FILLER,30007,"sister sexy sex stud space sparkle stupid super sand stake stand snow ",0,1325,28981,0,0,,,1
60ff2b5ee0fd69cbf82cd071,eq8uq6i4dj,Ex2A_Prolific,1,181,2024-02-29T00:55:07+00:00,4.6543550491333,6,Stim_B.csv,Item.csv,Item,B,,,,,,0,Instruct,User,4,"You have completed this section. Please click next.",,Instruct166,4218,,,-1,-1,,,,,1
60ff2b5ee0fd69cbf82cd071,eq8uq6i4dj,Ex2A_Prolific,1,182,2024-02-29T00:55:12+00:00,4.9325840473175,6,Stim_B.csv,Item.csv,Item,B,,,,,,0,Instruct,User,4,"You will now complete a memory test for the words you just studied. Please type as many words from the previous list as you can seperated by a comma. Spelling will not count against you and you can recall the words in any order. This test will be timed for one minute, and the computer will automatically advance once time is up. Click next when you are ready to begin.",,Instruct1666,4479,,,-1,-1,,,,,1
60ff2b5ee0fd69cbf82cd071,eq8uq6i4dj,Ex2A_Prolific,1,183,2024-02-29T00:56:13+00:00,60.564657926559,6,Stim_B.csv,Item.csv,Item,B,,,,,,0,FreeRecall,60,60,"Please type as many words as you can from the previous study list in any order. Please separate each word with a comma. Spelling will not count against you. This screen will automatically advance in one minute.",,RECALL_Test,60005,"death, cat, black, blue, brown, coal, funeral, color, dark, white",0,887,32270,0,0,,,1
60ff2b5ee0fd69cbf82cd071,eq8uq6i4dj,Ex2A_Prolific,1,184,2024-02-29T00:56:15+00:00,1.8414070606232,6,Stim_B.csv,Item.csv,Item,B,,,,,,0,Instruct,User,-,"You have completed this section. Please click next.",,Instruct7,1445,,,-1,-1,,,,,1
60ff2b5ee0fd69cbf82cd071,eq8uq6i4dj,Ex2A_Prolific,1,185,2024-02-29T00:56:17+00:00,1.8541009426117,6,Stim_B.csv,Item.csv,Item,B,,,,,,0,Instruct,User,-,"The following screen will ask you a few questions abour your experience today. You must complete these questions to receive credit.",,Instruct8,1511,,,-1,-1,,,,,1
