Username,ID,ExperimentName,Session,Trial,Date,TimeDif,"Condition Number","Stimuli File","Order File","Condition Description","Condition Notes",Stimuli*Cue,Stimuli*Answer,Stimuli*Shuffle,"Stimuli*Stimuli Notes",Stimuli*Value,Procedure*Item,"Procedure*Trial Type","Procedure*Max Time","Procedure*Min Time",Procedure*Text,"Procedure*Procedure Notes",Procedure*Shuffle,Response*RT,Response*Response,Response*Accuracy,Response*RTfirst,Response*RTlast,Response*strictAcc,Response*lenientAcc,Response*focus,Response*JOL,Response*Focus
5f516a44067fba1b4c562a55,t5nk5gyjlc,Ex2A_Prolific,1,1,2024-02-28T02:28:00+00:00,7.9429988861084,5,Stim_A.csv,Item.csv,Item,A,,,,,,0,Instruct,-,5,"In this section, you will be presented with a series of words. Please study each word carefully. Your memory will be tested!",Initial_Instruct,Instruct1,7682,,,-1,-1,,,,,1
5f516a44067fba1b4c562a55,t5nk5gyjlc,Ex2A_Prolific,1,2,2024-02-28T02:28:35+00:00,35.842555999756,5,Stim_A.csv,Item.csv,Item,A,,,,,,0,Instruct,-,5,"As you study, you will be asked to rate your ability to remember each item on a later memory test using a 0-100 scale. For example, if you study the word DOG, a rating of 0 indicates that you would not remember DOG at test, while a rating of 100 indicates full certainty that you would remember the word DOG at test.",,Instruct13,35451,,,-1,-1,,,,,1
5f516a44067fba1b4c562a55,t5nk5gyjlc,Ex2A_Prolific,1,3,2024-02-28T02:29:01+00:00,25.826694965363,5,Stim_A.csv,Item.csv,Item,A,,,,,,0,Instruct,-,10,"When making your ratings, it is criticial that you use the full range of the scale. You will be disqualified for only giving ratings of 0 or 100!",,Instruct15,25420,,,-1,-1,,,,,1
5f516a44067fba1b4c562a55,t5nk5gyjlc,Ex2A_Prolific,1,4,2024-02-28T02:29:05+00:00,3.8178451061249,5,Stim_A.csv,Item.csv,Item,A,,,,,,0,Instruct,User,-,"You will now begin the study. Click next when you are ready to begin.",,Instruct16,3502,,,-1,-1,,,,,1
5f516a44067fba1b4c562a55,t5nk5gyjlc,Ex2A_Prolific,1,5,2024-02-28T02:29:13+00:00,8.1604309082031,5,Stim_A.csv,Item.csv,Item,A,pane,,Win_1,,,2,JOL,User,1.25,"How likely are you to correctly recall the second item in the pair?|Type your response on a scale from 0-100 and then press Enter.",Window,Win_1,7710,,,6134,6637,,,,80,1
5f516a44067fba1b4c562a55,t5nk5gyjlc,Ex2A_Prolific,1,6,2024-02-28T02:29:21+00:00,7.6899220943451,5,Stim_A.csv,Item.csv,Item,A,sill,,Win_2,,,3,JOL,User,1.25,"How likely are you to correctly recall the second item in the pair?|Type your response on a scale from 0-100 and then press Enter.",Window,Win_2,7344,,,4354,6678,,,,75,1
5f516a44067fba1b4c562a55,t5nk5gyjlc,Ex2A_Prolific,1,7,2024-02-28T02:29:28+00:00,7.0467669963837,5,Stim_A.csv,Item.csv,Item,A,shutter,,Win_3,,,4,JOL,User,1.25,"How likely are you to correctly recall the second item in the pair?|Type your response on a scale from 0-100 and then press Enter.",Window,Win_3,6642,,,5609,5781,,,,90,1
5f516a44067fba1b4c562a55,t5nk5gyjlc,Ex2A_Prolific,1,8,2024-02-28T02:29:33+00:00,5.2951378822327,5,Stim_A.csv,Item.csv,Item,A,curtain,,Win_4,,,5,JOL,User,1.25,"How likely are you to correctly recall the second item in the pair?|Type your response on a scale from 0-100 and then press Enter.",Window,Win_4,4970,,,2865,3166,,,,50,1
5f516a44067fba1b4c562a55,t5nk5gyjlc,Ex2A_Prolific,1,9,2024-02-28T02:29:41+00:00,7.6430349349976,5,Stim_A.csv,Item.csv,Item,A,door,,Win_5,,,6,JOL,User,1.25,"How likely are you to correctly recall the second item in the pair?|Type your response on a scale from 0-100 and then press Enter.",Window,Win_5,7308,,,5584,5859,,,,75,1
5f516a44067fba1b4c562a55,t5nk5gyjlc,Ex2A_Prolific,1,10,2024-02-28T02:29:47+00:00,6.1439981460571,5,Stim_A.csv,Item.csv,Item,A,ledge,,Win_6,,,7,JOL,User,1.25,"How likely are you to correctly recall the second item in the pair?|Type your response on a scale from 0-100 and then press Enter.",Window,Win_6,5779,,,3888,4721,,,,50,1
5f516a44067fba1b4c562a55,t5nk5gyjlc,Ex2A_Prolific,1,11,2024-02-28T02:29:52+00:00,4.6776399612427,5,Stim_A.csv,Item.csv,Item,A,glass,,Win_7,,,8,JOL,User,1.25,"How likely are you to correctly recall the second item in the pair?|Type your response on a scale from 0-100 and then press Enter.",Window,Win_7,4343,,,2957,3696,,,,65,1
5f516a44067fba1b4c562a55,t5nk5gyjlc,Ex2A_Prolific,1,12,2024-02-28T02:29:58+00:00,6.0587298870087,5,Stim_A.csv,Item.csv,Item,A,view,,Win_8,,,9,JOL,User,1.25,"How likely are you to correctly recall the second item in the pair?|Type your response on a scale from 0-100 and then press Enter.",Window,Win_8,5746,,,1817,5376,,,,45,1
5f516a44067fba1b4c562a55,t5nk5gyjlc,Ex2A_Prolific,1,13,2024-02-28T02:30:01+00:00,3.6295940876007,5,Stim_A.csv,Item.csv,Item,A,screen,,Win_9,,,10,JOL,User,1.25,"How likely are you to correctly recall the second item in the pair?|Type your response on a scale from 0-100 and then press Enter.",Window,Win_9,3303,,,2098,2367,,,,30,1
5f516a44067fba1b4c562a55,t5nk5gyjlc,Ex2A_Prolific,1,14,2024-02-28T02:30:08+00:00,6.9684739112854,5,Stim_A.csv,Item.csv,Item,A,shade,,Win_10,,,11,JOL,User,1.25,"How likely are you to correctly recall the second item in the pair?|Type your response on a scale from 0-100 and then press Enter.",Window,Win_10,6660,,,2521,2975,,,,35,1
5f516a44067fba1b4c562a55,t5nk5gyjlc,Ex2A_Prolific,1,15,2024-02-28T02:30:13+00:00,4.8885190486908,5,Stim_A.csv,Item.csv,Item,A,open,,Win_11,,,12,JOL,User,1.25,"How likely are you to correctly recall the second item in the pair?|Type your response on a scale from 0-100 and then press Enter.",Window,Win_11,4547,,,2443,4247,,,,90,1
5f516a44067fba1b4c562a55,t5nk5gyjlc,Ex2A_Prolific,1,16,2024-02-28T02:30:23+00:00,9.2779450416565,5,Stim_A.csv,Item.csv,Item,A,frame,,Win_12,,,13,JOL,User,1.25,"How likely are you to correctly recall the second item in the pair?|Type your response on a scale from 0-100 and then press Enter.",Window,Win_12,8932,,,8129,8434,,,,40,1
5f516a44067fba1b4c562a55,t5nk5gyjlc,Ex2A_Prolific,1,17,2024-02-28T02:30:25+00:00,2.5187439918518,5,Stim_A.csv,Item.csv,Item,A,,,,,,0,Instruct,User,-,"You have completed this section. Please click next.",,Instruct166,2146,,,-1,-1,,,,,1
5f516a44067fba1b4c562a55,t5nk5gyjlc,Ex2A_Prolific,1,18,2024-02-28T02:30:55+00:00,30.332641124725,5,Stim_A.csv,Item.csv,Item,A,,,,,,0,FreeRecall,30,30,"Please type as many words as you can that begin with the letter ""M"". The computer will automatically advance to the next screen in 30 seconds.",,FILLER,30004,"mirror make magic move mike mote maraje ",0,7057,27264,0,0,,,1
5f516a44067fba1b4c562a55,t5nk5gyjlc,Ex2A_Prolific,1,19,2024-02-28T02:30:59+00:00,3.5749998092651,5,Stim_A.csv,Item.csv,Item,A,,,,,,0,Instruct,User,-,"You have completed this section. Please click next.",,Instruct166,3243,,,-1,-1,,,,,1
5f516a44067fba1b4c562a55,t5nk5gyjlc,Ex2A_Prolific,1,20,2024-02-28T02:31:15+00:00,16.001700162888,5,Stim_A.csv,Item.csv,Item,A,,,,,,0,Instruct,User,4,"You will now complete a memory test for the words you just studied. Please type as many words from the previous list as you can seperated by a comma. Spelling will not count against you and you can recall the words in any order. This test will be timed for one minute, and the computer will automatically advance once time is up. Click next when you are ready to begin.",,Instruct1666,15492,,,-1,-1,,,,,1
5f516a44067fba1b4c562a55,t5nk5gyjlc,Ex2A_Prolific,1,21,2024-02-28T02:32:15+00:00,60.435530900955,5,Stim_A.csv,Item.csv,Item,A,,,,,,0,FreeRecall,60,60,"Please type as many words as you can from the previous study list in any order. Please separate each word with a comma. Spelling will not count against you. This screen will automatically advance in one minute.",,RECALL_Test,60003,"open, sill, pane, mirror, forward, door, ",0,1338,53068,0,0,,,1
5f516a44067fba1b4c562a55,t5nk5gyjlc,Ex2A_Prolific,1,22,2024-02-28T02:32:20+00:00,4.5574400424957,5,Stim_A.csv,Item.csv,Item,A,,,,,,0,Instruct,User,3,"You will now be presented with a new study list. Click next when you are ready to begin.",,NEXT_LIST,4214,,,-1,-1,,,,,1
5f516a44067fba1b4c562a55,t5nk5gyjlc,Ex2A_Prolific,1,23,2024-02-28T02:32:27+00:00,6.7618820667267,5,Stim_A.csv,Item.csv,Item,A,sandpaper,,R1,,,14,JOL,User,1.25,"How likely are you to correctly recall the second item in the pair?|Type your response on a scale from 0-100 and then press Enter.",Rough,R1,6400,,,5240,5604,,,,60,1
5f516a44067fba1b4c562a55,t5nk5gyjlc,Ex2A_Prolific,1,24,2024-02-28T02:32:31+00:00,4.4908449649811,5,Stim_A.csv,Item.csv,Item,A,smooth,,R2,,,15,JOL,User,1.25,"How likely are you to correctly recall the second item in the pair?|Type your response on a scale from 0-100 and then press Enter.",Rough,R2,4160,,,3354,3626,,,,40,1
5f516a44067fba1b4c562a55,t5nk5gyjlc,Ex2A_Prolific,1,25,2024-02-28T02:32:36+00:00,4.6316299438477,5,Stim_A.csv,Item.csv,Item,A,coarse,,R3,,,16,JOL,User,1.25,"How likely are you to correctly recall the second item in the pair?|Type your response on a scale from 0-100 and then press Enter.",Rough,R3,4293,,,3472,3945,,,,30,1
5f516a44067fba1b4c562a55,t5nk5gyjlc,Ex2A_Prolific,1,26,2024-02-28T02:32:40+00:00,3.9286859035492,5,Stim_A.csv,Item.csv,Item,A,tough,,R4,,,17,JOL,User,1.25,"How likely are you to correctly recall the second item in the pair?|Type your response on a scale from 0-100 and then press Enter.",Rough,R4,3610,,,2806,3050,,,,45,1
5f516a44067fba1b4c562a55,t5nk5gyjlc,Ex2A_Prolific,1,27,2024-02-28T02:32:48+00:00,8.5207340717316,5,Stim_A.csv,Item.csv,Item,A,rugged,,R5,,,18,JOL,User,1.25,"How likely are you to correctly recall the second item in the pair?|Type your response on a scale from 0-100 and then press Enter.",Rough,R5,8194,,,7765,7932,,,,25,1
5f516a44067fba1b4c562a55,t5nk5gyjlc,Ex2A_Prolific,1,28,2024-02-28T02:32:51+00:00,2.5835120677948,5,Stim_A.csv,Item.csv,Item,A,bumpy,,R6,,,19,JOL,User,1.25,"How likely are you to correctly recall the second item in the pair?|Type your response on a scale from 0-100 and then press Enter.",Rough,R6,2261,,,1818,2039,,,,20,1
5f516a44067fba1b4c562a55,t5nk5gyjlc,Ex2A_Prolific,1,29,2024-02-28T02:32:56+00:00,5.3307540416718,5,Stim_A.csv,Item.csv,Item,A,jagged,,R7,,,20,JOL,User,1.25,"How likely are you to correctly recall the second item in the pair?|Type your response on a scale from 0-100 and then press Enter.",Rough,R7,4994,,,4647,4744,,,,15,1
5f516a44067fba1b4c562a55,t5nk5gyjlc,Ex2A_Prolific,1,30,2024-02-28T02:32:59+00:00,3.0872399806976,5,Stim_A.csv,Item.csv,Item,A,riders,,R8,,,21,JOL,User,1.25,"How likely are you to correctly recall the second item in the pair?|Type your response on a scale from 0-100 and then press Enter.",Rough,R8,2781,,,2354,2549,,,,45,1
5f516a44067fba1b4c562a55,t5nk5gyjlc,Ex2A_Prolific,1,31,2024-02-28T02:33:04+00:00,4.9609489440918,5,Stim_A.csv,Item.csv,Item,A,uneven,,R9,,,22,JOL,User,1.25,"How likely are you to correctly recall the second item in the pair?|Type your response on a scale from 0-100 and then press Enter.",Rough,R9,4569,,,3451,3580,,,,60,1
5f516a44067fba1b4c562a55,t5nk5gyjlc,Ex2A_Prolific,1,32,2024-02-28T02:33:10+00:00,5.3661780357361,5,Stim_A.csv,Item.csv,Item,A,road,,R10,,,23,JOL,User,1.25,"How likely are you to correctly recall the second item in the pair?|Type your response on a scale from 0-100 and then press Enter.",Rough,R10,5022,,,2321,4421,,,,75,1
5f516a44067fba1b4c562a55,t5nk5gyjlc,Ex2A_Prolific,1,33,2024-02-28T02:33:17+00:00,7.0044920444489,5,Stim_A.csv,Item.csv,Item,A,ready,,R11,,,24,JOL,User,1.25,"How likely are you to correctly recall the second item in the pair?|Type your response on a scale from 0-100 and then press Enter.",Rough,R11,6677,,,6078,6213,,,,50,1
5f516a44067fba1b4c562a55,t5nk5gyjlc,Ex2A_Prolific,1,34,2024-02-28T02:33:22+00:00,5.841579914093,5,Stim_A.csv,Item.csv,Item,A,sand,,R12,,,25,JOL,User,1.25,"How likely are you to correctly recall the second item in the pair?|Type your response on a scale from 0-100 and then press Enter.",Rough,R12,5507,,,4582,5044,,,,75,1
5f516a44067fba1b4c562a55,t5nk5gyjlc,Ex2A_Prolific,1,35,2024-02-28T02:33:27+00:00,4.8897099494934,5,Stim_A.csv,Item.csv,Item,A,,,,,,0,Instruct,User,4,"You have completed this section. Please click next.",,Instruct166,4591,,,-1,-1,,,,,1
5f516a44067fba1b4c562a55,t5nk5gyjlc,Ex2A_Prolific,1,36,2024-02-28T02:33:58+00:00,30.399208068848,5,Stim_A.csv,Item.csv,Item,A,,,,,,0,FreeRecall,30,30,"Please type as many words as you can that begin with the letter ""K"". The computer will automatically advance to the next screen in 30 seconds.",,FILLER,30003,"kite kale kimchi kate ",0,2953,26456,0,0,,,1
5f516a44067fba1b4c562a55,t5nk5gyjlc,Ex2A_Prolific,1,37,2024-02-28T02:34:03+00:00,5.3378090858459,5,Stim_A.csv,Item.csv,Item,A,,,,,,0,Instruct,User,4,"You have completed this section. Please click next.",,Instruct166,5044,,,-1,-1,,,,,1
5f516a44067fba1b4c562a55,t5nk5gyjlc,Ex2A_Prolific,1,38,2024-02-28T02:34:10+00:00,7.3794469833374,5,Stim_A.csv,Item.csv,Item,A,,,,,,0,Instruct,User,4,"You will now complete a memory test for the words you just studied. Please type as many words from the previous list as you can seperated by a comma. Spelling will not count against you and you can recall the words in any order. This test will be timed for one minute, and the computer will automatically advance once time is up. Click next when you are ready to begin.",,Instruct1666,7052,,,-1,-1,,,,,1
5f516a44067fba1b4c562a55,t5nk5gyjlc,Ex2A_Prolific,1,39,2024-02-28T02:35:11+00:00,60.416546821594,5,Stim_A.csv,Item.csv,Item,A,,,,,,0,FreeRecall,60,60,"Please type as many words as you can from the previous study list in any order. Please separate each word with a comma. Spelling will not count against you. This screen will automatically advance in one minute.",,RECALL_Test,60004,"sand, sandpaper, coarse, road, uneven, ",0,875,50976,0,0,,,1
5f516a44067fba1b4c562a55,t5nk5gyjlc,Ex2A_Prolific,1,40,2024-02-28T02:35:21+00:00,9.8972132205963,5,Stim_A.csv,Item.csv,Item,A,,,,,,0,Instruct,User,3,"You will now be presented with a new study list. Click next when you are ready to begin.",,NEXT_LIST,9560,,,-1,-1,,,,,1
5f516a44067fba1b4c562a55,t5nk5gyjlc,Ex2A_Prolific,1,41,2024-02-28T02:35:32+00:00,11.335756778717,5,Stim_A.csv,Item.csv,Item,A,rage,,A1,,,26,JOL,User,1.25,"How likely are you to correctly recall the second item in the pair?|Type your response on a scale from 0-100 and then press Enter.",Anger,A1,10944,,,9343,9988,,,,80,1
5f516a44067fba1b4c562a55,t5nk5gyjlc,Ex2A_Prolific,1,42,2024-02-28T02:35:45+00:00,12.863640069962,5,Stim_A.csv,Item.csv,Item,A,mad,,A2,,,27,JOL,User,1.25,"How likely are you to correctly recall the second item in the pair?|Type your response on a scale from 0-100 and then press Enter.",Anger,A2,12470,,,3434,3792,,,,90,1
5f516a44067fba1b4c562a55,t5nk5gyjlc,Ex2A_Prolific,1,43,2024-02-28T02:35:55+00:00,10.164016962051,5,Stim_A.csv,Item.csv,Item,A,enrage,,A3,,,28,JOL,User,1.25,"How likely are you to correctly recall the second item in the pair?|Type your response on a scale from 0-100 and then press Enter.",Anger,A3,9807,,,2391,3279,,,,20,1
5f516a44067fba1b4c562a55,t5nk5gyjlc,Ex2A_Prolific,1,44,2024-02-28T02:36:09+00:00,13.497318029404,5,Stim_A.csv,Item.csv,Item,A,fury,,A4,,,29,JOL,User,1.25,"How likely are you to correctly recall the second item in the pair?|Type your response on a scale from 0-100 and then press Enter.",Anger,A4,13087,,,11573,11702,,,,45,1
5f516a44067fba1b4c562a55,t5nk5gyjlc,Ex2A_Prolific,1,45,2024-02-28T02:36:15+00:00,6.7393870353699,5,Stim_A.csv,Item.csv,Item,A,temper,,A5,,,30,JOL,User,1.25,"How likely are you to correctly recall the second item in the pair?|Type your response on a scale from 0-100 and then press Enter.",Anger,A5,6376,,,5904,6100,,,,20,1
5f516a44067fba1b4c562a55,t5nk5gyjlc,Ex2A_Prolific,1,46,2024-02-28T02:36:27+00:00,12.040095090866,5,Stim_A.csv,Item.csv,Item,A,ire,,A6,,,31,JOL,User,1.25,"How likely are you to correctly recall the second item in the pair?|Type your response on a scale from 0-100 and then press Enter.",Anger,A6,11656,,,10768,11092,,,,80,1
5f516a44067fba1b4c562a55,t5nk5gyjlc,Ex2A_Prolific,1,47,2024-02-28T02:36:33+00:00,5.9674808979034,5,Stim_A.csv,Item.csv,Item,A,wrath,,A7,,,32,JOL,User,1.25,"How likely are you to correctly recall the second item in the pair?|Type your response on a scale from 0-100 and then press Enter.",Anger,A7,5595,,,5114,5360,,,,10,1
5f516a44067fba1b4c562a55,t5nk5gyjlc,Ex2A_Prolific,1,48,2024-02-28T02:36:40+00:00,6.5366399288177,5,Stim_A.csv,Item.csv,Item,A,mean,,A8,,,33,JOL,User,1.25,"How likely are you to correctly recall the second item in the pair?|Type your response on a scale from 0-100 and then press Enter.",Anger,A8,6151,,,5708,5919,,,,50,1
5f516a44067fba1b4c562a55,t5nk5gyjlc,Ex2A_Prolific,1,49,2024-02-28T02:36:47+00:00,6.992968082428,5,Stim_A.csv,Item.csv,Item,A,hatred,,A9,,,34,JOL,User,1.25,"How likely are you to correctly recall the second item in the pair?|Type your response on a scale from 0-100 and then press Enter.",Anger,A9,6658,,,6092,6289,,,,60,1
5f516a44067fba1b4c562a55,t5nk5gyjlc,Ex2A_Prolific,1,50,2024-02-28T02:36:57+00:00,10.327269077301,5,Stim_A.csv,Item.csv,Item,A,fight,,A10,,,35,JOL,User,1.25,"How likely are you to correctly recall the second item in the pair?|Type your response on a scale from 0-100 and then press Enter.",Anger,A10,9950,,,7992,8167,,,,40,1
5f516a44067fba1b4c562a55,t5nk5gyjlc,Ex2A_Prolific,1,51,2024-02-28T02:37:06+00:00,8.4598109722137,5,Stim_A.csv,Item.csv,Item,A,hate,,A11,,,36,JOL,User,1.25,"How likely are you to correctly recall the second item in the pair?|Type your response on a scale from 0-100 and then press Enter.",Anger,A11,8164,,,6471,6909,,,,80,1
5f516a44067fba1b4c562a55,t5nk5gyjlc,Ex2A_Prolific,1,52,2024-02-28T02:37:12+00:00,6.5054528713226,5,Stim_A.csv,Item.csv,Item,A,fear,,A12,,,37,JOL,User,1.25,"How likely are you to correctly recall the second item in the pair?|Type your response on a scale from 0-100 and then press Enter.",Anger,A12,6085,,,5542,5753,,,,45,1
5f516a44067fba1b4c562a55,t5nk5gyjlc,Ex2A_Prolific,1,53,2024-02-28T02:37:14+00:00,1.8295691013336,5,Stim_A.csv,Item.csv,Item,A,,,,,,0,Instruct,User,-,"You have completed this section. Please click next.",,Instruct166,1414,,,-1,-1,,,,,1
5f516a44067fba1b4c562a55,t5nk5gyjlc,Ex2A_Prolific,1,54,2024-02-28T02:37:44+00:00,30.375262022018,5,Stim_A.csv,Item.csv,Item,A,,,,,,0,FreeRecall,30,30,"Please type as many words as you can that begin with the letter ""W"". The computer will automatically advance to the next screen in 30 seconds.",,FILLER,30003,"wrath water waiste waver wather weather white ",0,2544,26972,0,0,,,1
5f516a44067fba1b4c562a55,t5nk5gyjlc,Ex2A_Prolific,1,55,2024-02-28T02:37:49+00:00,4.2198910713196,5,Stim_A.csv,Item.csv,Item,A,,,,,,0,Instruct,User,-,"You have completed this section. Please click next.",,Instruct166,3917,,,-1,-1,,,,,1
5f516a44067fba1b4c562a55,t5nk5gyjlc,Ex2A_Prolific,1,56,2024-02-28T02:37:59+00:00,10.370630979538,5,Stim_A.csv,Item.csv,Item,A,,,,,,0,Instruct,User,4,"You will now complete a memory test for the words you just studied. Please type as many words from the previous list as you can seperated by a comma. Spelling will not count against you and you can recall the words in any order. This test will be timed for one minute, and the computer will automatically advance once time is up. Click next when you are ready to begin.",,Instruct1666,9998,,,-1,-1,,,,,1
5f516a44067fba1b4c562a55,t5nk5gyjlc,Ex2A_Prolific,1,57,2024-02-28T02:39:00+00:00,60.478745937347,5,Stim_A.csv,Item.csv,Item,A,,,,,,0,FreeRecall,60,60,"Please type as many words as you can from the previous study list in any order. Please separate each word with a comma. Spelling will not count against you. This screen will automatically advance in one minute.",,RECALL_Test,60008,"hatered, hate, rage, fury, ire, mean, enrage, mad ",0,1903,53931,0,0,,,1
5f516a44067fba1b4c562a55,t5nk5gyjlc,Ex2A_Prolific,1,58,2024-02-28T02:39:10+00:00,10.308541059494,5,Stim_A.csv,Item.csv,Item,A,,,,,,0,Instruct,User,3,"You will now be presented with a new study list. Click next when you are ready to begin.",,NEXT_LIST,9982,,,-1,-1,,,,,1
5f516a44067fba1b4c562a55,t5nk5gyjlc,Ex2A_Prolific,1,59,2024-02-28T02:39:15+00:00,5.5205659866333,5,Stim_A.csv,Item.csv,Item,A,garbage,,T1,,,38,JOL,User,1.25,"How likely are you to correctly recall the second item in the pair?|Type your response on a scale from 0-100 and then press Enter.",Trash,T1,5181,,,4530,4806,,,,40,1
5f516a44067fba1b4c562a55,t5nk5gyjlc,Ex2A_Prolific,1,60,2024-02-28T02:39:24+00:00,8.5582590103149,5,Stim_A.csv,Item.csv,Item,A,rubbish,,T2,,,39,JOL,User,1.25,"How likely are you to correctly recall the second item in the pair?|Type your response on a scale from 0-100 and then press Enter.",Trash,T2,8243,,,7390,7543,,,,50,1
5f516a44067fba1b4c562a55,t5nk5gyjlc,Ex2A_Prolific,1,61,2024-02-28T02:39:34+00:00,9.7196469306946,5,Stim_A.csv,Item.csv,Item,A,debris,,T3,,,40,JOL,User,1.25,"How likely are you to correctly recall the second item in the pair?|Type your response on a scale from 0-100 and then press Enter.",Trash,T3,9405,,,6939,7766,,,,35,1
5f516a44067fba1b4c562a55,t5nk5gyjlc,Ex2A_Prolific,1,62,2024-02-28T02:39:43+00:00,9.3095579147339,5,Stim_A.csv,Item.csv,Item,A,dump,,T4,,,41,JOL,User,1.25,"How likely are you to correctly recall the second item in the pair?|Type your response on a scale from 0-100 and then press Enter.",Trash,T4,8849,,,5989,6454,,,,60,1
5f516a44067fba1b4c562a55,t5nk5gyjlc,Ex2A_Prolific,1,63,2024-02-28T02:39:58+00:00,14.61314201355,5,Stim_A.csv,Item.csv,Item,A,litter,,T5,,,42,JOL,User,1.25,"How likely are you to correctly recall the second item in the pair?|Type your response on a scale from 0-100 and then press Enter.",Trash,T5,14283,,,12046,12388,,,,50,1
5f516a44067fba1b4c562a55,t5nk5gyjlc,Ex2A_Prolific,1,64,2024-02-28T02:40:06+00:00,8.9271311759949,5,Stim_A.csv,Item.csv,Item,A,landfill,,T6,,,43,JOL,User,1.25,"How likely are you to correctly recall the second item in the pair?|Type your response on a scale from 0-100 and then press Enter.",Trash,T6,8541,,,7005,8350,,,,20,1
5f516a44067fba1b4c562a55,t5nk5gyjlc,Ex2A_Prolific,1,65,2024-02-28T02:40:10+00:00,3.8893439769745,5,Stim_A.csv,Item.csv,Item,A,junk,,T7,,,44,JOL,User,1.25,"How likely are you to correctly recall the second item in the pair?|Type your response on a scale from 0-100 and then press Enter.",Trash,T7,3541,,,1980,2353,,,,35,1
5f516a44067fba1b4c562a55,t5nk5gyjlc,Ex2A_Prolific,1,66,2024-02-28T02:40:23+00:00,12.554221868515,5,Stim_A.csv,Item.csv,Item,A,waste,,T8,,,45,JOL,User,1.25,"How likely are you to correctly recall the second item in the pair?|Type your response on a scale from 0-100 and then press Enter.",Trash,T8,12140,,,7269,11295,,,,30,1
5f516a44067fba1b4c562a55,t5nk5gyjlc,Ex2A_Prolific,1,67,2024-02-28T02:40:27+00:00,4.3499281406403,5,Stim_A.csv,Item.csv,Item,A,sewage,,T9,,,46,JOL,User,1.25,"How likely are you to correctly recall the second item in the pair?|Type your response on a scale from 0-100 and then press Enter.",Trash,T9,4054,,,2296,2615,,,,15,1
5f516a44067fba1b4c562a55,t5nk5gyjlc,Ex2A_Prolific,1,68,2024-02-28T02:40:39+00:00,11.710362911224,5,Stim_A.csv,Item.csv,Item,A,pile,,T10,,,47,JOL,User,1.25,"How likely are you to correctly recall the second item in the pair?|Type your response on a scale from 0-100 and then press Enter.",Trash,T10,11335,,,10219,11015,,,,40,1
5f516a44067fba1b4c562a55,t5nk5gyjlc,Ex2A_Prolific,1,69,2024-02-28T02:40:43+00:00,4.4132859706879,5,Stim_A.csv,Item.csv,Item,A,scraps,,T11,,,48,JOL,User,1.25,"How likely are you to correctly recall the second item in the pair?|Type your response on a scale from 0-100 and then press Enter.",Trash,T11,4084,,,3670,3782,,,,15,1
5f516a44067fba1b4c562a55,t5nk5gyjlc,Ex2A_Prolific,1,70,2024-02-28T02:40:48+00:00,4.9571070671082,5,Stim_A.csv,Item.csv,Item,A,refuse,,T12,,,49,JOL,User,1.25,"How likely are you to correctly recall the second item in the pair?|Type your response on a scale from 0-100 and then press Enter.",Trash,T12,4654,,,4302,4477,,,,10,1
5f516a44067fba1b4c562a55,t5nk5gyjlc,Ex2A_Prolific,1,71,2024-02-28T02:40:53+00:00,5.1264939308167,5,Stim_A.csv,Item.csv,Item,A,,,,,,0,Instruct,User,4,"You have completed this section. Please click next.",,Instruct166,4804,,,-1,-1,,,,,1
5f516a44067fba1b4c562a55,t5nk5gyjlc,Ex2A_Prolific,1,72,2024-02-28T02:41:24+00:00,30.483066082001,5,Stim_A.csv,Item.csv,Item,A,,,,,,0,FreeRecall,30,30,"Please type as many words as you can that begin with the letter ""L"". The computer will automatically advance to the next screen in 30 seconds.",,FILLER,30003,"love light late lame laser leaf letter lip like lady ",0,2275,28721,0,0,,,1
5f516a44067fba1b4c562a55,t5nk5gyjlc,Ex2A_Prolific,1,73,2024-02-28T02:41:26+00:00,1.9535398483276,5,Stim_A.csv,Item.csv,Item,A,,,,,,0,Instruct,User,-,"You have completed this section. Please click next.",,Instruct166,1605,,,-1,-1,,,,,1
5f516a44067fba1b4c562a55,t5nk5gyjlc,Ex2A_Prolific,1,74,2024-02-28T02:41:31+00:00,5.5718870162964,5,Stim_A.csv,Item.csv,Item,A,,,,,,0,Instruct,User,4,"You will now complete a memory test for the words you just studied. Please type as many words from the previous list as you can seperated by a comma. Spelling will not count against you and you can recall the words in any order. This test will be timed for one minute, and the computer will automatically advance once time is up. Click next when you are ready to begin.",,Instruct1666,5223,,,-1,-1,,,,,1
5f516a44067fba1b4c562a55,t5nk5gyjlc,Ex2A_Prolific,1,75,2024-02-28T02:42:32+00:00,60.473850011826,5,Stim_A.csv,Item.csv,Item,A,,,,,,0,FreeRecall,60,60,"Please type as many words as you can from the previous study list in any order. Please separate each word with a comma. Spelling will not count against you. This screen will automatically advance in one minute.",,RECALL_Test,60005,"rubbish, garbage, litter, debris, landfill, waste, dump ",0,925,42694,0,0,,,1
5f516a44067fba1b4c562a55,t5nk5gyjlc,Ex2A_Prolific,1,76,2024-02-28T02:42:41+00:00,8.5595710277557,5,Stim_A.csv,Item.csv,Item,A,,,,,,0,Instruct,User,3,"You will now be presented with a new study list. Click next when you are ready to begin.",,NEXT_LIST,8230,,,-1,-1,,,,,1
5f516a44067fba1b4c562a55,t5nk5gyjlc,Ex2A_Prolific,1,77,2024-02-28T02:42:47+00:00,6.1810660362244,5,Stim_A.csv,Item.csv,Item,A,physician,,D1,,,50,JOL,User,1.25,"How likely are you to correctly recall the second item in the pair?|Type your response on a scale from 0-100 and then press Enter.",Doctor,D1,5865,,,5514,5706,,,,10,1
5f516a44067fba1b4c562a55,t5nk5gyjlc,Ex2A_Prolific,1,78,2024-02-28T02:42:56+00:00,8.9894599914551,5,Stim_A.csv,Item.csv,Item,A,nurse,,D2,,,51,JOL,User,1.25,"How likely are you to correctly recall the second item in the pair?|Type your response on a scale from 0-100 and then press Enter.",Doctor,D2,8646,,,7723,8429,,,,40,1
5f516a44067fba1b4c562a55,t5nk5gyjlc,Ex2A_Prolific,1,79,2024-02-28T02:42:59+00:00,3.6242461204529,5,Stim_A.csv,Item.csv,Item,A,stethoscope,,D3,,,52,JOL,User,1.25,"How likely are you to correctly recall the second item in the pair?|Type your response on a scale from 0-100 and then press Enter.",Doctor,D3,3281,,,2529,2529,,,,5,1
5f516a44067fba1b4c562a55,t5nk5gyjlc,Ex2A_Prolific,1,80,2024-02-28T02:43:04+00:00,4.2578208446503,5,Stim_A.csv,Item.csv,Item,A,surgeon,,D4,,,53,JOL,User,1.25,"How likely are you to correctly recall the second item in the pair?|Type your response on a scale from 0-100 and then press Enter.",Doctor,D4,3851,,,3495,3621,,,,60,1
5f516a44067fba1b4c562a55,t5nk5gyjlc,Ex2A_Prolific,1,81,2024-02-28T02:43:07+00:00,3.6247749328613,5,Stim_A.csv,Item.csv,Item,A,patient,,D5,,,54,JOL,User,1.25,"How likely are you to correctly recall the second item in the pair?|Type your response on a scale from 0-100 and then press Enter.",Doctor,D5,3285,,,2470,2735,,,,45,1
5f516a44067fba1b4c562a55,t5nk5gyjlc,Ex2A_Prolific,1,82,2024-02-28T02:43:12+00:00,5.1365752220154,5,Stim_A.csv,Item.csv,Item,A,clinic,,D6,,,55,JOL,User,1.25,"How likely are you to correctly recall the second item in the pair?|Type your response on a scale from 0-100 and then press Enter.",Doctor,D6,4825,,,4312,4494,,,,50,1
5f516a44067fba1b4c562a55,t5nk5gyjlc,Ex2A_Prolific,1,83,2024-02-28T02:43:18+00:00,5.2354648113251,5,Stim_A.csv,Item.csv,Item,A,dentist,,D7,,,56,JOL,User,1.25,"How likely are you to correctly recall the second item in the pair?|Type your response on a scale from 0-100 and then press Enter.",Doctor,D7,4898,,,4492,4636,,,,60,1
5f516a44067fba1b4c562a55,t5nk5gyjlc,Ex2A_Prolific,1,84,2024-02-28T02:43:28+00:00,10.292046070099,5,Stim_A.csv,Item.csv,Item,A,medicine,,D8,,,57,JOL,User,1.25,"How likely are you to correctly recall the second item in the pair?|Type your response on a scale from 0-100 and then press Enter.",Doctor,D8,9950,,,5093,5399,,,,75,1
5f516a44067fba1b4c562a55,t5nk5gyjlc,Ex2A_Prolific,1,85,2024-02-28T02:43:41+00:00,12.924598932266,5,Stim_A.csv,Item.csv,Item,A,lawyer,,D9,,,58,JOL,User,1.25,"How likely are you to correctly recall the second item in the pair?|Type your response on a scale from 0-100 and then press Enter.",Doctor,D9,12474,,,6591,6936,,,,40,1
5f516a44067fba1b4c562a55,t5nk5gyjlc,Ex2A_Prolific,1,86,2024-02-28T02:43:46+00:00,5.0666480064392,5,Stim_A.csv,Item.csv,Item,A,health,,D10,,,59,JOL,User,1.25,"How likely are you to correctly recall the second item in the pair?|Type your response on a scale from 0-100 and then press Enter.",Doctor,D10,4750,,,4306,4531,,,,85,1
5f516a44067fba1b4c562a55,t5nk5gyjlc,Ex2A_Prolific,1,87,2024-02-28T02:43:48+00:00,2.6029951572418,5,Stim_A.csv,Item.csv,Item,A,sick,,D11,,,60,JOL,User,1.25,"How likely are you to correctly recall the second item in the pair?|Type your response on a scale from 0-100 and then press Enter.",Doctor,D11,2296,,,1835,2044,,,,90,1
5f516a44067fba1b4c562a55,t5nk5gyjlc,Ex2A_Prolific,1,88,2024-02-28T02:43:51+00:00,2.9086139202118,5,Stim_A.csv,Item.csv,Item,A,cure,,D12,,,61,JOL,User,1.25,"How likely are you to correctly recall the second item in the pair?|Type your response on a scale from 0-100 and then press Enter.",Doctor,D12,2587,,,1946,2231,,,,75,1
5f516a44067fba1b4c562a55,t5nk5gyjlc,Ex2A_Prolific,1,89,2024-02-28T02:43:55+00:00,3.3652360439301,5,Stim_A.csv,Item.csv,Item,A,,,,,,0,Instruct,User,-,"You have completed this section. Please click next.",,Instruct166,2997,,,-1,-1,,,,,1
5f516a44067fba1b4c562a55,t5nk5gyjlc,Ex2A_Prolific,1,90,2024-02-28T02:44:25+00:00,30.416908025742,5,Stim_A.csv,Item.csv,Item,A,,,,,,0,FreeRecall,30,30,"Please type as many words as you can that begin with the letter ""N"". The computer will automatically advance to the next screen in 30 seconds.",,FILLER,30007,"nurse night name navel no none nice ",0,2071,26979,0,0,,,1
5f516a44067fba1b4c562a55,t5nk5gyjlc,Ex2A_Prolific,1,91,2024-02-28T02:44:30+00:00,5.2525868415833,5,Stim_A.csv,Item.csv,Item,A,,,,,,0,Instruct,User,4,"You have completed this section. Please click next.",,Instruct166,4950,,,-1,-1,,,,,1
5f516a44067fba1b4c562a55,t5nk5gyjlc,Ex2A_Prolific,1,92,2024-02-28T02:44:36+00:00,5.1885030269623,5,Stim_A.csv,Item.csv,Item,A,,,,,,0,Instruct,User,4,"You will now complete a memory test for the words you just studied. Please type as many words from the previous list as you can seperated by a comma. Spelling will not count against you and you can recall the words in any order. This test will be timed for one minute, and the computer will automatically advance once time is up. Click next when you are ready to begin.",,Instruct1666,4855,,,-1,-1,,,,,1
5f516a44067fba1b4c562a55,t5nk5gyjlc,Ex2A_Prolific,1,93,2024-02-28T02:45:36+00:00,60.535350084305,5,Stim_A.csv,Item.csv,Item,A,,,,,,0,FreeRecall,60,60,"Please type as many words as you can from the previous study list in any order. Please separate each word with a comma. Spelling will not count against you. This screen will automatically advance in one minute.",,RECALL_Test,60006,"nurse, surgeon, dentist, cure, clinic, patient, stephoscope, medicine, health ",0,1330,39414,0,0,,,1
5f516a44067fba1b4c562a55,t5nk5gyjlc,Ex2A_Prolific,1,94,2024-02-28T02:45:46+00:00,9.435998916626,5,Stim_A.csv,Item.csv,Item,A,,,,,,0,Instruct,User,3,"You will now be presented with a new study list. Click next when you are ready to begin.",,NEXT_LIST,9087,,,-1,-1,,,,,1
5f516a44067fba1b4c562a55,t5nk5gyjlc,Ex2A_Prolific,1,95,2024-02-28T02:45:53+00:00,7.4682841300964,5,Stim_A.csv,Item.csv,Item,A,fast,,S1,,,62,JOL,User,1.25,"How likely are you to correctly recall the second item in the pair?|Type your response on a scale from 0-100 and then press Enter.",Slow,S1,7140,,,6746,6904,,,,80,1
5f516a44067fba1b4c562a55,t5nk5gyjlc,Ex2A_Prolific,1,96,2024-02-28T02:45:57+00:00,4.0456919670105,5,Stim_A.csv,Item.csv,Item,A,snail,,S2,,,63,JOL,User,1.25,"How likely are you to correctly recall the second item in the pair?|Type your response on a scale from 0-100 and then press Enter.",Slow,S2,3720,,,3146,3334,,,,75,1
5f516a44067fba1b4c562a55,t5nk5gyjlc,Ex2A_Prolific,1,97,2024-02-28T02:46:00+00:00,3.388200044632,5,Stim_A.csv,Item.csv,Item,A,turtle,,S3,,,64,JOL,User,1.25,"How likely are you to correctly recall the second item in the pair?|Type your response on a scale from 0-100 and then press Enter.",Slow,S3,3059,,,2339,2540,,,,60,1
5f516a44067fba1b4c562a55,t5nk5gyjlc,Ex2A_Prolific,1,98,2024-02-28T02:46:04+00:00,3.3965919017792,5,Stim_A.csv,Item.csv,Item,A,sluggish,,S4,,,65,JOL,User,1.25,"How likely are you to correctly recall the second item in the pair?|Type your response on a scale from 0-100 and then press Enter.",Slow,S4,3083,,,2333,2677,,,,75,1
5f516a44067fba1b4c562a55,t5nk5gyjlc,Ex2A_Prolific,1,99,2024-02-28T02:46:08+00:00,4.6393980979919,5,Stim_A.csv,Item.csv,Item,A,quick,,S5,,,66,JOL,User,1.25,"How likely are you to correctly recall the second item in the pair?|Type your response on a scale from 0-100 and then press Enter.",Slow,S5,4264,,,3687,3990,,,,80,1
5f516a44067fba1b4c562a55,t5nk5gyjlc,Ex2A_Prolific,1,100,2024-02-28T02:46:11+00:00,2.7002098560333,5,Stim_A.csv,Item.csv,Item,A,molasses,,S6,,,67,JOL,User,1.25,"How likely are you to correctly recall the second item in the pair?|Type your response on a scale from 0-100 and then press Enter.",Slow,S6,2394,,,1993,2164,,,,10,1
5f516a44067fba1b4c562a55,t5nk5gyjlc,Ex2A_Prolific,1,101,2024-02-28T02:46:20+00:00,8.4122490882874,5,Stim_A.csv,Item.csv,Item,A,lethargic,,S7,,,68,JOL,User,1.25,"How likely are you to correctly recall the second item in the pair?|Type your response on a scale from 0-100 and then press Enter.",Slow,S7,8081,,,6104,6206,,,,20,1
5f516a44067fba1b4c562a55,t5nk5gyjlc,Ex2A_Prolific,1,102,2024-02-28T02:46:23+00:00,3.1604239940643,5,Stim_A.csv,Item.csv,Item,A,speed,,S8,,,69,JOL,User,1.25,"How likely are you to correctly recall the second item in the pair?|Type your response on a scale from 0-100 and then press Enter.",Slow,S8,2749,,,2267,2508,,,,75,1
5f516a44067fba1b4c562a55,t5nk5gyjlc,Ex2A_Prolific,1,103,2024-02-28T02:46:27+00:00,3.8480319976807,5,Stim_A.csv,Item.csv,Item,A,delay,,S9,,,70,JOL,User,1.25,"How likely are you to correctly recall the second item in the pair?|Type your response on a scale from 0-100 and then press Enter.",Slow,S9,3425,,,2716,3162,,,,70,1
5f516a44067fba1b4c562a55,t5nk5gyjlc,Ex2A_Prolific,1,104,2024-02-28T02:46:30+00:00,3.0806930065155,5,Stim_A.csv,Item.csv,Item,A,hesitant,,S10,,,71,JOL,User,1.25,"How likely are you to correctly recall the second item in the pair?|Type your response on a scale from 0-100 and then press Enter.",Slow,S10,2758,,,2516,2516,,,,5,1
5f516a44067fba1b4c562a55,t5nk5gyjlc,Ex2A_Prolific,1,105,2024-02-28T02:46:36+00:00,6.3005678653717,5,Stim_A.csv,Item.csv,Item,A,cautious,,S11,,,72,JOL,User,1.25,"How likely are you to correctly recall the second item in the pair?|Type your response on a scale from 0-100 and then press Enter.",Slow,S11,5968,,,5626,5731,,,,60,1
5f516a44067fba1b4c562a55,t5nk5gyjlc,Ex2A_Prolific,1,106,2024-02-28T02:46:41+00:00,5.0606560707092,5,Stim_A.csv,Item.csv,Item,A,traffic,,S12,,,73,JOL,User,1.25,"How likely are you to correctly recall the second item in the pair?|Type your response on a scale from 0-100 and then press Enter.",Slow,S12,4724,,,3788,3789,,,,8,1
5f516a44067fba1b4c562a55,t5nk5gyjlc,Ex2A_Prolific,1,107,2024-02-28T02:46:46+00:00,4.7985219955444,5,Stim_A.csv,Item.csv,Item,A,,,,,,0,Instruct,User,4,"You have completed this section. Please click next.",,Instruct166,4491,,,-1,-1,,,,,1
5f516a44067fba1b4c562a55,t5nk5gyjlc,Ex2A_Prolific,1,108,2024-02-28T02:47:16+00:00,30.408923149109,5,Stim_A.csv,Item.csv,Item,A,,,,,,0,FreeRecall,30,30,"Please type as many words as you can that begin with the letter ""M"". The computer will automatically advance to the next screen in 30 seconds.",,FILLER,30013,"mother mom mum mike million money mill make more move m",0,1715,27246,0,0,,,1
5f516a44067fba1b4c562a55,t5nk5gyjlc,Ex2A_Prolific,1,109,2024-02-28T02:47:21+00:00,4.625884771347,5,Stim_A.csv,Item.csv,Item,A,,,,,,0,Instruct,User,4,"You have completed this section. Please click next.",,Instruct166,4566,,,-1,-1,,,,,1
5f516a44067fba1b4c562a55,t5nk5gyjlc,Ex2A_Prolific,1,110,2024-02-28T02:47:26+00:00,4.7641670703888,5,Stim_A.csv,Item.csv,Item,A,,,,,,0,Instruct,User,4,"You will now complete a memory test for the words you just studied. Please type as many words from the previous list as you can seperated by a comma. Spelling will not count against you and you can recall the words in any order. This test will be timed for one minute, and the computer will automatically advance once time is up. Click next when you are ready to begin.",,Instruct1666,4459,,,-1,-1,,,,,1
5f516a44067fba1b4c562a55,t5nk5gyjlc,Ex2A_Prolific,1,111,2024-02-28T02:48:26+00:00,60.423967123032,5,Stim_A.csv,Item.csv,Item,A,,,,,,0,FreeRecall,60,60,"Please type as many words as you can from the previous study list in any order. Please separate each word with a comma. Spelling will not count against you. This screen will automatically advance in one minute.",,RECALL_Test,60006,"fast, quick, snail, turtle, cautious, speed, molassis, lethargic ",0,930,42065,0,0,,,1
5f516a44067fba1b4c562a55,t5nk5gyjlc,Ex2A_Prolific,1,112,2024-02-28T02:48:32+00:00,5.9476518630981,5,Stim_A.csv,Item.csv,Item,A,,,,,,0,Instruct,User,3,"You will now be presented with a new study list. Click next when you are ready to begin.",,NEXT_LIST,5629,,,-1,-1,,,,,1
5f516a44067fba1b4c562a55,t5nk5gyjlc,Ex2A_Prolific,1,113,2024-02-28T02:48:38+00:00,6.0774199962616,5,Stim_A.csv,Item.csv,Item,A,mississippi,,RR1,,,74,JOL,User,1.25,"How likely are you to correctly recall the second item in the pair?|Type your response on a scale from 0-100 and then press Enter.",River,RR1,5773,,,4571,4907,,,,80,1
5f516a44067fba1b4c562a55,t5nk5gyjlc,Ex2A_Prolific,1,114,2024-02-28T02:48:42+00:00,4.3865821361542,5,Stim_A.csv,Item.csv,Item,A,creek,,RR2,,,75,JOL,User,1.25,"How likely are you to correctly recall the second item in the pair?|Type your response on a scale from 0-100 and then press Enter.",River,RR2,4086,,,3611,3827,,,,50,1
5f516a44067fba1b4c562a55,t5nk5gyjlc,Ex2A_Prolific,1,115,2024-02-28T02:48:48+00:00,5.1092059612274,5,Stim_A.csv,Item.csv,Item,A,stream,,RR3,,,76,JOL,User,1.25,"How likely are you to correctly recall the second item in the pair?|Type your response on a scale from 0-100 and then press Enter.",River,RR3,4767,,,4304,4533,,,,60,1
5f516a44067fba1b4c562a55,t5nk5gyjlc,Ex2A_Prolific,1,116,2024-02-28T02:48:52+00:00,3.951385974884,5,Stim_A.csv,Item.csv,Item,A,flow,,RR4,,,77,JOL,User,1.25,"How likely are you to correctly recall the second item in the pair?|Type your response on a scale from 0-100 and then press Enter.",River,RR4,3625,,,3042,3320,,,,70,1
5f516a44067fba1b4c562a55,t5nk5gyjlc,Ex2A_Prolific,1,117,2024-02-28T02:48:54+00:00,2.57821393013,5,Stim_A.csv,Item.csv,Item,A,bridge,,RR5,,,78,JOL,User,1.25,"How likely are you to correctly recall the second item in the pair?|Type your response on a scale from 0-100 and then press Enter.",River,RR5,2281,,,1930,2040,,,,30,1
5f516a44067fba1b4c562a55,t5nk5gyjlc,Ex2A_Prolific,1,118,2024-02-28T02:49:00+00:00,5.5411269664764,5,Stim_A.csv,Item.csv,Item,A,brook,,RR6,,,79,JOL,User,1.25,"How likely are you to correctly recall the second item in the pair?|Type your response on a scale from 0-100 and then press Enter.",River,RR6,5208,,,4110,4964,,,,70,1
5f516a44067fba1b4c562a55,t5nk5gyjlc,Ex2A_Prolific,1,119,2024-02-28T02:49:03+00:00,2.8864340782166,5,Stim_A.csv,Item.csv,Item,A,lake,,RR7,,,80,JOL,User,1.25,"How likely are you to correctly recall the second item in the pair?|Type your response on a scale from 0-100 and then press Enter.",River,RR7,2454,,,2010,2208,,,,40,1
5f516a44067fba1b4c562a55,t5nk5gyjlc,Ex2A_Prolific,1,120,2024-02-28T02:49:05+00:00,2.6156449317932,5,Stim_A.csv,Item.csv,Item,A,barge,,RR8,,,81,JOL,User,1.25,"How likely are you to correctly recall the second item in the pair?|Type your response on a scale from 0-100 and then press Enter.",River,RR8,2294,,,1928,2095,,,,10,1
5f516a44067fba1b4c562a55,t5nk5gyjlc,Ex2A_Prolific,1,121,2024-02-28T02:49:08+00:00,2.8518180847168,5,Stim_A.csv,Item.csv,Item,A,water,,RR9,,,82,JOL,User,1.25,"How likely are you to correctly recall the second item in the pair?|Type your response on a scale from 0-100 and then press Enter.",River,RR9,2552,,,2169,2359,,,,90,1
5f516a44067fba1b4c562a55,t5nk5gyjlc,Ex2A_Prolific,1,122,2024-02-28T02:49:11+00:00,2.6078159809113,5,Stim_A.csv,Item.csv,Item,A,boat,,RR10,,,83,JOL,User,1.25,"How likely are you to correctly recall the second item in the pair?|Type your response on a scale from 0-100 and then press Enter.",River,RR10,2279,,,1498,2074,,,,85,1
5f516a44067fba1b4c562a55,t5nk5gyjlc,Ex2A_Prolific,1,123,2024-02-28T02:49:13+00:00,2.7042009830475,5,Stim_A.csv,Item.csv,Item,A,tide,,RR11,,,84,JOL,User,1.25,"How likely are you to correctly recall the second item in the pair?|Type your response on a scale from 0-100 and then press Enter.",River,RR11,2415,,,1917,2166,,,,60,1
5f516a44067fba1b4c562a55,t5nk5gyjlc,Ex2A_Prolific,1,124,2024-02-28T02:49:17+00:00,3.234256029129,5,Stim_A.csv,Item.csv,Item,A,swim,,RR12,,,85,JOL,User,1.25,"How likely are you to correctly recall the second item in the pair?|Type your response on a scale from 0-100 and then press Enter.",River,RR12,2920,,,2453,2709,,,,75,1
5f516a44067fba1b4c562a55,t5nk5gyjlc,Ex2A_Prolific,1,125,2024-02-28T02:49:18+00:00,1.237478017807,5,Stim_A.csv,Item.csv,Item,A,,,,,,0,Instruct,User,-,"You have completed this section. Please click next.",,Instruct166,935,,,-1,-1,,,,,1
5f516a44067fba1b4c562a55,t5nk5gyjlc,Ex2A_Prolific,1,126,2024-02-28T02:49:48+00:00,30.378963947296,5,Stim_A.csv,Item.csv,Item,A,,,,,,0,FreeRecall,30,30,"Please type as many words as you can that begin with the letter ""S"". The computer will automatically advance to the next screen in 30 seconds.",,FILLER,30013,"speed spike slow swim swam sike shake shape ",0,2162,20858,0,0,,,1
5f516a44067fba1b4c562a55,t5nk5gyjlc,Ex2A_Prolific,1,127,2024-02-28T02:49:51+00:00,2.8299379348755,5,Stim_A.csv,Item.csv,Item,A,,,,,,0,Instruct,User,-,"You have completed this section. Please click next.",,Instruct166,2396,,,-1,-1,,,,,1
5f516a44067fba1b4c562a55,t5nk5gyjlc,Ex2A_Prolific,1,128,2024-02-28T02:49:56+00:00,5.0584499835968,5,Stim_A.csv,Item.csv,Item,A,,,,,,0,Instruct,User,4,"You will now complete a memory test for the words you just studied. Please type as many words from the previous list as you can seperated by a comma. Spelling will not count against you and you can recall the words in any order. This test will be timed for one minute, and the computer will automatically advance once time is up. Click next when you are ready to begin.",,Instruct1666,4753,,,-1,-1,,,,,1
5f516a44067fba1b4c562a55,t5nk5gyjlc,Ex2A_Prolific,1,129,2024-02-28T02:50:57+00:00,60.440473079681,5,Stim_A.csv,Item.csv,Item,A,,,,,,0,FreeRecall,60,60,"Please type as many words as you can from the previous study list in any order. Please separate each word with a comma. Spelling will not count against you. This screen will automatically advance in one minute.",,RECALL_Test,60010,"water, boat, swim, mississpi, brook, lake, creek, ",0,1024,26060,0,0,,,1
5f516a44067fba1b4c562a55,t5nk5gyjlc,Ex2A_Prolific,1,130,2024-02-28T02:51:12+00:00,15.070285081863,5,Stim_A.csv,Item.csv,Item,A,,,,,,0,Instruct,User,3,"You will now be presented with a new study list. Click next when you are ready to begin.",,NEXT_LIST,14678,,,-1,-1,,,,,0.952
5f516a44067fba1b4c562a55,t5nk5gyjlc,Ex2A_Prolific,1,131,2024-02-28T02:51:20+00:00,8.1280710697174,5,Stim_A.csv,Item.csv,Item,A,rye,,B1,,,86,JOL,User,1.25,"How likely are you to correctly recall the second item in the pair?|Type your response on a scale from 0-100 and then press Enter.",Bread,B1,7742,,,7271,7484,,,,80,1
5f516a44067fba1b4c562a55,t5nk5gyjlc,Ex2A_Prolific,1,132,2024-02-28T02:51:27+00:00,7.236701965332,5,Stim_A.csv,Item.csv,Item,A,loaf,,B2,,,87,JOL,User,1.25,"How likely are you to correctly recall the second item in the pair?|Type your response on a scale from 0-100 and then press Enter.",Bread,B2,6901,,,3522,3724,,,,90,1
5f516a44067fba1b4c562a55,t5nk5gyjlc,Ex2A_Prolific,1,133,2024-02-28T02:51:34+00:00,6.6188349723816,5,Stim_A.csv,Item.csv,Item,A,butter,,B3,,,88,JOL,User,1.25,"How likely are you to correctly recall the second item in the pair?|Type your response on a scale from 0-100 and then press Enter.",Bread,B3,6281,,,3932,4248,,,,75,1
5f516a44067fba1b4c562a55,t5nk5gyjlc,Ex2A_Prolific,1,134,2024-02-28T02:51:41+00:00,7.1011199951172,5,Stim_A.csv,Item.csv,Item,A,toast,,B4,,,89,JOL,User,1.25,"How likely are you to correctly recall the second item in the pair?|Type your response on a scale from 0-100 and then press Enter.",Bread,B4,6769,,,6177,6502,,,,80,1
5f516a44067fba1b4c562a55,t5nk5gyjlc,Ex2A_Prolific,1,135,2024-02-28T02:51:46+00:00,5.0816328525543,5,Stim_A.csv,Item.csv,Item,A,dough,,B5,,,90,JOL,User,1.25,"How likely are you to correctly recall the second item in the pair?|Type your response on a scale from 0-100 and then press Enter.",Bread,B5,4729,,,4332,4462,,,,90,1
5f516a44067fba1b4c562a55,t5nk5gyjlc,Ex2A_Prolific,1,136,2024-02-28T02:51:50+00:00,4.7519609928131,5,Stim_A.csv,Item.csv,Item,A,crust,,B6,,,91,JOL,User,1.25,"How likely are you to correctly recall the second item in the pair?|Type your response on a scale from 0-100 and then press Enter.",Bread,B6,4416,,,3347,4128,,,,75,1
5f516a44067fba1b4c562a55,t5nk5gyjlc,Ex2A_Prolific,1,137,2024-02-28T02:51:55+00:00,4.587277173996,5,Stim_A.csv,Item.csv,Item,A,flour,,B7,,,92,JOL,User,1.25,"How likely are you to correctly recall the second item in the pair?|Type your response on a scale from 0-100 and then press Enter.",Bread,B7,4261,,,3625,3926,,,,80,1
5f516a44067fba1b4c562a55,t5nk5gyjlc,Ex2A_Prolific,1,138,2024-02-28T02:52:00+00:00,5.3717079162598,5,Stim_A.csv,Item.csv,Item,A,sandwich,,B8,,,93,JOL,User,1.25,"How likely are you to correctly recall the second item in the pair?|Type your response on a scale from 0-100 and then press Enter.",Bread,B8,5061,,,4555,4819,,,,90,1
5f516a44067fba1b4c562a55,t5nk5gyjlc,Ex2A_Prolific,1,139,2024-02-28T02:52:05+00:00,4.5099320411682,5,Stim_A.csv,Item.csv,Item,A,jam,,B9,,,94,JOL,User,1.25,"How likely are you to correctly recall the second item in the pair?|Type your response on a scale from 0-100 and then press Enter.",Bread,B9,4194,,,2060,2392,,,,50,1
5f516a44067fba1b4c562a55,t5nk5gyjlc,Ex2A_Prolific,1,140,2024-02-28T02:52:08+00:00,3.0975539684296,5,Stim_A.csv,Item.csv,Item,A,jelly,,B10,,,95,JOL,User,1.25,"How likely are you to correctly recall the second item in the pair?|Type your response on a scale from 0-100 and then press Enter.",Bread,B10,2786,,,2154,2471,,,,70,1
5f516a44067fba1b4c562a55,t5nk5gyjlc,Ex2A_Prolific,1,141,2024-02-28T02:52:16+00:00,7.6338069438934,5,Stim_A.csv,Item.csv,Item,A,slice,,B11,,,96,JOL,User,1.25,"How likely are you to correctly recall the second item in the pair?|Type your response on a scale from 0-100 and then press Enter.",Bread,B11,7333,,,6871,7091,,,,85,1
5f516a44067fba1b4c562a55,t5nk5gyjlc,Ex2A_Prolific,1,142,2024-02-28T02:52:21+00:00,4.8349759578705,5,Stim_A.csv,Item.csv,Item,A,milk,,B12,,,97,JOL,User,1.25,"How likely are you to correctly recall the second item in the pair?|Type your response on a scale from 0-100 and then press Enter.",Bread,B12,4531,,,3613,3938,,,,75,1
5f516a44067fba1b4c562a55,t5nk5gyjlc,Ex2A_Prolific,1,143,2024-02-28T02:52:26+00:00,5.1589422225952,5,Stim_A.csv,Item.csv,Item,A,,,,,,0,Instruct,User,4,"You have completed this section. Please click next.",,Instruct166,4840,,,-1,-1,,,,,1
5f516a44067fba1b4c562a55,t5nk5gyjlc,Ex2A_Prolific,1,144,2024-02-28T02:52:56+00:00,30.533684968948,5,Stim_A.csv,Item.csv,Item,A,,,,,,0,FreeRecall,30,30,"Please type as many words as you can that begin with the letter ""R"". The computer will automatically advance to the next screen in 30 seconds.",,FILLER,30014,"row right ran run rake runner rim rise rip roar ",0,1706,28287,0,0,,,1
5f516a44067fba1b4c562a55,t5nk5gyjlc,Ex2A_Prolific,1,145,2024-02-28T02:52:59+00:00,2.626678943634,5,Stim_A.csv,Item.csv,Item,A,,,,,,0,Instruct,User,-,"You have completed this section. Please click next.",,Instruct166,2305,,,-1,-1,,,,,1
5f516a44067fba1b4c562a55,t5nk5gyjlc,Ex2A_Prolific,1,146,2024-02-28T02:53:04+00:00,5.0761859416962,5,Stim_A.csv,Item.csv,Item,A,,,,,,0,Instruct,User,4,"You will now complete a memory test for the words you just studied. Please type as many words from the previous list as you can seperated by a comma. Spelling will not count against you and you can recall the words in any order. This test will be timed for one minute, and the computer will automatically advance once time is up. Click next when you are ready to begin.",,Instruct1666,4688,,,-1,-1,,,,,1
5f516a44067fba1b4c562a55,t5nk5gyjlc,Ex2A_Prolific,1,147,2024-02-28T02:54:04+00:00,60.38565993309,5,Stim_A.csv,Item.csv,Item,A,,,,,,0,FreeRecall,60,60,"Please type as many words as you can from the previous study list in any order. Please separate each word with a comma. Spelling will not count against you. This screen will automatically advance in one minute.",,RECALL_Test,60003,"rye, loaf, slice, butter, toast, ja,m jelly, crust, dough, milk, flour, bread",0,1070,58775,0,0,,,1
5f516a44067fba1b4c562a55,t5nk5gyjlc,Ex2A_Prolific,1,148,2024-02-28T02:54:17+00:00,12.652281045914,5,Stim_A.csv,Item.csv,Item,A,,,,,,0,Instruct,User,3,"You will now be presented with a new study list. Click next when you are ready to begin.",,NEXT_LIST,12267,,,-1,-1,,,,,1
5f516a44067fba1b4c562a55,t5nk5gyjlc,Ex2A_Prolific,1,149,2024-02-28T02:54:25+00:00,7.7998220920563,5,Stim_A.csv,Item.csv,Item,A,banner,,F1,,,98,JOL,User,1.25,"How likely are you to correctly recall the second item in the pair?|Type your response on a scale from 0-100 and then press Enter.",Flag,F1,7445,,,6994,7238,,,,75,1
5f516a44067fba1b4c562a55,t5nk5gyjlc,Ex2A_Prolific,1,150,2024-02-28T02:54:30+00:00,4.9623730182648,5,Stim_A.csv,Item.csv,Item,A,checkered,,F2,,,99,JOL,User,1.25,"How likely are you to correctly recall the second item in the pair?|Type your response on a scale from 0-100 and then press Enter.",Flag,F2,4629,,,2188,2246,,,,20,1
5f516a44067fba1b4c562a55,t5nk5gyjlc,Ex2A_Prolific,1,151,2024-02-28T02:54:35+00:00,5.0218930244446,5,Stim_A.csv,Item.csv,Item,A,american,,F3,,,100,JOL,User,1.25,"How likely are you to correctly recall the second item in the pair?|Type your response on a scale from 0-100 and then press Enter.",Flag,F3,4671,,,2756,2874,,,,60,1
5f516a44067fba1b4c562a55,t5nk5gyjlc,Ex2A_Prolific,1,152,2024-02-28T02:54:39+00:00,4.4938189983368,5,Stim_A.csv,Item.csv,Item,A,stripes,,F4,,,101,JOL,User,1.25,"How likely are you to correctly recall the second item in the pair?|Type your response on a scale from 0-100 and then press Enter.",Flag,F4,4191,,,2870,3115,,,,75,1
5f516a44067fba1b4c562a55,t5nk5gyjlc,Ex2A_Prolific,1,153,2024-02-28T02:54:42+00:00,3.120484828949,5,Stim_A.csv,Item.csv,Item,A,pole,,F5,,,102,JOL,User,1.25,"How likely are you to correctly recall the second item in the pair?|Type your response on a scale from 0-100 and then press Enter.",Flag,F5,2785,,,2265,2491,,,,80,1
5f516a44067fba1b4c562a55,t5nk5gyjlc,Ex2A_Prolific,1,154,2024-02-28T02:54:46+00:00,3.596549987793,5,Stim_A.csv,Item.csv,Item,A,anthem,,F6,,,103,JOL,User,1.25,"How likely are you to correctly recall the second item in the pair?|Type your response on a scale from 0-100 and then press Enter.",Flag,F6,3248,,,2432,2502,,,,20,1
5f516a44067fba1b4c562a55,t5nk5gyjlc,Ex2A_Prolific,1,155,2024-02-28T02:54:51+00:00,4.8926310539246,5,Stim_A.csv,Item.csv,Item,A,emblem,,F7,,,104,JOL,User,1.25,"How likely are you to correctly recall the second item in the pair?|Type your response on a scale from 0-100 and then press Enter.",Flag,F7,4529,,,3565,3887,,,,40,1
5f516a44067fba1b4c562a55,t5nk5gyjlc,Ex2A_Prolific,1,156,2024-02-28T02:54:55+00:00,3.8439841270447,5,Stim_A.csv,Item.csv,Item,A,national,,F8,,,105,JOL,User,1.25,"How likely are you to correctly recall the second item in the pair?|Type your response on a scale from 0-100 and then press Enter.",Flag,F8,3507,,,3086,3278,,,,60,1
5f516a44067fba1b4c562a55,t5nk5gyjlc,Ex2A_Prolific,1,157,2024-02-28T02:54:59+00:00,3.9323019981384,5,Stim_A.csv,Item.csv,Item,A,freedom,,F9,,,106,JOL,User,1.25,"How likely are you to correctly recall the second item in the pair?|Type your response on a scale from 0-100 and then press Enter.",Flag,F9,3624,,,3252,3397,,,,90,1
5f516a44067fba1b4c562a55,t5nk5gyjlc,Ex2A_Prolific,1,158,2024-02-28T02:55:03+00:00,4.7702388763428,5,Stim_A.csv,Item.csv,Item,A,symbol,,F10,,,107,JOL,User,1.25,"How likely are you to correctly recall the second item in the pair?|Type your response on a scale from 0-100 and then press Enter.",Flag,F10,4380,,,4030,4137,,,,60,1
5f516a44067fba1b4c562a55,t5nk5gyjlc,Ex2A_Prolific,1,159,2024-02-28T02:55:08+00:00,4.3016710281372,5,Stim_A.csv,Item.csv,Item,A,wave,,F11,,,108,JOL,User,1.25,"How likely are you to correctly recall the second item in the pair?|Type your response on a scale from 0-100 and then press Enter.",Flag,F11,3949,,,1668,1939,,,,80,1
5f516a44067fba1b4c562a55,t5nk5gyjlc,Ex2A_Prolific,1,160,2024-02-28T02:55:12+00:00,4.1395010948181,5,Stim_A.csv,Item.csv,Item,A,stars,,F12,,,109,JOL,User,1.25,"How likely are you to correctly recall the second item in the pair?|Type your response on a scale from 0-100 and then press Enter.",Flag,F12,3804,,,3151,3567,,,,95,1
5f516a44067fba1b4c562a55,t5nk5gyjlc,Ex2A_Prolific,1,161,2024-02-28T02:55:17+00:00,4.7719838619232,5,Stim_A.csv,Item.csv,Item,A,,,,,,0,Instruct,User,4,"You have completed this section. Please click next.",,Instruct166,4443,,,-1,-1,,,,,1
5f516a44067fba1b4c562a55,t5nk5gyjlc,Ex2A_Prolific,1,162,2024-02-28T02:55:47+00:00,30.445325136185,5,Stim_A.csv,Item.csv,Item,A,,,,,,0,FreeRecall,30,30,"Please type as many words as you can that begin with the letter ""T"". The computer will automatically advance to the next screen in 30 seconds.",,FILLER,30006,"the that them these they time train turtle track ",0,2112,23650,0,0,,,1
5f516a44067fba1b4c562a55,t5nk5gyjlc,Ex2A_Prolific,1,163,2024-02-28T02:55:52+00:00,4.741446018219,5,Stim_A.csv,Item.csv,Item,A,,,,,,0,Instruct,User,4,"You have completed this section. Please click next.",,Instruct166,4439,,,-1,-1,,,,,1
5f516a44067fba1b4c562a55,t5nk5gyjlc,Ex2A_Prolific,1,164,2024-02-28T02:55:57+00:00,4.8336968421936,5,Stim_A.csv,Item.csv,Item,A,,,,,,0,Instruct,User,4,"You will now complete a memory test for the words you just studied. Please type as many words from the previous list as you can seperated by a comma. Spelling will not count against you and you can recall the words in any order. This test will be timed for one minute, and the computer will automatically advance once time is up. Click next when you are ready to begin.",,Instruct1666,4523,,,-1,-1,,,,,1
5f516a44067fba1b4c562a55,t5nk5gyjlc,Ex2A_Prolific,1,165,2024-02-28T02:56:57+00:00,60.423295974731,5,Stim_A.csv,Item.csv,Item,A,,,,,,0,FreeRecall,60,60,"Please type as many words as you can from the previous study list in any order. Please separate each word with a comma. Spelling will not count against you. This screen will automatically advance in one minute.",,RECALL_Test,60008,"american, stars, stripe, freedom, emblem, wave, national, pole, flag, ",0,794,45843,0,0,,,1
5f516a44067fba1b4c562a55,t5nk5gyjlc,Ex2A_Prolific,1,166,2024-02-28T02:57:07+00:00,10.172264099121,5,Stim_A.csv,Item.csv,Item,A,,,,,,0,Instruct,User,3,"You will now be presented with a new study list. Click next when you are ready to begin.",,NEXT_LIST,9806,,,-1,-1,,,,,1
5f516a44067fba1b4c562a55,t5nk5gyjlc,Ex2A_Prolific,1,167,2024-02-28T02:57:11+00:00,4.127739906311,5,Stim_A.csv,Item.csv,Item,A,blouse,,SS1,,,110,JOL,User,1.25,"How likely are you to correctly recall the second item in the pair?|Type your response on a scale from 0-100 and then press Enter.",Shirt,SS1,3776,,,3370,3569,,,,10,1
5f516a44067fba1b4c562a55,t5nk5gyjlc,Ex2A_Prolific,1,168,2024-02-28T02:57:15+00:00,4.0855920314789,5,Stim_A.csv,Item.csv,Item,A,sleeves,,SS2,,,111,JOL,User,1.25,"How likely are you to correctly recall the second item in the pair?|Type your response on a scale from 0-100 and then press Enter.",Shirt,SS2,3758,,,2365,2551,,,,50,1
5f516a44067fba1b4c562a55,t5nk5gyjlc,Ex2A_Prolific,1,169,2024-02-28T02:57:22+00:00,6.7458400726318,5,Stim_A.csv,Item.csv,Item,A,collar,,SS3,,,112,JOL,User,1.25,"How likely are you to correctly recall the second item in the pair?|Type your response on a scale from 0-100 and then press Enter.",Shirt,SS3,6367,,,5901,6035,,,,80,1
5f516a44067fba1b4c562a55,t5nk5gyjlc,Ex2A_Prolific,1,170,2024-02-28T02:57:27+00:00,4.6715910434723,5,Stim_A.csv,Item.csv,Item,A,shorts,,SS4,,,113,JOL,User,1.25,"How likely are you to correctly recall the second item in the pair?|Type your response on a scale from 0-100 and then press Enter.",Shirt,SS4,4334,,,3281,3750,,,,70,1
5f516a44067fba1b4c562a55,t5nk5gyjlc,Ex2A_Prolific,1,171,2024-02-28T02:57:31+00:00,4.4274599552155,5,Stim_A.csv,Item.csv,Item,A,button,,SS5,,,114,JOL,User,1.25,"How likely are you to correctly recall the second item in the pair?|Type your response on a scale from 0-100 and then press Enter.",Shirt,SS5,4085,,,3641,3868,,,,85,1
5f516a44067fba1b4c562a55,t5nk5gyjlc,Ex2A_Prolific,1,172,2024-02-28T02:57:35+00:00,3.6478378772736,5,Stim_A.csv,Item.csv,Item,A,pants,,SS6,,,115,JOL,User,1.25,"How likely are you to correctly recall the second item in the pair?|Type your response on a scale from 0-100 and then press Enter.",Shirt,SS6,3284,,,2850,2965,,,,65,1
5f516a44067fba1b4c562a55,t5nk5gyjlc,Ex2A_Prolific,1,173,2024-02-28T02:57:37+00:00,2.4751751422882,5,Stim_A.csv,Item.csv,Item,A,polo,,SS7,,,116,JOL,User,1.25,"How likely are you to correctly recall the second item in the pair?|Type your response on a scale from 0-100 and then press Enter.",Shirt,SS7,2148,,,1768,1964,,,,20,1
5f516a44067fba1b4c562a55,t5nk5gyjlc,Ex2A_Prolific,1,174,2024-02-28T02:57:42+00:00,4.5362348556519,5,Stim_A.csv,Item.csv,Item,A,jersey,,SS8,,,117,JOL,User,1.25,"How likely are you to correctly recall the second item in the pair?|Type your response on a scale from 0-100 and then press Enter.",Shirt,SS8,4206,,,3694,3975,,,,60,1
5f516a44067fba1b4c562a55,t5nk5gyjlc,Ex2A_Prolific,1,175,2024-02-28T02:57:47+00:00,4.8709261417389,5,Stim_A.csv,Item.csv,Item,A,vest,,SS9,,,118,JOL,User,1.25,"How likely are you to correctly recall the second item in the pair?|Type your response on a scale from 0-100 and then press Enter.",Shirt,SS9,4505,,,4012,4247,,,,70,1
5f516a44067fba1b4c562a55,t5nk5gyjlc,Ex2A_Prolific,1,176,2024-02-28T02:57:51+00:00,4.6394140720367,5,Stim_A.csv,Item.csv,Item,A,cuffs,,SS10,,,119,JOL,User,1.25,"How likely are you to correctly recall the second item in the pair?|Type your response on a scale from 0-100 and then press Enter.",Shirt,SS10,4311,,,2857,2947,,,,65,1
5f516a44067fba1b4c562a55,t5nk5gyjlc,Ex2A_Prolific,1,177,2024-02-28T02:57:54+00:00,2.1298987865448,5,Stim_A.csv,Item.csv,Item,A,tie,,SS11,,,120,JOL,User,1.25,"How likely are you to correctly recall the second item in the pair?|Type your response on a scale from 0-100 and then press Enter.",Shirt,SS11,1818,,,1385,1557,,,,90,1
5f516a44067fba1b4c562a55,t5nk5gyjlc,Ex2A_Prolific,1,178,2024-02-28T02:57:57+00:00,2.9502990245819,5,Stim_A.csv,Item.csv,Item,A,pocket,,SS12,,,121,JOL,User,1.25,"How likely are you to correctly recall the second item in the pair?|Type your response on a scale from 0-100 and then press Enter.",Shirt,SS12,2601,,,2232,2401,,,,95,1
5f516a44067fba1b4c562a55,t5nk5gyjlc,Ex2A_Prolific,1,179,2024-02-28T02:57:58+00:00,1.2149381637573,5,Stim_A.csv,Item.csv,Item,A,,,,,,0,Instruct,User,-,"You have completed this section. Please click next.",,Instruct166,890,,,-1,-1,,,,,1
5f516a44067fba1b4c562a55,t5nk5gyjlc,Ex2A_Prolific,1,180,2024-02-28T02:58:28+00:00,30.423838853836,5,Stim_A.csv,Item.csv,Item,A,,,,,,0,FreeRecall,30,30,"Please type as many words as you can that begin with the letter ""C"". The computer will automatically advance to the next screen in 30 seconds.",,FILLER,30003,"crayon cry crate craine cream crease colour cartoon ",0,3314,28460,0,0,,,1
5f516a44067fba1b4c562a55,t5nk5gyjlc,Ex2A_Prolific,1,181,2024-02-28T02:58:34+00:00,5.4709980487823,5,Stim_A.csv,Item.csv,Item,A,,,,,,0,Instruct,User,4,"You have completed this section. Please click next.",,Instruct166,5113,,,-1,-1,,,,,1
5f516a44067fba1b4c562a55,t5nk5gyjlc,Ex2A_Prolific,1,182,2024-02-28T02:58:39+00:00,4.9671080112457,5,Stim_A.csv,Item.csv,Item,A,,,,,,0,Instruct,User,4,"You will now complete a memory test for the words you just studied. Please type as many words from the previous list as you can seperated by a comma. Spelling will not count against you and you can recall the words in any order. This test will be timed for one minute, and the computer will automatically advance once time is up. Click next when you are ready to begin.",,Instruct1666,4650,,,-1,-1,,,,,1
5f516a44067fba1b4c562a55,t5nk5gyjlc,Ex2A_Prolific,1,183,2024-02-28T02:59:39+00:00,60.426935911179,5,Stim_A.csv,Item.csv,Item,A,,,,,,0,FreeRecall,60,60,"Please type as many words as you can from the previous study list in any order. Please separate each word with a comma. Spelling will not count against you. This screen will automatically advance in one minute.",,RECALL_Test,60005,"collar, tie, button, sleeve, vest, shorts, pants, blouse, jersey, pocket, cuffs, ",0,795,35677,0,0,,,1
5f516a44067fba1b4c562a55,t5nk5gyjlc,Ex2A_Prolific,1,184,2024-02-28T02:59:43+00:00,3.8522810935974,5,Stim_A.csv,Item.csv,Item,A,,,,,,0,Instruct,User,-,"You have completed this section. Please click next.",,Instruct7,3505,,,-1,-1,,,,,1
5f516a44067fba1b4c562a55,t5nk5gyjlc,Ex2A_Prolific,1,185,2024-02-28T02:59:47+00:00,4.3199620246887,5,Stim_A.csv,Item.csv,Item,A,,,,,,0,Instruct,User,-,"The following screen will ask you a few questions abour your experience today. You must complete these questions to receive credit.",,Instruct8,4009,,,-1,-1,,,,,1
