Username,ID,ExperimentName,Session,Trial,Date,TimeDif,"Condition Number","Stimuli File","Order File","Condition Description","Condition Notes",Stimuli*Cue,Stimuli*Answer,Stimuli*Shuffle,"Stimuli*Stimuli Notes",Stimuli*Value,Procedure*Item,"Procedure*Trial Type","Procedure*Max Time","Procedure*Min Time",Procedure*Text,"Procedure*Procedure Notes",Procedure*Shuffle,Response*RT,Response*Response,Response*Accuracy,Response*RTfirst,Response*RTlast,Response*strictAcc,Response*lenientAcc,Response*focus,Response*JOL,Response*Focus
65cb5ab499be01f6d1779d43,ly774fxr5v,Ex2A_Prolific,1,1,2024-02-27T23:26:40+00:00,5.8453180789948,5,Stim_A.csv,Item.csv,Item,A,,,,,,0,Instruct,-,5,"In this section, you will be presented with a series of words. Please study each word carefully. Your memory will be tested!",Initial_Instruct,Instruct1,5670,,,-1,-1,,,,,1
65cb5ab499be01f6d1779d43,ly774fxr5v,Ex2A_Prolific,1,2,2024-02-27T23:26:47+00:00,7.1486768722534,5,Stim_A.csv,Item.csv,Item,A,,,,,,0,Instruct,-,5,"As you study, you will be asked to rate your ability to remember each item on a later memory test using a 0-100 scale. For example, if you study the word DOG, a rating of 0 indicates that you would not remember DOG at test, while a rating of 100 indicates full certainty that you would remember the word DOG at test.",,Instruct13,6910,,,-1,-1,,,,,1
65cb5ab499be01f6d1779d43,ly774fxr5v,Ex2A_Prolific,1,3,2024-02-27T23:27:01+00:00,14.01044011116,5,Stim_A.csv,Item.csv,Item,A,,,,,,0,Instruct,-,10,"When making your ratings, it is criticial that you use the full range of the scale. You will be disqualified for only giving ratings of 0 or 100!",,Instruct15,13780,,,-1,-1,,,,,0.812
65cb5ab499be01f6d1779d43,ly774fxr5v,Ex2A_Prolific,1,4,2024-02-27T23:27:02+00:00,0.98737001419067,5,Stim_A.csv,Item.csv,Item,A,,,,,,0,Instruct,User,-,"You will now begin the study. Click next when you are ready to begin.",,Instruct16,759,,,-1,-1,,,,,1
65cb5ab499be01f6d1779d43,ly774fxr5v,Ex2A_Prolific,1,5,2024-02-27T23:27:07+00:00,5.4628119468689,5,Stim_A.csv,Item.csv,Item,A,pane,,Win_1,,,2,JOL,User,1.25,"How likely are you to correctly recall the second item in the pair?|Type your response on a scale from 0-100 and then press Enter.",Window,Win_1,5231,,,4854,5013,,,,20,1
65cb5ab499be01f6d1779d43,ly774fxr5v,Ex2A_Prolific,1,6,2024-02-27T23:27:10+00:00,2.9265208244324,5,Stim_A.csv,Item.csv,Item,A,sill,,Win_2,,,3,JOL,User,1.25,"How likely are you to correctly recall the second item in the pair?|Type your response on a scale from 0-100 and then press Enter.",Window,Win_2,2733,,,2344,2518,,,,10,1
65cb5ab499be01f6d1779d43,ly774fxr5v,Ex2A_Prolific,1,7,2024-02-27T23:27:13+00:00,2.8952012062073,5,Stim_A.csv,Item.csv,Item,A,shutter,,Win_3,,,4,JOL,User,1.25,"How likely are you to correctly recall the second item in the pair?|Type your response on a scale from 0-100 and then press Enter.",Window,Win_3,2707,,,2304,2502,,,,40,1
65cb5ab499be01f6d1779d43,ly774fxr5v,Ex2A_Prolific,1,8,2024-02-27T23:27:17+00:00,4.3144409656525,5,Stim_A.csv,Item.csv,Item,A,curtain,,Win_4,,,5,JOL,User,1.25,"How likely are you to correctly recall the second item in the pair?|Type your response on a scale from 0-100 and then press Enter.",Window,Win_4,4126,,,1643,3908,,,,50,1
65cb5ab499be01f6d1779d43,ly774fxr5v,Ex2A_Prolific,1,9,2024-02-27T23:27:22+00:00,4.9025650024414,5,Stim_A.csv,Item.csv,Item,A,door,,Win_5,,,6,JOL,User,1.25,"How likely are you to correctly recall the second item in the pair?|Type your response on a scale from 0-100 and then press Enter.",Window,Win_5,4723,,,2300,4495,,,,90,1
65cb5ab499be01f6d1779d43,ly774fxr5v,Ex2A_Prolific,1,10,2024-02-27T23:27:25+00:00,2.7037570476532,5,Stim_A.csv,Item.csv,Item,A,ledge,,Win_6,,,7,JOL,User,1.25,"How likely are you to correctly recall the second item in the pair?|Type your response on a scale from 0-100 and then press Enter.",Window,Win_6,2515,,,2046,2286,,,,70,1
65cb5ab499be01f6d1779d43,ly774fxr5v,Ex2A_Prolific,1,11,2024-02-27T23:27:28+00:00,2.6153719425201,5,Stim_A.csv,Item.csv,Item,A,glass,,Win_7,,,8,JOL,User,1.25,"How likely are you to correctly recall the second item in the pair?|Type your response on a scale from 0-100 and then press Enter.",Window,Win_7,2436,,,1547,2233,,,,90,1
65cb5ab499be01f6d1779d43,ly774fxr5v,Ex2A_Prolific,1,12,2024-02-27T23:27:30+00:00,2.7435009479523,5,Stim_A.csv,Item.csv,Item,A,view,,Win_8,,,9,JOL,User,1.25,"How likely are you to correctly recall the second item in the pair?|Type your response on a scale from 0-100 and then press Enter.",Window,Win_8,2563,,,2110,2360,,,,90,1
65cb5ab499be01f6d1779d43,ly774fxr5v,Ex2A_Prolific,1,13,2024-02-27T23:27:33+00:00,2.6651029586792,5,Stim_A.csv,Item.csv,Item,A,screen,,Win_9,,,10,JOL,User,1.25,"How likely are you to correctly recall the second item in the pair?|Type your response on a scale from 0-100 and then press Enter.",Window,Win_9,2482,,,1374,2203,,,,80,1
65cb5ab499be01f6d1779d43,ly774fxr5v,Ex2A_Prolific,1,14,2024-02-27T23:27:36+00:00,2.8276779651642,5,Stim_A.csv,Item.csv,Item,A,shade,,Win_10,,,11,JOL,User,1.25,"How likely are you to correctly recall the second item in the pair?|Type your response on a scale from 0-100 and then press Enter.",Window,Win_10,2645,,,2241,2463,,,,50,1
65cb5ab499be01f6d1779d43,ly774fxr5v,Ex2A_Prolific,1,15,2024-02-27T23:27:41+00:00,4.937304019928,5,Stim_A.csv,Item.csv,Item,A,open,,Win_11,,,12,JOL,User,1.25,"How likely are you to correctly recall the second item in the pair?|Type your response on a scale from 0-100 and then press Enter.",Window,Win_11,4755,,,3949,4529,,,,90,1
65cb5ab499be01f6d1779d43,ly774fxr5v,Ex2A_Prolific,1,16,2024-02-27T23:27:44+00:00,3.1183280944824,5,Stim_A.csv,Item.csv,Item,A,frame,,Win_12,,,13,JOL,User,1.25,"How likely are you to correctly recall the second item in the pair?|Type your response on a scale from 0-100 and then press Enter.",Window,Win_12,2923,,,2246,2690,,,,60,1
65cb5ab499be01f6d1779d43,ly774fxr5v,Ex2A_Prolific,1,17,2024-02-27T23:27:45+00:00,1.0994899272919,5,Stim_A.csv,Item.csv,Item,A,,,,,,0,Instruct,User,-,"You have completed this section. Please click next.",,Instruct166,914,,,-1,-1,,,,,1
65cb5ab499be01f6d1779d43,ly774fxr5v,Ex2A_Prolific,1,18,2024-02-27T23:28:15+00:00,30.260854005814,5,Stim_A.csv,Item.csv,Item,A,,,,,,0,FreeRecall,30,30,"Please type as many words as you can that begin with the letter ""R"". The computer will automatically advance to the next screen in 30 seconds.",,FILLER,30007,"roof robot ray run ranch ",0,1826,27420,0,0,,,1
65cb5ab499be01f6d1779d43,ly774fxr5v,Ex2A_Prolific,1,19,2024-02-27T23:28:23+00:00,7.6254880428314,5,Stim_A.csv,Item.csv,Item,A,,,,,,0,Instruct,User,4,"You have completed this section. Please click next.",,Instruct166,7392,,,-1,-1,,,,,1
65cb5ab499be01f6d1779d43,ly774fxr5v,Ex2A_Prolific,1,20,2024-02-27T23:28:29+00:00,6.2739510536194,5,Stim_A.csv,Item.csv,Item,A,,,,,,0,Instruct,User,4,"You will now complete a memory test for the words you just studied. Please type as many words from the previous list as you can seperated by a comma. Spelling will not count against you and you can recall the words in any order. This test will be timed for one minute, and the computer will automatically advance once time is up. Click next when you are ready to begin.",,Instruct1666,6014,,,-1,-1,,,,,1
65cb5ab499be01f6d1779d43,ly774fxr5v,Ex2A_Prolific,1,21,2024-02-27T23:29:30+00:00,60.293356895447,5,Stim_A.csv,Item.csv,Item,A,,,,,,0,FreeRecall,60,60,"Please type as many words as you can from the previous study list in any order. Please separate each word with a comma. Spelling will not count against you. This screen will automatically advance in one minute.",,RECALL_Test,60002,"door, window, frame, sill, pane, glass, screen, view, open, ",0,1360,26359,0,0,,,0.913
65cb5ab499be01f6d1779d43,ly774fxr5v,Ex2A_Prolific,1,22,2024-02-27T23:29:34+00:00,4.099023103714,5,Stim_A.csv,Item.csv,Item,A,,,,,,0,Instruct,User,3,"You will now be presented with a new study list. Click next when you are ready to begin.",,NEXT_LIST,3817,,,-1,-1,,,,,0.789
65cb5ab499be01f6d1779d43,ly774fxr5v,Ex2A_Prolific,1,23,2024-02-27T23:29:41+00:00,7.4996619224548,5,Stim_A.csv,Item.csv,Item,A,sandpaper,,R1,,,14,JOL,User,1.25,"How likely are you to correctly recall the second item in the pair?|Type your response on a scale from 0-100 and then press Enter.",Rough,R1,6755,,,4870,5026,,,,40,0.882
65cb5ab499be01f6d1779d43,ly774fxr5v,Ex2A_Prolific,1,24,2024-02-27T23:29:47+00:00,5.6674749851227,5,Stim_A.csv,Item.csv,Item,A,smooth,,R2,,,15,JOL,User,1.25,"How likely are you to correctly recall the second item in the pair?|Type your response on a scale from 0-100 and then press Enter.",Rough,R2,5246,,,1627,5068,,,,30,1
65cb5ab499be01f6d1779d43,ly774fxr5v,Ex2A_Prolific,1,25,2024-02-27T23:29:53+00:00,6.1782040596008,5,Stim_A.csv,Item.csv,Item,A,coarse,,R3,,,16,JOL,User,1.25,"How likely are you to correctly recall the second item in the pair?|Type your response on a scale from 0-100 and then press Enter.",Rough,R3,5863,,,5508,5644,,,,50,0.5
65cb5ab499be01f6d1779d43,ly774fxr5v,Ex2A_Prolific,1,26,2024-02-27T23:29:54+00:00,1.5197129249573,5,Stim_A.csv,Item.csv,Item,A,tough,,R4,,,17,JOL,User,1.25,"How likely are you to correctly recall the second item in the pair?|Type your response on a scale from 0-100 and then press Enter.",Rough,R4,1330,,,1037,1179,,,,50,1
65cb5ab499be01f6d1779d43,ly774fxr5v,Ex2A_Prolific,1,27,2024-02-27T23:29:57+00:00,2.8270480632782,5,Stim_A.csv,Item.csv,Item,A,rugged,,R5,,,18,JOL,User,1.25,"How likely are you to correctly recall the second item in the pair?|Type your response on a scale from 0-100 and then press Enter.",Rough,R5,2635,,,631,2502,,,,10,1
65cb5ab499be01f6d1779d43,ly774fxr5v,Ex2A_Prolific,1,28,2024-02-27T23:30:00+00:00,2.9314479827881,5,Stim_A.csv,Item.csv,Item,A,bumpy,,R6,,,19,JOL,User,1.25,"How likely are you to correctly recall the second item in the pair?|Type your response on a scale from 0-100 and then press Enter.",Rough,R6,2742,,,2242,2447,,,,80,1
65cb5ab499be01f6d1779d43,ly774fxr5v,Ex2A_Prolific,1,29,2024-02-27T23:30:03+00:00,2.4644238948822,5,Stim_A.csv,Item.csv,Item,A,jagged,,R7,,,20,JOL,User,1.25,"How likely are you to correctly recall the second item in the pair?|Type your response on a scale from 0-100 and then press Enter.",Rough,R7,2281,,,1752,2071,,,,20,1
65cb5ab499be01f6d1779d43,ly774fxr5v,Ex2A_Prolific,1,30,2024-02-27T23:30:05+00:00,2.6423590183258,5,Stim_A.csv,Item.csv,Item,A,riders,,R8,,,21,JOL,User,1.25,"How likely are you to correctly recall the second item in the pair?|Type your response on a scale from 0-100 and then press Enter.",Rough,R8,2455,,,1895,2081,,,,10,1
65cb5ab499be01f6d1779d43,ly774fxr5v,Ex2A_Prolific,1,31,2024-02-27T23:30:09+00:00,3.3221051692963,5,Stim_A.csv,Item.csv,Item,A,uneven,,R9,,,22,JOL,User,1.25,"How likely are you to correctly recall the second item in the pair?|Type your response on a scale from 0-100 and then press Enter.",Rough,R9,3141,,,2123,2852,,,,70,1
65cb5ab499be01f6d1779d43,ly774fxr5v,Ex2A_Prolific,1,32,2024-02-27T23:30:13+00:00,3.9086878299713,5,Stim_A.csv,Item.csv,Item,A,road,,R10,,,23,JOL,User,1.25,"How likely are you to correctly recall the second item in the pair?|Type your response on a scale from 0-100 and then press Enter.",Rough,R10,3724,,,2434,3516,,,,80,1
65cb5ab499be01f6d1779d43,ly774fxr5v,Ex2A_Prolific,1,33,2024-02-27T23:30:15+00:00,2.523138999939,5,Stim_A.csv,Item.csv,Item,A,ready,,R11,,,24,JOL,User,1.25,"How likely are you to correctly recall the second item in the pair?|Type your response on a scale from 0-100 and then press Enter.",Rough,R11,2336,,,1981,2104,,,,20,1
65cb5ab499be01f6d1779d43,ly774fxr5v,Ex2A_Prolific,1,34,2024-02-27T23:30:17+00:00,1.8493571281433,5,Stim_A.csv,Item.csv,Item,A,sand,,R12,,,25,JOL,User,1.25,"How likely are you to correctly recall the second item in the pair?|Type your response on a scale from 0-100 and then press Enter.",Rough,R12,1654,,,1232,1401,,,,50,1
65cb5ab499be01f6d1779d43,ly774fxr5v,Ex2A_Prolific,1,35,2024-02-27T23:30:19+00:00,2.0126519203186,5,Stim_A.csv,Item.csv,Item,A,,,,,,0,Instruct,User,-,"You have completed this section. Please click next.",,Instruct166,1826,,,-1,-1,,,,,1
65cb5ab499be01f6d1779d43,ly774fxr5v,Ex2A_Prolific,1,36,2024-02-27T23:30:49+00:00,30.415334939957,5,Stim_A.csv,Item.csv,Item,A,,,,,,0,FreeRecall,30,30,"Please type as many words as you can that begin with the letter ""C"". The computer will automatically advance to the next screen in 30 seconds.",,FILLER,30002,"cant cat crash car counter catnip canister ",0,2811,22841,0,0,,,0.873
65cb5ab499be01f6d1779d43,ly774fxr5v,Ex2A_Prolific,1,37,2024-02-27T23:30:52+00:00,2.3725090026855,5,Stim_A.csv,Item.csv,Item,A,,,,,,0,Instruct,User,-,"You have completed this section. Please click next.",,Instruct166,2085,,,-1,-1,,,,,0.091
65cb5ab499be01f6d1779d43,ly774fxr5v,Ex2A_Prolific,1,38,2024-02-27T23:30:56+00:00,4.4818542003632,5,Stim_A.csv,Item.csv,Item,A,,,,,,0,Instruct,User,4,"You will now complete a memory test for the words you just studied. Please type as many words from the previous list as you can seperated by a comma. Spelling will not count against you and you can recall the words in any order. This test will be timed for one minute, and the computer will automatically advance once time is up. Click next when you are ready to begin.",,Instruct1666,4234,,,-1,-1,,,,,1
65cb5ab499be01f6d1779d43,ly774fxr5v,Ex2A_Prolific,1,39,2024-02-27T23:31:56+00:00,60.266670942307,5,Stim_A.csv,Item.csv,Item,A,,,,,,0,FreeRecall,60,60,"Please type as many words as you can from the previous study list in any order. Please separate each word with a comma. Spelling will not count against you. This screen will automatically advance in one minute.",,RECALL_Test,60004,"sandpaper, paper, coarse, uneven, street, road, bumpy, rough, ",0,3240,39023,0,0,,,0.727
65cb5ab499be01f6d1779d43,ly774fxr5v,Ex2A_Prolific,1,40,2024-02-27T23:32:04+00:00,7.0032689571381,5,Stim_A.csv,Item.csv,Item,A,,,,,,0,Instruct,User,3,"You will now be presented with a new study list. Click next when you are ready to begin.",,NEXT_LIST,6741,,,-1,-1,,,,,0.647
65cb5ab499be01f6d1779d43,ly774fxr5v,Ex2A_Prolific,1,41,2024-02-27T23:32:08+00:00,4.4428329467773,5,Stim_A.csv,Item.csv,Item,A,rage,,A1,,,26,JOL,User,1.25,"How likely are you to correctly recall the second item in the pair?|Type your response on a scale from 0-100 and then press Enter.",Anger,A1,4232,,,3474,3609,,,,80,1
65cb5ab499be01f6d1779d43,ly774fxr5v,Ex2A_Prolific,1,42,2024-02-27T23:32:10+00:00,1.5762670040131,5,Stim_A.csv,Item.csv,Item,A,mad,,A2,,,27,JOL,User,1.25,"How likely are you to correctly recall the second item in the pair?|Type your response on a scale from 0-100 and then press Enter.",Anger,A2,1379,,,917,1059,,,,80,1
65cb5ab499be01f6d1779d43,ly774fxr5v,Ex2A_Prolific,1,43,2024-02-27T23:32:13+00:00,3.1565890312195,5,Stim_A.csv,Item.csv,Item,A,enrage,,A3,,,28,JOL,User,1.25,"How likely are you to correctly recall the second item in the pair?|Type your response on a scale from 0-100 and then press Enter.",Anger,A3,2962,,,2608,2741,,,,90,1
65cb5ab499be01f6d1779d43,ly774fxr5v,Ex2A_Prolific,1,44,2024-02-27T23:32:16+00:00,3.663635969162,5,Stim_A.csv,Item.csv,Item,A,fury,,A4,,,29,JOL,User,1.25,"How likely are you to correctly recall the second item in the pair?|Type your response on a scale from 0-100 and then press Enter.",Anger,A4,3463,,,2842,3232,,,,60,1
65cb5ab499be01f6d1779d43,ly774fxr5v,Ex2A_Prolific,1,45,2024-02-27T23:32:18+00:00,1.724750995636,5,Stim_A.csv,Item.csv,Item,A,temper,,A5,,,30,JOL,User,1.25,"How likely are you to correctly recall the second item in the pair?|Type your response on a scale from 0-100 and then press Enter.",Anger,A5,1530,,,1131,1301,,,,20,1
65cb5ab499be01f6d1779d43,ly774fxr5v,Ex2A_Prolific,1,46,2024-02-27T23:32:20+00:00,1.8681211471558,5,Stim_A.csv,Item.csv,Item,A,ire,,A6,,,31,JOL,User,1.25,"How likely are you to correctly recall the second item in the pair?|Type your response on a scale from 0-100 and then press Enter.",Anger,A6,1675,,,1344,1444,,,,10,1
65cb5ab499be01f6d1779d43,ly774fxr5v,Ex2A_Prolific,1,47,2024-02-27T23:32:23+00:00,2.9727098941803,5,Stim_A.csv,Item.csv,Item,A,wrath,,A7,,,32,JOL,User,1.25,"How likely are you to correctly recall the second item in the pair?|Type your response on a scale from 0-100 and then press Enter.",Anger,A7,2775,,,2322,2573,,,,40,1
65cb5ab499be01f6d1779d43,ly774fxr5v,Ex2A_Prolific,1,48,2024-02-27T23:32:25+00:00,2.3856279850006,5,Stim_A.csv,Item.csv,Item,A,mean,,A8,,,33,JOL,User,1.25,"How likely are you to correctly recall the second item in the pair?|Type your response on a scale from 0-100 and then press Enter.",Anger,A8,2182,,,1599,1847,,,,50,1
65cb5ab499be01f6d1779d43,ly774fxr5v,Ex2A_Prolific,1,49,2024-02-27T23:32:28+00:00,2.5820710659027,5,Stim_A.csv,Item.csv,Item,A,hatred,,A9,,,34,JOL,User,1.25,"How likely are you to correctly recall the second item in the pair?|Type your response on a scale from 0-100 and then press Enter.",Anger,A9,2368,,,1917,2128,,,,80,1
65cb5ab499be01f6d1779d43,ly774fxr5v,Ex2A_Prolific,1,50,2024-02-27T23:32:30+00:00,1.6710560321808,5,Stim_A.csv,Item.csv,Item,A,fight,,A10,,,35,JOL,User,1.25,"How likely are you to correctly recall the second item in the pair?|Type your response on a scale from 0-100 and then press Enter.",Anger,A10,1477,,,705,847,,,,80,1
65cb5ab499be01f6d1779d43,ly774fxr5v,Ex2A_Prolific,1,51,2024-02-27T23:32:31+00:00,1.8342018127441,5,Stim_A.csv,Item.csv,Item,A,hate,,A11,,,36,JOL,User,1.25,"How likely are you to correctly recall the second item in the pair?|Type your response on a scale from 0-100 and then press Enter.",Anger,A11,1638,,,1234,1408,,,,90,1
65cb5ab499be01f6d1779d43,ly774fxr5v,Ex2A_Prolific,1,52,2024-02-27T23:32:33+00:00,1.9976651668549,5,Stim_A.csv,Item.csv,Item,A,fear,,A12,,,37,JOL,User,1.25,"How likely are you to correctly recall the second item in the pair?|Type your response on a scale from 0-100 and then press Enter.",Anger,A12,1801,,,1461,1610,,,,70,1
65cb5ab499be01f6d1779d43,ly774fxr5v,Ex2A_Prolific,1,53,2024-02-27T23:32:35+00:00,2.0153560638428,5,Stim_A.csv,Item.csv,Item,A,,,,,,0,Instruct,User,-,"You have completed this section. Please click next.",,Instruct166,1825,,,-1,-1,,,,,1
65cb5ab499be01f6d1779d43,ly774fxr5v,Ex2A_Prolific,1,54,2024-02-27T23:33:06+00:00,30.320475816727,5,Stim_A.csv,Item.csv,Item,A,,,,,,0,FreeRecall,30,30,"Please type as many words as you can that begin with the letter ""K"". The computer will automatically advance to the next screen in 30 seconds.",,FILLER,30006,"king, kingdom, Kraken, knight, kite, ",0,1688,24928,0,0,,,1
65cb5ab499be01f6d1779d43,ly774fxr5v,Ex2A_Prolific,1,55,2024-02-27T23:33:15+00:00,8.9161591529846,5,Stim_A.csv,Item.csv,Item,A,,,,,,0,Instruct,User,4,"You have completed this section. Please click next.",,Instruct166,8650,,,-1,-1,,,,,0.488
65cb5ab499be01f6d1779d43,ly774fxr5v,Ex2A_Prolific,1,56,2024-02-27T23:33:20+00:00,4.8737509250641,5,Stim_A.csv,Item.csv,Item,A,,,,,,0,Instruct,User,4,"You will now complete a memory test for the words you just studied. Please type as many words from the previous list as you can seperated by a comma. Spelling will not count against you and you can recall the words in any order. This test will be timed for one minute, and the computer will automatically advance once time is up. Click next when you are ready to begin.",,Instruct1666,4599,,,-1,-1,,,,,1
65cb5ab499be01f6d1779d43,ly774fxr5v,Ex2A_Prolific,1,57,2024-02-27T23:34:20+00:00,60.303485870361,5,Stim_A.csv,Item.csv,Item,A,,,,,,0,FreeRecall,60,60,"Please type as many words as you can from the previous study list in any order. Please separate each word with a comma. Spelling will not count against you. This screen will automatically advance in one minute.",,RECALL_Test,60007,"rage, enrage, mean, scary, fury, angry, scary, ",0,1159,20510,0,0,,,0.797
65cb5ab499be01f6d1779d43,ly774fxr5v,Ex2A_Prolific,1,58,2024-02-27T23:34:37+00:00,17.049961090088,5,Stim_A.csv,Item.csv,Item,A,,,,,,0,Instruct,User,3,"You will now be presented with a new study list. Click next when you are ready to begin.",,NEXT_LIST,16749,,,-1,-1,,,,,0.917
65cb5ab499be01f6d1779d43,ly774fxr5v,Ex2A_Prolific,1,59,2024-02-27T23:34:41+00:00,4.3975739479065,5,Stim_A.csv,Item.csv,Item,A,garbage,,T1,,,38,JOL,User,1.25,"How likely are you to correctly recall the second item in the pair?|Type your response on a scale from 0-100 and then press Enter.",Trash,T1,4039,,,2465,3783,,,,50,1
65cb5ab499be01f6d1779d43,ly774fxr5v,Ex2A_Prolific,1,60,2024-02-27T23:34:44+00:00,2.247444152832,5,Stim_A.csv,Item.csv,Item,A,rubbish,,T2,,,39,JOL,User,1.25,"How likely are you to correctly recall the second item in the pair?|Type your response on a scale from 0-100 and then press Enter.",Trash,T2,2017,,,1681,1806,,,,30,1
65cb5ab499be01f6d1779d43,ly774fxr5v,Ex2A_Prolific,1,61,2024-02-27T23:34:45+00:00,1.9483950138092,5,Stim_A.csv,Item.csv,Item,A,debris,,T3,,,40,JOL,User,1.25,"How likely are you to correctly recall the second item in the pair?|Type your response on a scale from 0-100 and then press Enter.",Trash,T3,1716,,,1360,1573,,,,20,1
65cb5ab499be01f6d1779d43,ly774fxr5v,Ex2A_Prolific,1,62,2024-02-27T23:34:50+00:00,4.1014728546143,5,Stim_A.csv,Item.csv,Item,A,dump,,T4,,,41,JOL,User,1.25,"How likely are you to correctly recall the second item in the pair?|Type your response on a scale from 0-100 and then press Enter.",Trash,T4,3865,,,1872,3604,,,,80,1
65cb5ab499be01f6d1779d43,ly774fxr5v,Ex2A_Prolific,1,63,2024-02-27T23:34:52+00:00,2.0800399780273,5,Stim_A.csv,Item.csv,Item,A,litter,,T5,,,42,JOL,User,1.25,"How likely are you to correctly recall the second item in the pair?|Type your response on a scale from 0-100 and then press Enter.",Trash,T5,1874,,,1452,1658,,,,70,1
65cb5ab499be01f6d1779d43,ly774fxr5v,Ex2A_Prolific,1,64,2024-02-27T23:34:54+00:00,1.9287979602814,5,Stim_A.csv,Item.csv,Item,A,landfill,,T6,,,43,JOL,User,1.25,"How likely are you to correctly recall the second item in the pair?|Type your response on a scale from 0-100 and then press Enter.",Trash,T6,1717,,,1266,1482,,,,90,1
65cb5ab499be01f6d1779d43,ly774fxr5v,Ex2A_Prolific,1,65,2024-02-27T23:34:55+00:00,1.8127071857452,5,Stim_A.csv,Item.csv,Item,A,junk,,T7,,,44,JOL,User,1.25,"How likely are you to correctly recall the second item in the pair?|Type your response on a scale from 0-100 and then press Enter.",Trash,T7,1591,,,1232,1356,,,,90,1
65cb5ab499be01f6d1779d43,ly774fxr5v,Ex2A_Prolific,1,66,2024-02-27T23:34:58+00:00,2.3815648555756,5,Stim_A.csv,Item.csv,Item,A,waste,,T8,,,45,JOL,User,1.25,"How likely are you to correctly recall the second item in the pair?|Type your response on a scale from 0-100 and then press Enter.",Trash,T8,2168,,,938,1996,,,,90,1
65cb5ab499be01f6d1779d43,ly774fxr5v,Ex2A_Prolific,1,67,2024-02-27T23:35:00+00:00,2.037388086319,5,Stim_A.csv,Item.csv,Item,A,sewage,,T9,,,46,JOL,User,1.25,"How likely are you to correctly recall the second item in the pair?|Type your response on a scale from 0-100 and then press Enter.",Trash,T9,1828,,,1501,1668,,,,60,1
65cb5ab499be01f6d1779d43,ly774fxr5v,Ex2A_Prolific,1,68,2024-02-27T23:35:02+00:00,2.3192429542542,5,Stim_A.csv,Item.csv,Item,A,pile,,T10,,,47,JOL,User,1.25,"How likely are you to correctly recall the second item in the pair?|Type your response on a scale from 0-100 and then press Enter.",Trash,T10,2105,,,1687,1904,,,,40,1
65cb5ab499be01f6d1779d43,ly774fxr5v,Ex2A_Prolific,1,69,2024-02-27T23:35:04+00:00,1.924437046051,5,Stim_A.csv,Item.csv,Item,A,scraps,,T11,,,48,JOL,User,1.25,"How likely are you to correctly recall the second item in the pair?|Type your response on a scale from 0-100 and then press Enter.",Trash,T11,1709,,,1365,1499,,,,20,1
65cb5ab499be01f6d1779d43,ly774fxr5v,Ex2A_Prolific,1,70,2024-02-27T23:35:06+00:00,2.3552680015564,5,Stim_A.csv,Item.csv,Item,A,refuse,,T12,,,49,JOL,User,1.25,"How likely are you to correctly recall the second item in the pair?|Type your response on a scale from 0-100 and then press Enter.",Trash,T12,2110,,,1806,1935,,,,10,1
65cb5ab499be01f6d1779d43,ly774fxr5v,Ex2A_Prolific,1,71,2024-02-27T23:35:08+00:00,1.7345340251923,5,Stim_A.csv,Item.csv,Item,A,,,,,,0,Instruct,User,-,"You have completed this section. Please click next.",,Instruct166,1534,,,-1,-1,,,,,1
65cb5ab499be01f6d1779d43,ly774fxr5v,Ex2A_Prolific,1,72,2024-02-27T23:35:38+00:00,30.339783906937,5,Stim_A.csv,Item.csv,Item,A,,,,,,0,FreeRecall,30,30,"Please type as many words as you can that begin with the letter ""T"". The computer will automatically advance to the next screen in 30 seconds.",,FILLER,30007,"tin,two,tinfoil, that, took,think, this, taunt",0,1846,15847,0,0,,,0.66
65cb5ab499be01f6d1779d43,ly774fxr5v,Ex2A_Prolific,1,73,2024-02-27T23:35:43+00:00,4.6668729782104,5,Stim_A.csv,Item.csv,Item,A,,,,,,0,Instruct,User,4,"You have completed this section. Please click next.",,Instruct166,4391,,,-1,-1,,,,,0.318
65cb5ab499be01f6d1779d43,ly774fxr5v,Ex2A_Prolific,1,74,2024-02-27T23:35:56+00:00,12.640660047531,5,Stim_A.csv,Item.csv,Item,A,,,,,,0,Instruct,User,4,"You will now complete a memory test for the words you just studied. Please type as many words from the previous list as you can seperated by a comma. Spelling will not count against you and you can recall the words in any order. This test will be timed for one minute, and the computer will automatically advance once time is up. Click next when you are ready to begin.",,Instruct1666,12310,,,-1,-1,,,,,1
65cb5ab499be01f6d1779d43,ly774fxr5v,Ex2A_Prolific,1,75,2024-02-27T23:36:56+00:00,60.29777097702,5,Stim_A.csv,Item.csv,Item,A,,,,,,0,FreeRecall,60,60,"Please type as many words as you can from the previous study list in any order. Please separate each word with a comma. Spelling will not count against you. This screen will automatically advance in one minute.",,RECALL_Test,60007,"garbage, dump, junk, debris, waste, trash, landfill",0,2032,45083,0,0,,,0.893
65cb5ab499be01f6d1779d43,ly774fxr5v,Ex2A_Prolific,1,76,2024-02-27T23:37:02+00:00,5.9093101024628,5,Stim_A.csv,Item.csv,Item,A,,,,,,0,Instruct,User,3,"You will now be presented with a new study list. Click next when you are ready to begin.",,NEXT_LIST,5634,,,-1,-1,,,,,1
65cb5ab499be01f6d1779d43,ly774fxr5v,Ex2A_Prolific,1,77,2024-02-27T23:37:05+00:00,3.0903639793396,5,Stim_A.csv,Item.csv,Item,A,physician,,D1,,,50,JOL,User,1.25,"How likely are you to correctly recall the second item in the pair?|Type your response on a scale from 0-100 and then press Enter.",Doctor,D1,2864,,,2223,2312,,,,90,1
65cb5ab499be01f6d1779d43,ly774fxr5v,Ex2A_Prolific,1,78,2024-02-27T23:37:10+00:00,4.7018358707428,5,Stim_A.csv,Item.csv,Item,A,nurse,,D2,,,51,JOL,User,1.25,"How likely are you to correctly recall the second item in the pair?|Type your response on a scale from 0-100 and then press Enter.",Doctor,D2,4466,,,900,4108,,,,100,1
65cb5ab499be01f6d1779d43,ly774fxr5v,Ex2A_Prolific,1,79,2024-02-27T23:37:13+00:00,3.35209608078,5,Stim_A.csv,Item.csv,Item,A,stethoscope,,D3,,,52,JOL,User,1.25,"How likely are you to correctly recall the second item in the pair?|Type your response on a scale from 0-100 and then press Enter.",Doctor,D3,3125,,,2621,2871,,,,70,1
65cb5ab499be01f6d1779d43,ly774fxr5v,Ex2A_Prolific,1,80,2024-02-27T23:37:15+00:00,2.0747621059418,5,Stim_A.csv,Item.csv,Item,A,surgeon,,D4,,,53,JOL,User,1.25,"How likely are you to correctly recall the second item in the pair?|Type your response on a scale from 0-100 and then press Enter.",Doctor,D4,1854,,,1597,1721,,,,30,1
65cb5ab499be01f6d1779d43,ly774fxr5v,Ex2A_Prolific,1,81,2024-02-27T23:37:17+00:00,1.929703950882,5,Stim_A.csv,Item.csv,Item,A,patient,,D5,,,54,JOL,User,1.25,"How likely are you to correctly recall the second item in the pair?|Type your response on a scale from 0-100 and then press Enter.",Doctor,D5,1704,,,965,1479,,,,90,1
65cb5ab499be01f6d1779d43,ly774fxr5v,Ex2A_Prolific,1,82,2024-02-27T23:37:20+00:00,2.3797209262848,5,Stim_A.csv,Item.csv,Item,A,clinic,,D6,,,55,JOL,User,1.25,"How likely are you to correctly recall the second item in the pair?|Type your response on a scale from 0-100 and then press Enter.",Doctor,D6,2166,,,1695,1944,,,,40,1
65cb5ab499be01f6d1779d43,ly774fxr5v,Ex2A_Prolific,1,83,2024-02-27T23:37:22+00:00,2.989795923233,5,Stim_A.csv,Item.csv,Item,A,dentist,,D7,,,56,JOL,User,1.25,"How likely are you to correctly recall the second item in the pair?|Type your response on a scale from 0-100 and then press Enter.",Doctor,D7,2777,,,2499,2599,,,,50,1
65cb5ab499be01f6d1779d43,ly774fxr5v,Ex2A_Prolific,1,84,2024-02-27T23:37:25+00:00,2.3107831478119,5,Stim_A.csv,Item.csv,Item,A,medicine,,D8,,,57,JOL,User,1.25,"How likely are you to correctly recall the second item in the pair?|Type your response on a scale from 0-100 and then press Enter.",Doctor,D8,2099,,,944,1077,,,,90,1
65cb5ab499be01f6d1779d43,ly774fxr5v,Ex2A_Prolific,1,85,2024-02-27T23:37:27+00:00,1.7680230140686,5,Stim_A.csv,Item.csv,Item,A,lawyer,,D9,,,58,JOL,User,1.25,"How likely are you to correctly recall the second item in the pair?|Type your response on a scale from 0-100 and then press Enter.",Doctor,D9,1549,,,1241,1373,,,,10,1
65cb5ab499be01f6d1779d43,ly774fxr5v,Ex2A_Prolific,1,86,2024-02-27T23:37:28+00:00,1.724634885788,5,Stim_A.csv,Item.csv,Item,A,health,,D10,,,59,JOL,User,1.25,"How likely are you to correctly recall the second item in the pair?|Type your response on a scale from 0-100 and then press Enter.",Doctor,D10,1511,,,1036,1225,,,,60,1
65cb5ab499be01f6d1779d43,ly774fxr5v,Ex2A_Prolific,1,87,2024-02-27T23:37:32+00:00,3.5268349647522,5,Stim_A.csv,Item.csv,Item,A,sick,,D11,,,60,JOL,User,1.25,"How likely are you to correctly recall the second item in the pair?|Type your response on a scale from 0-100 and then press Enter.",Doctor,D11,3309,,,1637,3101,,,,70,1
65cb5ab499be01f6d1779d43,ly774fxr5v,Ex2A_Prolific,1,88,2024-02-27T23:37:34+00:00,2.5676250457764,5,Stim_A.csv,Item.csv,Item,A,cure,,D12,,,61,JOL,User,1.25,"How likely are you to correctly recall the second item in the pair?|Type your response on a scale from 0-100 and then press Enter.",Doctor,D12,2346,,,1950,2165,,,,40,1
65cb5ab499be01f6d1779d43,ly774fxr5v,Ex2A_Prolific,1,89,2024-02-27T23:37:36+00:00,1.8668210506439,5,Stim_A.csv,Item.csv,Item,A,,,,,,0,Instruct,User,-,"You have completed this section. Please click next.",,Instruct166,1652,,,-1,-1,,,,,1
65cb5ab499be01f6d1779d43,ly774fxr5v,Ex2A_Prolific,1,90,2024-02-27T23:38:07+00:00,30.291693925858,5,Stim_A.csv,Item.csv,Item,A,,,,,,0,FreeRecall,30,30,"Please type as many words as you can that begin with the letter ""N"". The computer will automatically advance to the next screen in 30 seconds.",,FILLER,30009,"newt, newton, number, nothing, name",0,1907,14196,0,0,,,0.553
65cb5ab499be01f6d1779d43,ly774fxr5v,Ex2A_Prolific,1,91,2024-02-27T23:38:12+00:00,5.2373151779175,5,Stim_A.csv,Item.csv,Item,A,,,,,,0,Instruct,User,4,"You have completed this section. Please click next.",,Instruct166,4942,,,-1,-1,,,,,0.8
65cb5ab499be01f6d1779d43,ly774fxr5v,Ex2A_Prolific,1,92,2024-02-27T23:38:16+00:00,4.4125168323517,5,Stim_A.csv,Item.csv,Item,A,,,,,,0,Instruct,User,4,"You will now complete a memory test for the words you just studied. Please type as many words from the previous list as you can seperated by a comma. Spelling will not count against you and you can recall the words in any order. This test will be timed for one minute, and the computer will automatically advance once time is up. Click next when you are ready to begin.",,Instruct1666,4154,,,-1,-1,,,,,1
65cb5ab499be01f6d1779d43,ly774fxr5v,Ex2A_Prolific,1,93,2024-02-27T23:39:16+00:00,60.288058996201,5,Stim_A.csv,Item.csv,Item,A,,,,,,0,FreeRecall,60,60,"Please type as many words as you can from the previous study list in any order. Please separate each word with a comma. Spelling will not count against you. This screen will automatically advance in one minute.",,RECALL_Test,60002,"physician, health, patient, sick, lawyer, nurse, surgeon, medicine, clinic, ",0,1281,23865,0,0,,,0.68
65cb5ab499be01f6d1779d43,ly774fxr5v,Ex2A_Prolific,1,94,2024-02-27T23:39:20+00:00,3.9937801361084,5,Stim_A.csv,Item.csv,Item,A,,,,,,0,Instruct,User,3,"You will now be presented with a new study list. Click next when you are ready to begin.",,NEXT_LIST,3748,,,-1,-1,,,,,0.211
65cb5ab499be01f6d1779d43,ly774fxr5v,Ex2A_Prolific,1,95,2024-02-27T23:39:27+00:00,6.9164819717407,5,Stim_A.csv,Item.csv,Item,A,fast,,S1,,,62,JOL,User,1.25,"How likely are you to correctly recall the second item in the pair?|Type your response on a scale from 0-100 and then press Enter.",Slow,S1,6643,,,2718,2859,,,,80,1
65cb5ab499be01f6d1779d43,ly774fxr5v,Ex2A_Prolific,1,96,2024-02-27T23:39:31+00:00,3.8371760845184,5,Stim_A.csv,Item.csv,Item,A,snail,,S2,,,63,JOL,User,1.25,"How likely are you to correctly recall the second item in the pair?|Type your response on a scale from 0-100 and then press Enter.",Slow,S2,3630,,,2755,3195,,,,70,1
65cb5ab499be01f6d1779d43,ly774fxr5v,Ex2A_Prolific,1,97,2024-02-27T23:39:33+00:00,2.0562119483948,5,Stim_A.csv,Item.csv,Item,A,turtle,,S3,,,64,JOL,User,1.25,"How likely are you to correctly recall the second item in the pair?|Type your response on a scale from 0-100 and then press Enter.",Slow,S3,1850,,,1107,1593,,,,70,1
65cb5ab499be01f6d1779d43,ly774fxr5v,Ex2A_Prolific,1,98,2024-02-27T23:39:36+00:00,2.4507260322571,5,Stim_A.csv,Item.csv,Item,A,sluggish,,S4,,,65,JOL,User,1.25,"How likely are you to correctly recall the second item in the pair?|Type your response on a scale from 0-100 and then press Enter.",Slow,S4,2242,,,1871,2072,,,,40,1
65cb5ab499be01f6d1779d43,ly774fxr5v,Ex2A_Prolific,1,99,2024-02-27T23:39:38+00:00,2.2822818756104,5,Stim_A.csv,Item.csv,Item,A,quick,,S5,,,66,JOL,User,1.25,"How likely are you to correctly recall the second item in the pair?|Type your response on a scale from 0-100 and then press Enter.",Slow,S5,2082,,,1700,1858,,,,50,1
65cb5ab499be01f6d1779d43,ly774fxr5v,Ex2A_Prolific,1,100,2024-02-27T23:39:40+00:00,2.0677480697632,5,Stim_A.csv,Item.csv,Item,A,molasses,,S6,,,67,JOL,User,1.25,"How likely are you to correctly recall the second item in the pair?|Type your response on a scale from 0-100 and then press Enter.",Slow,S6,1836,,,1464,1592,,,,10,1
65cb5ab499be01f6d1779d43,ly774fxr5v,Ex2A_Prolific,1,101,2024-02-27T23:39:42+00:00,1.6011569499969,5,Stim_A.csv,Item.csv,Item,A,lethargic,,S7,,,68,JOL,User,1.25,"How likely are you to correctly recall the second item in the pair?|Type your response on a scale from 0-100 and then press Enter.",Slow,S7,1398,,,1008,1127,,,,10,1
65cb5ab499be01f6d1779d43,ly774fxr5v,Ex2A_Prolific,1,102,2024-02-27T23:39:44+00:00,2.346745967865,5,Stim_A.csv,Item.csv,Item,A,speed,,S8,,,69,JOL,User,1.25,"How likely are you to correctly recall the second item in the pair?|Type your response on a scale from 0-100 and then press Enter.",Slow,S8,2151,,,1780,1960,,,,70,1
65cb5ab499be01f6d1779d43,ly774fxr5v,Ex2A_Prolific,1,103,2024-02-27T23:39:47+00:00,3.4442720413208,5,Stim_A.csv,Item.csv,Item,A,delay,,S9,,,70,JOL,User,1.25,"How likely are you to correctly recall the second item in the pair?|Type your response on a scale from 0-100 and then press Enter.",Slow,S9,3244,,,1891,3080,,,,40,1
65cb5ab499be01f6d1779d43,ly774fxr5v,Ex2A_Prolific,1,104,2024-02-27T23:39:49+00:00,1.9726459980011,5,Stim_A.csv,Item.csv,Item,A,hesitant,,S10,,,71,JOL,User,1.25,"How likely are you to correctly recall the second item in the pair?|Type your response on a scale from 0-100 and then press Enter.",Slow,S10,1771,,,1453,1589,,,,30,1
65cb5ab499be01f6d1779d43,ly774fxr5v,Ex2A_Prolific,1,105,2024-02-27T23:39:52+00:00,2.2562720775604,5,Stim_A.csv,Item.csv,Item,A,cautious,,S11,,,72,JOL,User,1.25,"How likely are you to correctly recall the second item in the pair?|Type your response on a scale from 0-100 and then press Enter.",Slow,S11,2047,,,1662,1858,,,,20,1
65cb5ab499be01f6d1779d43,ly774fxr5v,Ex2A_Prolific,1,106,2024-02-27T23:39:56+00:00,4.1242039203644,5,Stim_A.csv,Item.csv,Item,A,traffic,,S12,,,73,JOL,User,1.25,"How likely are you to correctly recall the second item in the pair?|Type your response on a scale from 0-100 and then press Enter.",Slow,S12,3912,,,2156,3754,,,,100,1
65cb5ab499be01f6d1779d43,ly774fxr5v,Ex2A_Prolific,1,107,2024-02-27T23:39:58+00:00,1.6577639579773,5,Stim_A.csv,Item.csv,Item,A,,,,,,0,Instruct,User,-,"You have completed this section. Please click next.",,Instruct166,1444,,,-1,-1,,,,,1
65cb5ab499be01f6d1779d43,ly774fxr5v,Ex2A_Prolific,1,108,2024-02-27T23:40:28+00:00,30.324694156647,5,Stim_A.csv,Item.csv,Item,A,,,,,,0,FreeRecall,30,30,"Please type as many words as you can that begin with the letter ""M"". The computer will automatically advance to the next screen in 30 seconds.",,FILLER,30004,"money, madness, manager, monkey, mountain, ",0,1606,14378,0,0,,,0.607
65cb5ab499be01f6d1779d43,ly774fxr5v,Ex2A_Prolific,1,109,2024-02-27T23:40:32+00:00,4.2795498371124,5,Stim_A.csv,Item.csv,Item,A,,,,,,0,Instruct,User,4,"You have completed this section. Please click next.",,Instruct166,4036,,,-1,-1,,,,,0.714
65cb5ab499be01f6d1779d43,ly774fxr5v,Ex2A_Prolific,1,110,2024-02-27T23:40:36+00:00,4.2632610797882,5,Stim_A.csv,Item.csv,Item,A,,,,,,0,Instruct,User,4,"You will now complete a memory test for the words you just studied. Please type as many words from the previous list as you can seperated by a comma. Spelling will not count against you and you can recall the words in any order. This test will be timed for one minute, and the computer will automatically advance once time is up. Click next when you are ready to begin.",,Instruct1666,4038,,,-1,-1,,,,,1
65cb5ab499be01f6d1779d43,ly774fxr5v,Ex2A_Prolific,1,111,2024-02-27T23:41:37+00:00,60.306776046753,5,Stim_A.csv,Item.csv,Item,A,,,,,,0,FreeRecall,60,60,"Please type as many words as you can from the previous study list in any order. Please separate each word with a comma. Spelling will not count against you. This screen will automatically advance in one minute.",,RECALL_Test,60004,"turtle, snail, molasses, fast, quick, speed, traffic, ",0,1359,16158,0,0,,,0.35
65cb5ab499be01f6d1779d43,ly774fxr5v,Ex2A_Prolific,1,112,2024-02-27T23:43:25+00:00,108.68730401993,5,Stim_A.csv,Item.csv,Item,A,,,,,,0,Instruct,User,3,"You will now be presented with a new study list. Click next when you are ready to begin.",,NEXT_LIST,108412,,,-1,-1,,,,,0.002
65cb5ab499be01f6d1779d43,ly774fxr5v,Ex2A_Prolific,1,113,2024-02-27T23:43:29+00:00,3.6650619506836,5,Stim_A.csv,Item.csv,Item,A,mississippi,,RR1,,,74,JOL,User,1.25,"How likely are you to correctly recall the second item in the pair?|Type your response on a scale from 0-100 and then press Enter.",River,RR1,3311,,,1970,3073,,,,80,1
65cb5ab499be01f6d1779d43,ly774fxr5v,Ex2A_Prolific,1,114,2024-02-27T23:43:31+00:00,2.2878499031067,5,Stim_A.csv,Item.csv,Item,A,creek,,RR2,,,75,JOL,User,1.25,"How likely are you to correctly recall the second item in the pair?|Type your response on a scale from 0-100 and then press Enter.",River,RR2,2063,,,1369,1763,,,,60,1
65cb5ab499be01f6d1779d43,ly774fxr5v,Ex2A_Prolific,1,115,2024-02-27T23:43:36+00:00,4.9721450805664,5,Stim_A.csv,Item.csv,Item,A,stream,,RR3,,,76,JOL,User,1.25,"How likely are you to correctly recall the second item in the pair?|Type your response on a scale from 0-100 and then press Enter.",River,RR3,4753,,,4284,4499,,,,70,1
65cb5ab499be01f6d1779d43,ly774fxr5v,Ex2A_Prolific,1,116,2024-02-27T23:43:39+00:00,2.6415050029755,5,Stim_A.csv,Item.csv,Item,A,flow,,RR4,,,77,JOL,User,1.25,"How likely are you to correctly recall the second item in the pair?|Type your response on a scale from 0-100 and then press Enter.",River,RR4,2429,,,1360,2258,,,,50,1
65cb5ab499be01f6d1779d43,ly774fxr5v,Ex2A_Prolific,1,117,2024-02-27T23:43:42+00:00,2.6287679672241,5,Stim_A.csv,Item.csv,Item,A,bridge,,RR5,,,78,JOL,User,1.25,"How likely are you to correctly recall the second item in the pair?|Type your response on a scale from 0-100 and then press Enter.",River,RR5,2420,,,2047,2188,,,,90,1
65cb5ab499be01f6d1779d43,ly774fxr5v,Ex2A_Prolific,1,118,2024-02-27T23:43:44+00:00,2.0067739486694,5,Stim_A.csv,Item.csv,Item,A,brook,,RR6,,,79,JOL,User,1.25,"How likely are you to correctly recall the second item in the pair?|Type your response on a scale from 0-100 and then press Enter.",River,RR6,1806,,,1542,1641,,,,10,1
65cb5ab499be01f6d1779d43,ly774fxr5v,Ex2A_Prolific,1,119,2024-02-27T23:43:46+00:00,2.7238020896912,5,Stim_A.csv,Item.csv,Item,A,lake,,RR7,,,80,JOL,User,1.25,"How likely are you to correctly recall the second item in the pair?|Type your response on a scale from 0-100 and then press Enter.",River,RR7,2517,,,1965,2249,,,,50,1
65cb5ab499be01f6d1779d43,ly774fxr5v,Ex2A_Prolific,1,120,2024-02-27T23:43:48+00:00,1.7570390701294,5,Stim_A.csv,Item.csv,Item,A,barge,,RR8,,,81,JOL,User,1.25,"How likely are you to correctly recall the second item in the pair?|Type your response on a scale from 0-100 and then press Enter.",River,RR8,1541,,,1265,1362,,,,10,1
65cb5ab499be01f6d1779d43,ly774fxr5v,Ex2A_Prolific,1,121,2024-02-27T23:43:51+00:00,3.1995828151703,5,Stim_A.csv,Item.csv,Item,A,water,,RR9,,,82,JOL,User,1.25,"How likely are you to correctly recall the second item in the pair?|Type your response on a scale from 0-100 and then press Enter.",River,RR9,2981,,,2512,2817,,,,100,1
65cb5ab499be01f6d1779d43,ly774fxr5v,Ex2A_Prolific,1,122,2024-02-27T23:43:53+00:00,1.984169960022,5,Stim_A.csv,Item.csv,Item,A,boat,,RR10,,,83,JOL,User,1.25,"How likely are you to correctly recall the second item in the pair?|Type your response on a scale from 0-100 and then press Enter.",River,RR10,1774,,,1065,1439,,,,100,1
65cb5ab499be01f6d1779d43,ly774fxr5v,Ex2A_Prolific,1,123,2024-02-27T23:43:57+00:00,3.415256023407,5,Stim_A.csv,Item.csv,Item,A,tide,,RR11,,,84,JOL,User,1.25,"How likely are you to correctly recall the second item in the pair?|Type your response on a scale from 0-100 and then press Enter.",River,RR11,3200,,,1529,3013,,,,60,1
65cb5ab499be01f6d1779d43,ly774fxr5v,Ex2A_Prolific,1,124,2024-02-27T23:43:58+00:00,1.7011861801147,5,Stim_A.csv,Item.csv,Item,A,swim,,RR12,,,85,JOL,User,1.25,"How likely are you to correctly recall the second item in the pair?|Type your response on a scale from 0-100 and then press Enter.",River,RR12,1500,,,1130,1321,,,,50,1
65cb5ab499be01f6d1779d43,ly774fxr5v,Ex2A_Prolific,1,125,2024-02-27T23:44:07+00:00,9.1004288196564,5,Stim_A.csv,Item.csv,Item,A,,,,,,0,Instruct,User,4,"You have completed this section. Please click next.",,Instruct166,8832,,,-1,-1,,,,,0.8
65cb5ab499be01f6d1779d43,ly774fxr5v,Ex2A_Prolific,1,126,2024-02-27T23:44:38+00:00,30.295783042908,5,Stim_A.csv,Item.csv,Item,A,,,,,,0,FreeRecall,30,30,"Please type as many words as you can that begin with the letter ""S"". The computer will automatically advance to the next screen in 30 seconds.",,FILLER,30005,"sun, son, sunscreen, sunk, sank, sink, straight, savor",0,2186,22943,0,0,,,0.853
65cb5ab499be01f6d1779d43,ly774fxr5v,Ex2A_Prolific,1,127,2024-02-27T23:44:42+00:00,4.7348670959473,5,Stim_A.csv,Item.csv,Item,A,,,,,,0,Instruct,User,4,"You have completed this section. Please click next.",,Instruct166,4485,,,-1,-1,,,,,0.565
65cb5ab499be01f6d1779d43,ly774fxr5v,Ex2A_Prolific,1,128,2024-02-27T23:45:16+00:00,33.313012838364,5,Stim_A.csv,Item.csv,Item,A,,,,,,0,Instruct,User,4,"You will now complete a memory test for the words you just studied. Please type as many words from the previous list as you can seperated by a comma. Spelling will not count against you and you can recall the words in any order. This test will be timed for one minute, and the computer will automatically advance once time is up. Click next when you are ready to begin.",,Instruct1666,33025,,,-1,-1,,,,,0.091
65cb5ab499be01f6d1779d43,ly774fxr5v,Ex2A_Prolific,1,129,2024-02-27T23:46:16+00:00,60.287480115891,5,Stim_A.csv,Item.csv,Item,A,,,,,,0,FreeRecall,60,60,"Please type as many words as you can from the previous study list in any order. Please separate each word with a comma. Spelling will not count against you. This screen will automatically advance in one minute.",,RECALL_Test,60008,"mississppi, river, lake, stream, flow, bridge, swim, ",0,2264,18200,0,0,,,0.387
65cb5ab499be01f6d1779d43,ly774fxr5v,Ex2A_Prolific,1,130,2024-02-27T23:46:28+00:00,12.262706041336,5,Stim_A.csv,Item.csv,Item,A,,,,,,0,Instruct,User,3,"You will now be presented with a new study list. Click next when you are ready to begin.",,NEXT_LIST,11971,,,-1,-1,,,,,0.017
65cb5ab499be01f6d1779d43,ly774fxr5v,Ex2A_Prolific,1,131,2024-02-27T23:46:33+00:00,4.37242603302,5,Stim_A.csv,Item.csv,Item,A,rye,,B1,,,86,JOL,User,1.25,"How likely are you to correctly recall the second item in the pair?|Type your response on a scale from 0-100 and then press Enter.",Bread,B1,4143,,,3461,3688,,,,80,1
65cb5ab499be01f6d1779d43,ly774fxr5v,Ex2A_Prolific,1,132,2024-02-27T23:46:36+00:00,3.4155459403992,5,Stim_A.csv,Item.csv,Item,A,loaf,,B2,,,87,JOL,User,1.25,"How likely are you to correctly recall the second item in the pair?|Type your response on a scale from 0-100 and then press Enter.",Bread,B2,3205,,,1525,3008,,,,70,1
65cb5ab499be01f6d1779d43,ly774fxr5v,Ex2A_Prolific,1,133,2024-02-27T23:46:39+00:00,2.5708611011505,5,Stim_A.csv,Item.csv,Item,A,butter,,B3,,,88,JOL,User,1.25,"How likely are you to correctly recall the second item in the pair?|Type your response on a scale from 0-100 and then press Enter.",Bread,B3,2307,,,1831,2082,,,,70,1
65cb5ab499be01f6d1779d43,ly774fxr5v,Ex2A_Prolific,1,134,2024-02-27T23:46:41+00:00,2.0722608566284,5,Stim_A.csv,Item.csv,Item,A,toast,,B4,,,89,JOL,User,1.25,"How likely are you to correctly recall the second item in the pair?|Type your response on a scale from 0-100 and then press Enter.",Bread,B4,1873,,,1092,1649,,,,70,1
65cb5ab499be01f6d1779d43,ly774fxr5v,Ex2A_Prolific,1,135,2024-02-27T23:46:43+00:00,2.4135990142822,5,Stim_A.csv,Item.csv,Item,A,dough,,B5,,,90,JOL,User,1.25,"How likely are you to correctly recall the second item in the pair?|Type your response on a scale from 0-100 and then press Enter.",Bread,B5,2198,,,1778,1997,,,,60,1
65cb5ab499be01f6d1779d43,ly774fxr5v,Ex2A_Prolific,1,136,2024-02-27T23:46:47+00:00,3.5230031013489,5,Stim_A.csv,Item.csv,Item,A,crust,,B6,,,91,JOL,User,1.25,"How likely are you to correctly recall the second item in the pair?|Type your response on a scale from 0-100 and then press Enter.",Bread,B6,3311,,,2067,2296,,,,44,1
65cb5ab499be01f6d1779d43,ly774fxr5v,Ex2A_Prolific,1,137,2024-02-27T23:46:49+00:00,2.4801609516144,5,Stim_A.csv,Item.csv,Item,A,flour,,B7,,,92,JOL,User,1.25,"How likely are you to correctly recall the second item in the pair?|Type your response on a scale from 0-100 and then press Enter.",Bread,B7,2278,,,1963,2101,,,,50,1
65cb5ab499be01f6d1779d43,ly774fxr5v,Ex2A_Prolific,1,138,2024-02-27T23:46:54+00:00,4.3241379261017,5,Stim_A.csv,Item.csv,Item,A,sandwich,,B8,,,93,JOL,User,1.25,"How likely are you to correctly recall the second item in the pair?|Type your response on a scale from 0-100 and then press Enter.",Bread,B8,4112,,,3556,3810,,,,80,1
65cb5ab499be01f6d1779d43,ly774fxr5v,Ex2A_Prolific,1,139,2024-02-27T23:46:56+00:00,2.3611979484558,5,Stim_A.csv,Item.csv,Item,A,jam,,B9,,,94,JOL,User,1.25,"How likely are you to correctly recall the second item in the pair?|Type your response on a scale from 0-100 and then press Enter.",Bread,B9,2153,,,1640,1975,,,,80,1
65cb5ab499be01f6d1779d43,ly774fxr5v,Ex2A_Prolific,1,140,2024-02-27T23:46:58+00:00,1.8292121887207,5,Stim_A.csv,Item.csv,Item,A,jelly,,B10,,,95,JOL,User,1.25,"How likely are you to correctly recall the second item in the pair?|Type your response on a scale from 0-100 and then press Enter.",Bread,B10,1617,,,748,1409,,,,80,1
65cb5ab499be01f6d1779d43,ly774fxr5v,Ex2A_Prolific,1,141,2024-02-27T23:47:00+00:00,2.5656859874725,5,Stim_A.csv,Item.csv,Item,A,slice,,B11,,,96,JOL,User,1.25,"How likely are you to correctly recall the second item in the pair?|Type your response on a scale from 0-100 and then press Enter.",Bread,B11,2359,,,1874,2183,,,,60,1
65cb5ab499be01f6d1779d43,ly774fxr5v,Ex2A_Prolific,1,142,2024-02-27T23:47:04+00:00,3.8136060237885,5,Stim_A.csv,Item.csv,Item,A,milk,,B12,,,97,JOL,User,1.25,"How likely are you to correctly recall the second item in the pair?|Type your response on a scale from 0-100 and then press Enter.",Bread,B12,3598,,,847,3434,,,,80,1
65cb5ab499be01f6d1779d43,ly774fxr5v,Ex2A_Prolific,1,143,2024-02-27T23:47:14+00:00,9.9700458049774,5,Stim_A.csv,Item.csv,Item,A,,,,,,0,Instruct,User,4,"You have completed this section. Please click next.",,Instruct166,9685,,,-1,-1,,,,,0.347
65cb5ab499be01f6d1779d43,ly774fxr5v,Ex2A_Prolific,1,144,2024-02-27T23:47:44+00:00,30.385771036148,5,Stim_A.csv,Item.csv,Item,A,,,,,,0,FreeRecall,30,30,"Please type as many words as you can that begin with the letter ""W"". The computer will automatically advance to the next screen in 30 seconds.",,FILLER,30062,,0,-1,-1,0,0,,,0.247
65cb5ab499be01f6d1779d43,ly774fxr5v,Ex2A_Prolific,1,145,2024-02-27T23:48:06+00:00,21.249136924744,5,Stim_A.csv,Item.csv,Item,A,,,,,,0,Instruct,User,-,"You have completed this section. Please click next.",,Instruct166,1633,,,-1,-1,,,,,1
65cb5ab499be01f6d1779d43,ly774fxr5v,Ex2A_Prolific,1,146,2024-02-27T23:48:11+00:00,5.0308511257172,5,Stim_A.csv,Item.csv,Item,A,,,,,,0,Instruct,User,4,"You will now complete a memory test for the words you just studied. Please type as many words from the previous list as you can seperated by a comma. Spelling will not count against you and you can recall the words in any order. This test will be timed for one minute, and the computer will automatically advance once time is up. Click next when you are ready to begin.",,Instruct1666,4756,,,-1,-1,,,,,1
65cb5ab499be01f6d1779d43,ly774fxr5v,Ex2A_Prolific,1,147,2024-02-27T23:49:11+00:00,60.344806909561,5,Stim_A.csv,Item.csv,Item,A,,,,,,0,FreeRecall,60,60,"Please type as many words as you can from the previous study list in any order. Please separate each word with a comma. Spelling will not count against you. This screen will automatically advance in one minute.",,RECALL_Test,60004,"loaf, rye, slice, bread, jam,jelly, milk, ",0,3267,18147,0,0,,,0.48
65cb5ab499be01f6d1779d43,ly774fxr5v,Ex2A_Prolific,1,148,2024-02-27T23:51:22+00:00,131.06228208542,5,Stim_A.csv,Item.csv,Item,A,,,,,,0,Instruct,User,3,"You will now be presented with a new study list. Click next when you are ready to begin.",,NEXT_LIST,130717,,,-1,-1,,,,,0.002
65cb5ab499be01f6d1779d43,ly774fxr5v,Ex2A_Prolific,1,149,2024-02-27T23:51:29+00:00,6.7354218959808,5,Stim_A.csv,Item.csv,Item,A,banner,,F1,,,98,JOL,User,1.25,"How likely are you to correctly recall the second item in the pair?|Type your response on a scale from 0-100 and then press Enter.",Flag,F1,6358,,,5624,5854,,,,70,1
65cb5ab499be01f6d1779d43,ly774fxr5v,Ex2A_Prolific,1,150,2024-02-27T23:51:32+00:00,3.0207281112671,5,Stim_A.csv,Item.csv,Item,A,checkered,,F2,,,99,JOL,User,1.25,"How likely are you to correctly recall the second item in the pair?|Type your response on a scale from 0-100 and then press Enter.",Flag,F2,2740,,,2042,2486,,,,60,1
65cb5ab499be01f6d1779d43,ly774fxr5v,Ex2A_Prolific,1,151,2024-02-27T23:51:41+00:00,9.0756120681763,5,Stim_A.csv,Item.csv,Item,A,american,,F3,,,100,JOL,User,1.25,"How likely are you to correctly recall the second item in the pair?|Type your response on a scale from 0-100 and then press Enter.",Flag,F3,8472,,,4859,8279,,,,90,1
65cb5ab499be01f6d1779d43,ly774fxr5v,Ex2A_Prolific,1,152,2024-02-27T23:51:44+00:00,2.6530518531799,5,Stim_A.csv,Item.csv,Item,A,stripes,,F4,,,101,JOL,User,1.25,"How likely are you to correctly recall the second item in the pair?|Type your response on a scale from 0-100 and then press Enter.",Flag,F4,2435,,,992,1687,,,,91,1
65cb5ab499be01f6d1779d43,ly774fxr5v,Ex2A_Prolific,1,153,2024-02-27T23:51:47+00:00,3.8570599555969,5,Stim_A.csv,Item.csv,Item,A,pole,,F5,,,102,JOL,User,1.25,"How likely are you to correctly recall the second item in the pair?|Type your response on a scale from 0-100 and then press Enter.",Flag,F5,3640,,,787,3114,,,,98,1
65cb5ab499be01f6d1779d43,ly774fxr5v,Ex2A_Prolific,1,154,2024-02-27T23:51:50+00:00,2.3676161766052,5,Stim_A.csv,Item.csv,Item,A,anthem,,F6,,,103,JOL,User,1.25,"How likely are you to correctly recall the second item in the pair?|Type your response on a scale from 0-100 and then press Enter.",Flag,F6,2139,,,1739,1846,,,,90,1
65cb5ab499be01f6d1779d43,ly774fxr5v,Ex2A_Prolific,1,155,2024-02-27T23:51:53+00:00,3.1842789649963,5,Stim_A.csv,Item.csv,Item,A,emblem,,F7,,,104,JOL,User,1.25,"How likely are you to correctly recall the second item in the pair?|Type your response on a scale from 0-100 and then press Enter.",Flag,F7,2963,,,1564,2832,,,,20,1
65cb5ab499be01f6d1779d43,ly774fxr5v,Ex2A_Prolific,1,156,2024-02-27T23:51:55+00:00,2.4135749340057,5,Stim_A.csv,Item.csv,Item,A,national,,F8,,,105,JOL,User,1.25,"How likely are you to correctly recall the second item in the pair?|Type your response on a scale from 0-100 and then press Enter.",Flag,F8,2192,,,1343,1765,,,,70,1
65cb5ab499be01f6d1779d43,ly774fxr5v,Ex2A_Prolific,1,157,2024-02-27T23:51:57+00:00,1.9637529850006,5,Stim_A.csv,Item.csv,Item,A,freedom,,F9,,,106,JOL,User,1.25,"How likely are you to correctly recall the second item in the pair?|Type your response on a scale from 0-100 and then press Enter.",Flag,F9,1753,,,793,996,,,,90,1
65cb5ab499be01f6d1779d43,ly774fxr5v,Ex2A_Prolific,1,158,2024-02-27T23:51:59+00:00,1.9887011051178,5,Stim_A.csv,Item.csv,Item,A,symbol,,F10,,,107,JOL,User,1.25,"How likely are you to correctly recall the second item in the pair?|Type your response on a scale from 0-100 and then press Enter.",Flag,F10,1768,,,1451,1657,,,,20,1
65cb5ab499be01f6d1779d43,ly774fxr5v,Ex2A_Prolific,1,159,2024-02-27T23:52:03+00:00,3.8131589889526,5,Stim_A.csv,Item.csv,Item,A,wave,,F11,,,108,JOL,User,1.25,"How likely are you to correctly recall the second item in the pair?|Type your response on a scale from 0-100 and then press Enter.",Flag,F11,3574,,,1543,3429,,,,80,1
65cb5ab499be01f6d1779d43,ly774fxr5v,Ex2A_Prolific,1,160,2024-02-27T23:52:05+00:00,1.6692140102386,5,Stim_A.csv,Item.csv,Item,A,stars,,F12,,,109,JOL,User,1.25,"How likely are you to correctly recall the second item in the pair?|Type your response on a scale from 0-100 and then press Enter.",Flag,F12,1408,,,1073,1185,,,,90,1
65cb5ab499be01f6d1779d43,ly774fxr5v,Ex2A_Prolific,1,161,2024-02-27T23:52:08+00:00,2.8165459632874,5,Stim_A.csv,Item.csv,Item,A,,,,,,0,Instruct,User,-,"You have completed this section. Please click next.",,Instruct166,2601,,,-1,-1,,,,,1
65cb5ab499be01f6d1779d43,ly774fxr5v,Ex2A_Prolific,1,162,2024-02-27T23:52:38+00:00,30.496089935303,5,Stim_A.csv,Item.csv,Item,A,,,,,,0,FreeRecall,30,30,"Please type as many words as you can that begin with the letter ""L"". The computer will automatically advance to the next screen in 30 seconds.",,FILLER,30153,"look, like,lump, lanky, land, lost , lose",0,1628,20383,0,0,,,0.934
65cb5ab499be01f6d1779d43,ly774fxr5v,Ex2A_Prolific,1,163,2024-02-27T23:52:57+00:00,18.35052895546,5,Stim_A.csv,Item.csv,Item,A,,,,,,0,Instruct,User,4,"You have completed this section. Please click next.",,Instruct166,18083,,,-1,-1,,,,,0.641
65cb5ab499be01f6d1779d43,ly774fxr5v,Ex2A_Prolific,1,164,2024-02-27T23:53:03+00:00,6.5708911418915,5,Stim_A.csv,Item.csv,Item,A,,,,,,0,Instruct,User,4,"You will now complete a memory test for the words you just studied. Please type as many words from the previous list as you can seperated by a comma. Spelling will not count against you and you can recall the words in any order. This test will be timed for one minute, and the computer will automatically advance once time is up. Click next when you are ready to begin.",,Instruct1666,6244,,,-1,-1,,,,,1
65cb5ab499be01f6d1779d43,ly774fxr5v,Ex2A_Prolific,1,165,2024-02-27T23:54:03+00:00,60.366847991943,5,Stim_A.csv,Item.csv,Item,A,,,,,,0,FreeRecall,60,60,"Please type as many words as you can from the previous study list in any order. Please separate each word with a comma. Spelling will not count against you. This screen will automatically advance in one minute.",,RECALL_Test,60015,"america, anthem ,symbol, stripes, freedom, ww",0,791,22681,0,0,,,0.39
65cb5ab499be01f6d1779d43,ly774fxr5v,Ex2A_Prolific,1,166,2024-02-28T00:02:17+00:00,493.76416397095,5,Stim_A.csv,Item.csv,Item,A,,,,,,0,Instruct,User,3,"You will now be presented with a new study list. Click next when you are ready to begin.",,NEXT_LIST,493379,,,-1,-1,,,,,0.002
65cb5ab499be01f6d1779d43,ly774fxr5v,Ex2A_Prolific,1,167,2024-02-28T00:02:20+00:00,2.8168148994446,5,Stim_A.csv,Item.csv,Item,A,blouse,,SS1,,,110,JOL,User,1.25,"How likely are you to correctly recall the second item in the pair?|Type your response on a scale from 0-100 and then press Enter.",Shirt,SS1,2503,,,2138,2262,,,,60,1
65cb5ab499be01f6d1779d43,ly774fxr5v,Ex2A_Prolific,1,168,2024-02-28T00:02:22+00:00,2.0882270336151,5,Stim_A.csv,Item.csv,Item,A,sleeves,,SS2,,,111,JOL,User,1.25,"How likely are you to correctly recall the second item in the pair?|Type your response on a scale from 0-100 and then press Enter.",Shirt,SS2,1856,,,1137,1353,,,,70,1
65cb5ab499be01f6d1779d43,ly774fxr5v,Ex2A_Prolific,1,169,2024-02-28T00:02:24+00:00,1.7979650497437,5,Stim_A.csv,Item.csv,Item,A,collar,,SS3,,,112,JOL,User,1.25,"How likely are you to correctly recall the second item in the pair?|Type your response on a scale from 0-100 and then press Enter.",Shirt,SS3,1550,,,1101,1339,,,,50,1
65cb5ab499be01f6d1779d43,ly774fxr5v,Ex2A_Prolific,1,170,2024-02-28T00:02:26+00:00,2.1640169620514,5,Stim_A.csv,Item.csv,Item,A,shorts,,SS4,,,113,JOL,User,1.25,"How likely are you to correctly recall the second item in the pair?|Type your response on a scale from 0-100 and then press Enter.",Shirt,SS4,1901,,,790,942,,,,60,1
65cb5ab499be01f6d1779d43,ly774fxr5v,Ex2A_Prolific,1,171,2024-02-28T00:02:28+00:00,1.9550659656525,5,Stim_A.csv,Item.csv,Item,A,button,,SS5,,,114,JOL,User,1.25,"How likely are you to correctly recall the second item in the pair?|Type your response on a scale from 0-100 and then press Enter.",Shirt,SS5,1728,,,394,1459,,,,400,1
65cb5ab499be01f6d1779d43,ly774fxr5v,Ex2A_Prolific,1,172,2024-02-28T00:02:30+00:00,1.6724321842194,5,Stim_A.csv,Item.csv,Item,A,pants,,SS6,,,115,JOL,User,1.25,"How likely are you to correctly recall the second item in the pair?|Type your response on a scale from 0-100 and then press Enter.",Shirt,SS6,1446,,,1006,1206,,,,80,1
65cb5ab499be01f6d1779d43,ly774fxr5v,Ex2A_Prolific,1,173,2024-02-28T00:02:32+00:00,1.7836828231812,5,Stim_A.csv,Item.csv,Item,A,polo,,SS7,,,116,JOL,User,1.25,"How likely are you to correctly recall the second item in the pair?|Type your response on a scale from 0-100 and then press Enter.",Shirt,SS7,1552,,,898,898,,,,5,1
65cb5ab499be01f6d1779d43,ly774fxr5v,Ex2A_Prolific,1,174,2024-02-28T00:02:34+00:00,2.6882321834564,5,Stim_A.csv,Item.csv,Item,A,jersey,,SS8,,,117,JOL,User,1.25,"How likely are you to correctly recall the second item in the pair?|Type your response on a scale from 0-100 and then press Enter.",Shirt,SS8,2466,,,2044,2281,,,,40,1
65cb5ab499be01f6d1779d43,ly774fxr5v,Ex2A_Prolific,1,175,2024-02-28T00:02:36+00:00,1.9403629302979,5,Stim_A.csv,Item.csv,Item,A,vest,,SS9,,,118,JOL,User,1.25,"How likely are you to correctly recall the second item in the pair?|Type your response on a scale from 0-100 and then press Enter.",Shirt,SS9,1724,,,571,744,,,,80,1
65cb5ab499be01f6d1779d43,ly774fxr5v,Ex2A_Prolific,1,176,2024-02-28T00:02:38+00:00,2.1930558681488,5,Stim_A.csv,Item.csv,Item,A,cuffs,,SS10,,,119,JOL,User,1.25,"How likely are you to correctly recall the second item in the pair?|Type your response on a scale from 0-100 and then press Enter.",Shirt,SS10,1966,,,1645,1727,,,,30,1
65cb5ab499be01f6d1779d43,ly774fxr5v,Ex2A_Prolific,1,177,2024-02-28T00:02:40+00:00,1.872318983078,5,Stim_A.csv,Item.csv,Item,A,tie,,SS11,,,120,JOL,User,1.25,"How likely are you to correctly recall the second item in the pair?|Type your response on a scale from 0-100 and then press Enter.",Shirt,SS11,1656,,,633,783,,,,80,1
65cb5ab499be01f6d1779d43,ly774fxr5v,Ex2A_Prolific,1,178,2024-02-28T00:02:42+00:00,1.7051570415497,5,Stim_A.csv,Item.csv,Item,A,pocket,,SS12,,,121,JOL,User,1.25,"How likely are you to correctly recall the second item in the pair?|Type your response on a scale from 0-100 and then press Enter.",Shirt,SS12,1491,,,1143,1293,,,,50,1
65cb5ab499be01f6d1779d43,ly774fxr5v,Ex2A_Prolific,1,179,2024-02-28T00:02:44+00:00,2.0127911567688,5,Stim_A.csv,Item.csv,Item,A,,,,,,0,Instruct,User,-,"You have completed this section. Please click next.",,Instruct166,1789,,,-1,-1,,,,,1
65cb5ab499be01f6d1779d43,ly774fxr5v,Ex2A_Prolific,1,180,2024-02-28T00:03:14+00:00,30.361074924469,5,Stim_A.csv,Item.csv,Item,A,,,,,,0,FreeRecall,30,30,"Please type as many words as you can that begin with the letter ""M"". The computer will automatically advance to the next screen in 30 seconds.",,FILLER,30018,"money, monkey, much,many, month",0,1409,9449,0,0,,,0.347
65cb5ab499be01f6d1779d43,ly774fxr5v,Ex2A_Prolific,1,181,2024-02-28T00:04:52+00:00,97.82989192009,5,Stim_A.csv,Item.csv,Item,A,,,,,,0,Instruct,User,4,"You have completed this section. Please click next.",,Instruct166,97541,,,-1,-1,,,,,0.008
65cb5ab499be01f6d1779d43,ly774fxr5v,Ex2A_Prolific,1,182,2024-02-28T00:04:57+00:00,4.6807999610901,5,Stim_A.csv,Item.csv,Item,A,,,,,,0,Instruct,User,4,"You will now complete a memory test for the words you just studied. Please type as many words from the previous list as you can seperated by a comma. Spelling will not count against you and you can recall the words in any order. This test will be timed for one minute, and the computer will automatically advance once time is up. Click next when you are ready to begin.",,Instruct1666,4251,,,-1,-1,,,,,1
65cb5ab499be01f6d1779d43,ly774fxr5v,Ex2A_Prolific,1,183,2024-02-28T00:05:57+00:00,60.492216110229,5,Stim_A.csv,Item.csv,Item,A,,,,,,0,FreeRecall,60,60,"Please type as many words as you can from the previous study list in any order. Please separate each word with a comma. Spelling will not count against you. This screen will automatically advance in one minute.",,RECALL_Test,60014,"collar, sleeve, blouse, shirt, ",0,961,10563,0,0,,,0.203
65cb5ab499be01f6d1779d43,ly774fxr5v,Ex2A_Prolific,1,184,2024-02-28T00:09:09+00:00,191.96480607986,5,Stim_A.csv,Item.csv,Item,A,,,,,,0,Instruct,User,-,"You have completed this section. Please click next.",,Instruct7,191664,,,-1,-1,,,,,0.003
65cb5ab499be01f6d1779d43,ly774fxr5v,Ex2A_Prolific,1,185,2024-02-28T00:09:11+00:00,1.5335128307343,5,Stim_A.csv,Item.csv,Item,A,,,,,,0,Instruct,User,-,"The following screen will ask you a few questions abour your experience today. You must complete these questions to receive credit.",,Instruct8,1292,,,-1,-1,,,,,1
65cb5ab499be01f6d1779d43,ly774fxr5v,Ex2A_Prolific,1,186,2024-02-28T00:57:45+00:00,2914.3028860092,5,Stim_A.csv,Item.csv,Item,A,,,,,,ExperimentFinished,Instruct,User,-,"The following screen will ask you a few questions abour your experience today. You must complete these questions to receive credit.",,Instruct8,4200141,,,-1,-1,,,,,0.002
