Username,ID,ExperimentName,Session,Trial,Date,TimeDif,"Condition Number","Stimuli File","Order File","Condition Description","Condition Notes",Stimuli*Cue,Stimuli*Answer,Stimuli*Shuffle,"Stimuli*Stimuli Notes",Stimuli*Value,Procedure*Item,"Procedure*Trial Type","Procedure*Max Time","Procedure*Min Time",Procedure*Text,"Procedure*Procedure Notes",Procedure*Shuffle,Response*RT,Response*Response,Response*Accuracy,Response*RTfirst,Response*RTlast,Response*strictAcc,Response*lenientAcc,Response*focus,Response*JOL,Response*Focus
65dcb33f369862cba54b8546,gyvr3ajruz,Ex2A_Prolific,1,1,2024-02-27T23:27:39+00:00,11.567502975464,6,Stim_B.csv,Item.csv,Item,B,,,,,,0,Instruct,-,5,"In this section, you will be presented with a series of words. Please study each word carefully. Your memory will be tested!",Initial_Instruct,Instruct1,11131,,,-1,-1,,,,,1
65dcb33f369862cba54b8546,gyvr3ajruz,Ex2A_Prolific,1,2,2024-02-27T23:28:16+00:00,37.041759967804,6,Stim_B.csv,Item.csv,Item,B,,,,,,0,Instruct,-,5,"As you study, you will be asked to rate your ability to remember each item on a later memory test using a 0-100 scale. For example, if you study the word DOG, a rating of 0 indicates that you would not remember DOG at test, while a rating of 100 indicates full certainty that you would remember the word DOG at test.",,Instruct13,36389,,,-1,-1,,,,,0.983
65dcb33f369862cba54b8546,gyvr3ajruz,Ex2A_Prolific,1,3,2024-02-27T23:28:41+00:00,24.879101991653,6,Stim_B.csv,Item.csv,Item,B,,,,,,0,Instruct,-,10,"When making your ratings, it is criticial that you use the full range of the scale. You will be disqualified for only giving ratings of 0 or 100!",,Instruct15,24175,,,-1,-1,,,,,1
65dcb33f369862cba54b8546,gyvr3ajruz,Ex2A_Prolific,1,4,2024-02-27T23:28:57+00:00,16.03329706192,6,Stim_B.csv,Item.csv,Item,B,,,,,,0,Instruct,User,-,"You will now begin the study. Click next when you are ready to begin.",,Instruct16,15306,,,-1,-1,,,,,0.971
65dcb33f369862cba54b8546,gyvr3ajruz,Ex2A_Prolific,1,5,2024-02-27T23:29:26+00:00,28.623086929321,6,Stim_B.csv,Item.csv,Item,B,aroma,,Win_1,,,2,JOL,User,1.25,"How likely are you to correctly recall the second item in the pair?|Type your response on a scale from 0-100 and then press Enter.",Window,Win_1,27952,,,12351,16798,,,,30,1
65dcb33f369862cba54b8546,gyvr3ajruz,Ex2A_Prolific,1,6,2024-02-27T23:29:37+00:00,11.146809101105,6,Stim_B.csv,Item.csv,Item,B,scent,,Win_2,,,3,JOL,User,1.25,"How likely are you to correctly recall the second item in the pair?|Type your response on a scale from 0-100 and then press Enter.",Window,Win_2,10445,,,8207,8964,,,,60,1
65dcb33f369862cba54b8546,gyvr3ajruz,Ex2A_Prolific,1,7,2024-02-27T23:29:46+00:00,9.5999438762665,6,Stim_B.csv,Item.csv,Item,B,whiff,,Win_3,,,4,JOL,User,1.25,"How likely are you to correctly recall the second item in the pair?|Type your response on a scale from 0-100 and then press Enter.",Window,Win_3,8910,,,6052,7049,,,,20,1
65dcb33f369862cba54b8546,gyvr3ajruz,Ex2A_Prolific,1,8,2024-02-27T23:30:02+00:00,15.388720989227,6,Stim_B.csv,Item.csv,Item,B,stench,,Win_4,,,5,JOL,User,1.25,"How likely are you to correctly recall the second item in the pair?|Type your response on a scale from 0-100 and then press Enter.",Window,Win_4,14733,,,8673,10551,,,,30,1
65dcb33f369862cba54b8546,gyvr3ajruz,Ex2A_Prolific,1,9,2024-02-27T23:30:09+00:00,7.4340181350708,6,Stim_B.csv,Item.csv,Item,B,reek,,Win_5,,,6,JOL,User,1.25,"How likely are you to correctly recall the second item in the pair?|Type your response on a scale from 0-100 and then press Enter.",Window,Win_5,6715,,,3802,4972,,,,50,1
65dcb33f369862cba54b8546,gyvr3ajruz,Ex2A_Prolific,1,10,2024-02-27T23:30:21+00:00,12.146822929382,6,Stim_B.csv,Item.csv,Item,B,sniff,,Win_6,,,7,JOL,User,1.25,"How likely are you to correctly recall the second item in the pair?|Type your response on a scale from 0-100 and then press Enter.",Window,Win_6,11493,,,9185,9891,,,,40,1
65dcb33f369862cba54b8546,gyvr3ajruz,Ex2A_Prolific,1,11,2024-02-27T23:30:31+00:00,10.241404056549,6,Stim_B.csv,Item.csv,Item,B,perfume,,Win_7,,,8,JOL,User,1.25,"How likely are you to correctly recall the second item in the pair?|Type your response on a scale from 0-100 and then press Enter.",Window,Win_7,9604,,,6906,7550,,,,70,1
65dcb33f369862cba54b8546,gyvr3ajruz,Ex2A_Prolific,1,12,2024-02-27T23:30:43+00:00,11.582634925842,6,Stim_B.csv,Item.csv,Item,B,fragrance,,Win_8,,,9,JOL,User,1.25,"How likely are you to correctly recall the second item in the pair?|Type your response on a scale from 0-100 and then press Enter.",Window,Win_8,10911,,,8070,9018,,,,45,1
65dcb33f369862cba54b8546,gyvr3ajruz,Ex2A_Prolific,1,13,2024-02-27T23:30:52+00:00,8.6392750740051,6,Stim_B.csv,Item.csv,Item,B,nose,,Win_9,,,10,JOL,User,1.25,"How likely are you to correctly recall the second item in the pair?|Type your response on a scale from 0-100 and then press Enter.",Window,Win_9,7986,,,5606,6358,,,,80,1
65dcb33f369862cba54b8546,gyvr3ajruz,Ex2A_Prolific,1,14,2024-02-27T23:31:01+00:00,9.4472670555115,6,Stim_B.csv,Item.csv,Item,B,rose,,Win_10,,,11,JOL,User,1.25,"How likely are you to correctly recall the second item in the pair?|Type your response on a scale from 0-100 and then press Enter.",Window,Win_10,8770,,,6530,7153,,,,60,1
65dcb33f369862cba54b8546,gyvr3ajruz,Ex2A_Prolific,1,15,2024-02-27T23:31:10+00:00,8.8416788578033,6,Stim_B.csv,Item.csv,Item,B,salts,,Win_11,,,12,JOL,User,1.25,"How likely are you to correctly recall the second item in the pair?|Type your response on a scale from 0-100 and then press Enter.",Window,Win_11,8157,,,5463,5654,,,,45,1
65dcb33f369862cba54b8546,gyvr3ajruz,Ex2A_Prolific,1,16,2024-02-27T23:31:21+00:00,11.460235118866,6,Stim_B.csv,Item.csv,Item,B,breathe,,Win_12,,,13,JOL,User,1.25,"How likely are you to correctly recall the second item in the pair?|Type your response on a scale from 0-100 and then press Enter.",Window,Win_12,10797,,,7232,8300,,,,50,1
65dcb33f369862cba54b8546,gyvr3ajruz,Ex2A_Prolific,1,17,2024-02-27T23:31:25+00:00,3.208261013031,6,Stim_B.csv,Item.csv,Item,B,,,,,,0,Instruct,User,-,"You have completed this section. Please click next.",,Instruct166,2578,,,-1,-1,,,,,1
65dcb33f369862cba54b8546,gyvr3ajruz,Ex2A_Prolific,1,18,2024-02-27T23:31:55+00:00,30.72231388092,6,Stim_B.csv,Item.csv,Item,B,,,,,,0,FreeRecall,30,30,"Please type as many words as you can that begin with the letter ""M"". The computer will automatically advance to the next screen in 30 seconds.",,FILLER,30002,"Man mere mate mad man mat made make ment m",0,11612,29918,0,0,,,1
65dcb33f369862cba54b8546,gyvr3ajruz,Ex2A_Prolific,1,19,2024-02-27T23:32:38+00:00,43.056251049042,6,Stim_B.csv,Item.csv,Item,B,,,,,,0,Instruct,User,4,"You have completed this section. Please click next.",,Instruct166,42388,,,-1,-1,,,,,1
65dcb33f369862cba54b8546,gyvr3ajruz,Ex2A_Prolific,1,20,2024-02-27T23:33:01+00:00,22.058933973312,6,Stim_B.csv,Item.csv,Item,B,,,,,,0,Instruct,User,4,"You will now complete a memory test for the words you just studied. Please type as many words from the previous list as you can seperated by a comma. Spelling will not count against you and you can recall the words in any order. This test will be timed for one minute, and the computer will automatically advance once time is up. Click next when you are ready to begin.",,Instruct1666,21377,,,-1,-1,,,,,1
65dcb33f369862cba54b8546,gyvr3ajruz,Ex2A_Prolific,1,21,2024-02-27T23:34:01+00:00,60.70352602005,6,Stim_B.csv,Item.csv,Item,B,,,,,,0,FreeRecall,60,60,"Please type as many words as you can from the previous study list in any order. Please separate each word with a comma. Spelling will not count against you. This screen will automatically advance in one minute.",,RECALL_Test,60001,"aroma, scent, breathe, salts, nose, rose, whiff, sniff, perfume, fragrance, reek, ",0,1126,45157,0,0,,,1
65dcb33f369862cba54b8546,gyvr3ajruz,Ex2A_Prolific,1,22,2024-02-27T23:34:13+00:00,12.021208047867,6,Stim_B.csv,Item.csv,Item,B,,,,,,0,Instruct,User,3,"You will now be presented with a new study list. Click next when you are ready to begin.",,NEXT_LIST,11314,,,-1,-1,,,,,1
65dcb33f369862cba54b8546,gyvr3ajruz,Ex2A_Prolific,1,23,2024-02-27T23:34:25+00:00,11.518923044205,6,Stim_B.csv,Item.csv,Item,B,hard,,R1,,,14,JOL,User,1.25,"How likely are you to correctly recall the second item in the pair?|Type your response on a scale from 0-100 and then press Enter.",Rough,R1,10858,,,9346,10093,,,,60,1
65dcb33f369862cba54b8546,gyvr3ajruz,Ex2A_Prolific,1,24,2024-02-27T23:34:35+00:00,9.9151589870453,6,Stim_B.csv,Item.csv,Item,B,loud,,R2,,,15,JOL,User,1.25,"How likely are you to correctly recall the second item in the pair?|Type your response on a scale from 0-100 and then press Enter.",Rough,R2,9245,,,6179,7633,,,,50,1
65dcb33f369862cba54b8546,gyvr3ajruz,Ex2A_Prolific,1,25,2024-02-27T23:34:42+00:00,7.6188180446625,6,Stim_B.csv,Item.csv,Item,B,tender,,R3,,,16,JOL,User,1.25,"How likely are you to correctly recall the second item in the pair?|Type your response on a scale from 0-100 and then press Enter.",Rough,R3,6953,,,5313,6118,,,,40,1
65dcb33f369862cba54b8546,gyvr3ajruz,Ex2A_Prolific,1,26,2024-02-27T23:34:50+00:00,8.0295767784119,6,Stim_B.csv,Item.csv,Item,B,fluffy,,R4,,,17,JOL,User,1.25,"How likely are you to correctly recall the second item in the pair?|Type your response on a scale from 0-100 and then press Enter.",Rough,R4,7369,,,6009,6654,,,,30,1
65dcb33f369862cba54b8546,gyvr3ajruz,Ex2A_Prolific,1,27,2024-02-27T23:34:56+00:00,5.5872972011566,6,Stim_B.csv,Item.csv,Item,B,pillow,,R5,,,18,JOL,User,1.25,"How likely are you to correctly recall the second item in the pair?|Type your response on a scale from 0-100 and then press Enter.",Rough,R5,4922,,,3452,4066,,,,60,1
65dcb33f369862cba54b8546,gyvr3ajruz,Ex2A_Prolific,1,28,2024-02-27T23:35:02+00:00,6.2016298770905,6,Stim_B.csv,Item.csv,Item,B,downy,,R6,,,19,JOL,User,1.25,"How likely are you to correctly recall the second item in the pair?|Type your response on a scale from 0-100 and then press Enter.",Rough,R6,5541,,,4444,5078,,,,20,1
65dcb33f369862cba54b8546,gyvr3ajruz,Ex2A_Prolific,1,29,2024-02-27T23:35:14+00:00,12.218133926392,6,Stim_B.csv,Item.csv,Item,B,plush,,R7,,,20,JOL,User,1.25,"How likely are you to correctly recall the second item in the pair?|Type your response on a scale from 0-100 and then press Enter.",Rough,R7,11556,,,7564,10337,,,,25,1
65dcb33f369862cba54b8546,gyvr3ajruz,Ex2A_Prolific,1,30,2024-02-27T23:35:22+00:00,7.6607160568237,6,Stim_B.csv,Item.csv,Item,B,cotton,,R8,,,21,JOL,User,1.25,"How likely are you to correctly recall the second item in the pair?|Type your response on a scale from 0-100 and then press Enter.",Rough,R8,6997,,,5618,6454,,,,70,1
65dcb33f369862cba54b8546,gyvr3ajruz,Ex2A_Prolific,1,31,2024-02-27T23:35:29+00:00,6.5710639953613,6,Stim_B.csv,Item.csv,Item,B,skin,,R9,,,22,JOL,User,1.25,"How likely are you to correctly recall the second item in the pair?|Type your response on a scale from 0-100 and then press Enter.",Rough,R9,5887,,,4387,5293,,,,60,1
65dcb33f369862cba54b8546,gyvr3ajruz,Ex2A_Prolific,1,32,2024-02-27T23:35:35+00:00,6.1892120838165,6,Stim_B.csv,Item.csv,Item,B,fur,,R10,,,23,JOL,User,1.25,"How likely are you to correctly recall the second item in the pair?|Type your response on a scale from 0-100 and then press Enter.",Rough,R10,5545,,,3773,4589,,,,40,1
65dcb33f369862cba54b8546,gyvr3ajruz,Ex2A_Prolific,1,33,2024-02-27T23:37:34+00:00,119.53076100349,6,Stim_B.csv,Item.csv,Item,B,touch,,R11,,,24,JOL,User,1.25,"How likely are you to correctly recall the second item in the pair?|Type your response on a scale from 0-100 and then press Enter.",Rough,R11,8779,,,7602,8276,,,,50,1
65dcb33f369862cba54b8546,gyvr3ajruz,Ex2A_Prolific,1,34,2024-02-27T23:37:45+00:00,10.600857019424,6,Stim_B.csv,Item.csv,Item,B,furry,,R12,,,25,JOL,User,1.25,"How likely are you to correctly recall the second item in the pair?|Type your response on a scale from 0-100 and then press Enter.",Rough,R12,9702,,,8054,8726,,,,50,1
65dcb33f369862cba54b8546,gyvr3ajruz,Ex2A_Prolific,1,35,2024-02-27T23:37:53+00:00,8.1370549201965,6,Stim_B.csv,Item.csv,Item,B,,,,,,0,Instruct,User,4,"You have completed this section. Please click next.",,Instruct166,7378,,,-1,-1,,,,,1
65dcb33f369862cba54b8546,gyvr3ajruz,Ex2A_Prolific,1,36,2024-02-27T23:38:24+00:00,30.663348913193,6,Stim_B.csv,Item.csv,Item,B,,,,,,0,FreeRecall,30,30,"Please type as many words as you can that begin with the letter ""T"". The computer will automatically advance to the next screen in 30 seconds.",,FILLER,30004,"text, test, talk, tall, tree, tea, test, taste, t",0,7145,29601,0,0,,,1
65dcb33f369862cba54b8546,gyvr3ajruz,Ex2A_Prolific,1,37,2024-02-27T23:38:27+00:00,3.6127901077271,6,Stim_B.csv,Item.csv,Item,B,,,,,,0,Instruct,User,-,"You have completed this section. Please click next.",,Instruct166,2950,,,-1,-1,,,,,1
65dcb33f369862cba54b8546,gyvr3ajruz,Ex2A_Prolific,1,38,2024-02-27T23:38:45+00:00,17.462235927582,6,Stim_B.csv,Item.csv,Item,B,,,,,,0,Instruct,User,4,"You will now complete a memory test for the words you just studied. Please type as many words from the previous list as you can seperated by a comma. Spelling will not count against you and you can recall the words in any order. This test will be timed for one minute, and the computer will automatically advance once time is up. Click next when you are ready to begin.",,Instruct1666,16764,,,-1,-1,,,,,1
65dcb33f369862cba54b8546,gyvr3ajruz,Ex2A_Prolific,1,39,2024-02-27T23:39:45+00:00,60.675513029099,6,Stim_B.csv,Item.csv,Item,B,,,,,,0,FreeRecall,60,60,"Please type as many words as you can from the previous study list in any order. Please separate each word with a comma. Spelling will not count against you. This screen will automatically advance in one minute.",,RECALL_Test,60004,"furry, touch, fur, pillow, cotton, hard, loud, skin",0,5012,41862,0,0,,,0.951
65dcb33f369862cba54b8546,gyvr3ajruz,Ex2A_Prolific,1,40,2024-02-27T23:39:57+00:00,11.479709148407,6,Stim_B.csv,Item.csv,Item,B,,,,,,0,Instruct,User,3,"You will now be presented with a new study list. Click next when you are ready to begin.",,NEXT_LIST,10788,,,-1,-1,,,,,0.806
65dcb33f369862cba54b8546,gyvr3ajruz,Ex2A_Prolific,1,41,2024-02-27T23:40:09+00:00,12.409810781479,6,Stim_B.csv,Item.csv,Item,B,honey,,A1,,,26,JOL,User,1.25,"How likely are you to correctly recall the second item in the pair?|Type your response on a scale from 0-100 and then press Enter.",Anger,A1,11744,,,10653,11252,,,,50,1
65dcb33f369862cba54b8546,gyvr3ajruz,Ex2A_Prolific,1,42,2024-02-27T23:40:16+00:00,6.9149980545044,6,Stim_B.csv,Item.csv,Item,B,bitter,,A2,,,27,JOL,User,1.25,"How likely are you to correctly recall the second item in the pair?|Type your response on a scale from 0-100 and then press Enter.",Anger,A2,6223,,,4829,5532,,,,50,1
65dcb33f369862cba54b8546,gyvr3ajruz,Ex2A_Prolific,1,43,2024-02-27T23:40:24+00:00,7.2884740829468,6,Stim_B.csv,Item.csv,Item,B,sugar,,A3,,,28,JOL,User,1.25,"How likely are you to correctly recall the second item in the pair?|Type your response on a scale from 0-100 and then press Enter.",Anger,A3,6416,,,5050,5723,,,,60,1
65dcb33f369862cba54b8546,gyvr3ajruz,Ex2A_Prolific,1,44,2024-02-27T23:40:31+00:00,7.8058979511261,6,Stim_B.csv,Item.csv,Item,B,sour,,A4,,,29,JOL,User,1.25,"How likely are you to correctly recall the second item in the pair?|Type your response on a scale from 0-100 and then press Enter.",Anger,A4,7110,,,5947,6629,,,,40,1
65dcb33f369862cba54b8546,gyvr3ajruz,Ex2A_Prolific,1,45,2024-02-27T23:40:37+00:00,6.1121621131897,6,Stim_B.csv,Item.csv,Item,B,candy,,A5,,,30,JOL,User,1.25,"How likely are you to correctly recall the second item in the pair?|Type your response on a scale from 0-100 and then press Enter.",Anger,A5,5425,,,4272,4874,,,,60,1
65dcb33f369862cba54b8546,gyvr3ajruz,Ex2A_Prolific,1,46,2024-02-27T23:40:45+00:00,7.9130167961121,6,Stim_B.csv,Item.csv,Item,B,tart,,A6,,,31,JOL,User,1.25,"How likely are you to correctly recall the second item in the pair?|Type your response on a scale from 0-100 and then press Enter.",Anger,A6,7256,,,5861,6534,,,,30,1
65dcb33f369862cba54b8546,gyvr3ajruz,Ex2A_Prolific,1,47,2024-02-27T23:40:54+00:00,8.8483490943909,6,Stim_B.csv,Item.csv,Item,B,chocolate,,A7,,,32,JOL,User,1.25,"How likely are you to correctly recall the second item in the pair?|Type your response on a scale from 0-100 and then press Enter.",Anger,A7,8141,,,6776,7358,,,,70,1
65dcb33f369862cba54b8546,gyvr3ajruz,Ex2A_Prolific,1,48,2024-02-27T23:41:01+00:00,6.8701260089874,6,Stim_B.csv,Item.csv,Item,B,nice,,A8,,,33,JOL,User,1.25,"How likely are you to correctly recall the second item in the pair?|Type your response on a scale from 0-100 and then press Enter.",Anger,A8,6169,,,5116,5708,,,,50,1
65dcb33f369862cba54b8546,gyvr3ajruz,Ex2A_Prolific,1,49,2024-02-27T23:41:07+00:00,5.9768989086151,6,Stim_B.csv,Item.csv,Item,B,taste,,A9,,,34,JOL,User,1.25,"How likely are you to correctly recall the second item in the pair?|Type your response on a scale from 0-100 and then press Enter.",Anger,A9,5304,,,4272,4834,,,,60,1
65dcb33f369862cba54b8546,gyvr3ajruz,Ex2A_Prolific,1,50,2024-02-27T23:41:13+00:00,6.4107451438904,6,Stim_B.csv,Item.csv,Item,B,cake,,A10,,,35,JOL,User,1.25,"How likely are you to correctly recall the second item in the pair?|Type your response on a scale from 0-100 and then press Enter.",Anger,A10,5745,,,4602,5274,,,,50,1
65dcb33f369862cba54b8546,gyvr3ajruz,Ex2A_Prolific,1,51,2024-02-27T23:41:19+00:00,5.5904929637909,6,Stim_B.csv,Item.csv,Item,B,good,,A11,,,36,JOL,User,1.25,"How likely are you to correctly recall the second item in the pair?|Type your response on a scale from 0-100 and then press Enter.",Anger,A11,4915,,,3712,4354,,,,70,1
65dcb33f369862cba54b8546,gyvr3ajruz,Ex2A_Prolific,1,52,2024-02-27T23:41:25+00:00,6.2550210952759,6,Stim_B.csv,Item.csv,Item,B,tooth,,A12,,,37,JOL,User,1.25,"How likely are you to correctly recall the second item in the pair?|Type your response on a scale from 0-100 and then press Enter.",Anger,A12,5581,,,4538,5139,,,,40,1
65dcb33f369862cba54b8546,gyvr3ajruz,Ex2A_Prolific,1,53,2024-02-27T23:41:28+00:00,2.4841639995575,6,Stim_B.csv,Item.csv,Item,B,,,,,,0,Instruct,User,-,"You have completed this section. Please click next.",,Instruct166,1808,,,-1,-1,,,,,1
65dcb33f369862cba54b8546,gyvr3ajruz,Ex2A_Prolific,1,54,2024-02-27T23:41:59+00:00,30.776268959045,6,Stim_B.csv,Item.csv,Item,B,,,,,,0,FreeRecall,30,30,"Please type as many words as you can that begin with the letter ""L"". The computer will automatically advance to the next screen in 30 seconds.",,FILLER,30005,"leg learn let late lamp lane lamb lawn l",0,3674,29217,0,0,,,1
65dcb33f369862cba54b8546,gyvr3ajruz,Ex2A_Prolific,1,55,2024-02-27T23:42:04+00:00,5.7702310085297,6,Stim_B.csv,Item.csv,Item,B,,,,,,0,Instruct,User,4,"You have completed this section. Please click next.",,Instruct166,5100,,,-1,-1,,,,,1
65dcb33f369862cba54b8546,gyvr3ajruz,Ex2A_Prolific,1,56,2024-02-27T23:42:11+00:00,6.7952349185944,6,Stim_B.csv,Item.csv,Item,B,,,,,,0,Instruct,User,4,"You will now complete a memory test for the words you just studied. Please type as many words from the previous list as you can seperated by a comma. Spelling will not count against you and you can recall the words in any order. This test will be timed for one minute, and the computer will automatically advance once time is up. Click next when you are ready to begin.",,Instruct1666,6158,,,-1,-1,,,,,1
65dcb33f369862cba54b8546,gyvr3ajruz,Ex2A_Prolific,1,57,2024-02-27T23:43:12+00:00,60.7370429039,6,Stim_B.csv,Item.csv,Item,B,,,,,,0,FreeRecall,60,60,"Please type as many words as you can from the previous study list in any order. Please separate each word with a comma. Spelling will not count against you. This screen will automatically advance in one minute.",,RECALL_Test,60008,"chocolate, sugar, bitter, taste, honey, candy, cake, tooth, sour, nice, ",0,1795,57155,0,0,,,1
65dcb33f369862cba54b8546,gyvr3ajruz,Ex2A_Prolific,1,58,2024-02-27T23:43:16+00:00,4.5149450302124,6,Stim_B.csv,Item.csv,Item,B,,,,,,0,Instruct,User,3,"You will now be presented with a new study list. Click next when you are ready to begin.",,NEXT_LIST,3864,,,-1,-1,,,,,1
65dcb33f369862cba54b8546,gyvr3ajruz,Ex2A_Prolific,1,59,2024-02-27T23:43:29+00:00,12.673765182495,6,Stim_B.csv,Item.csv,Item,B,table,,T1,,,38,JOL,User,1.25,"How likely are you to correctly recall the second item in the pair?|Type your response on a scale from 0-100 and then press Enter.",Trash,T1,11987,,,10858,11456,,,,50,1
65dcb33f369862cba54b8546,gyvr3ajruz,Ex2A_Prolific,1,60,2024-02-27T23:43:37+00:00,7.476243019104,6,Stim_B.csv,Item.csv,Item,B,swivel,,T2,,,39,JOL,User,1.25,"How likely are you to correctly recall the second item in the pair?|Type your response on a scale from 0-100 and then press Enter.",Trash,T2,6790,,,4479,5242,,,,20,1
65dcb33f369862cba54b8546,gyvr3ajruz,Ex2A_Prolific,1,61,2024-02-27T23:43:42+00:00,5.7734079360962,6,Stim_B.csv,Item.csv,Item,B,rocking,,T3,,,40,JOL,User,1.25,"How likely are you to correctly recall the second item in the pair?|Type your response on a scale from 0-100 and then press Enter.",Trash,T3,5039,,,3762,4486,,,,30,1
65dcb33f369862cba54b8546,gyvr3ajruz,Ex2A_Prolific,1,62,2024-02-27T23:43:50+00:00,7.9751720428467,6,Stim_B.csv,Item.csv,Item,B,recliner,,T4,,,41,JOL,User,1.25,"How likely are you to correctly recall the second item in the pair?|Type your response on a scale from 0-100 and then press Enter.",Trash,T4,7271,,,5375,6338,,,,15,1
65dcb33f369862cba54b8546,gyvr3ajruz,Ex2A_Prolific,1,63,2024-02-27T23:43:56+00:00,5.6642389297485,6,Stim_B.csv,Item.csv,Item,B,seat,,T5,,,42,JOL,User,1.25,"How likely are you to correctly recall the second item in the pair?|Type your response on a scale from 0-100 and then press Enter.",Trash,T5,4997,,,3652,4416,,,,60,1
65dcb33f369862cba54b8546,gyvr3ajruz,Ex2A_Prolific,1,64,2024-02-27T23:44:03+00:00,6.6266138553619,6,Stim_B.csv,Item.csv,Item,B,stool,,T6,,,43,JOL,User,1.25,"How likely are you to correctly recall the second item in the pair?|Type your response on a scale from 0-100 and then press Enter.",Trash,T6,5945,,,4800,5433,,,,50,1
65dcb33f369862cba54b8546,gyvr3ajruz,Ex2A_Prolific,1,65,2024-02-27T23:44:11+00:00,8.3477461338043,6,Stim_B.csv,Item.csv,Item,B,desk,,T7,,,44,JOL,User,1.25,"How likely are you to correctly recall the second item in the pair?|Type your response on a scale from 0-100 and then press Enter.",Trash,T7,7661,,,5985,6968,,,,70,1
65dcb33f369862cba54b8546,gyvr3ajruz,Ex2A_Prolific,1,66,2024-02-27T23:44:18+00:00,6.8886249065399,6,Stim_B.csv,Item.csv,Item,B,couch,,T8,,,45,JOL,User,1.25,"How likely are you to correctly recall the second item in the pair?|Type your response on a scale from 0-100 and then press Enter.",Trash,T8,6195,,,4888,5611,,,,50,1
65dcb33f369862cba54b8546,gyvr3ajruz,Ex2A_Prolific,1,67,2024-02-27T23:44:24+00:00,6.0200290679932,6,Stim_B.csv,Item.csv,Item,B,sit,,T9,,,46,JOL,User,1.25,"How likely are you to correctly recall the second item in the pair?|Type your response on a scale from 0-100 and then press Enter.",Trash,T9,5330,,,4046,4708,,,,60,1
65dcb33f369862cba54b8546,gyvr3ajruz,Ex2A_Prolific,1,68,2024-02-27T23:44:30+00:00,5.9784030914307,6,Stim_B.csv,Item.csv,Item,B,sofa,,T10,,,47,JOL,User,1.25,"How likely are you to correctly recall the second item in the pair?|Type your response on a scale from 0-100 and then press Enter.",Trash,T10,4971,,,3761,4470,,,,40,1
65dcb33f369862cba54b8546,gyvr3ajruz,Ex2A_Prolific,1,69,2024-02-27T23:44:35+00:00,4.8557360172272,6,Stim_B.csv,Item.csv,Item,B,bench,,T11,,,48,JOL,User,1.25,"How likely are you to correctly recall the second item in the pair?|Type your response on a scale from 0-100 and then press Enter.",Trash,T11,4176,,,2832,3735,,,,60,1
65dcb33f369862cba54b8546,gyvr3ajruz,Ex2A_Prolific,1,70,2024-02-27T23:44:40+00:00,4.8811988830566,6,Stim_B.csv,Item.csv,Item,B,sitting,,T12,,,49,JOL,User,1.25,"How likely are you to correctly recall the second item in the pair?|Type your response on a scale from 0-100 and then press Enter.",Trash,T12,4251,,,2947,3751,,,,70,1
65dcb33f369862cba54b8546,gyvr3ajruz,Ex2A_Prolific,1,71,2024-02-27T23:44:47+00:00,7.6485810279846,6,Stim_B.csv,Item.csv,Item,B,,,,,,0,Instruct,User,4,"You have completed this section. Please click next.",,Instruct166,6968,,,-1,-1,,,,,1
65dcb33f369862cba54b8546,gyvr3ajruz,Ex2A_Prolific,1,72,2024-02-27T23:45:19+00:00,31.498506069183,6,Stim_B.csv,Item.csv,Item,B,,,,,,0,FreeRecall,30,30,"Please type as many words as you can that begin with the letter ""S"". The computer will automatically advance to the next screen in 30 seconds.",,FILLER,30001,"sane same salt sad sam saw see set sour sound simo",0,2580,29360,0,0,,,1
65dcb33f369862cba54b8546,gyvr3ajruz,Ex2A_Prolific,1,73,2024-02-27T23:45:22+00:00,2.9692180156708,6,Stim_B.csv,Item.csv,Item,B,,,,,,0,Instruct,User,-,"You have completed this section. Please click next.",,Instruct166,2271,,,-1,-1,,,,,1
65dcb33f369862cba54b8546,gyvr3ajruz,Ex2A_Prolific,1,74,2024-02-27T23:45:31+00:00,9.8388237953186,6,Stim_B.csv,Item.csv,Item,B,,,,,,0,Instruct,User,4,"You will now complete a memory test for the words you just studied. Please type as many words from the previous list as you can seperated by a comma. Spelling will not count against you and you can recall the words in any order. This test will be timed for one minute, and the computer will automatically advance once time is up. Click next when you are ready to begin.",,Instruct1666,9043,,,-1,-1,,,,,1
65dcb33f369862cba54b8546,gyvr3ajruz,Ex2A_Prolific,1,75,2024-02-27T23:46:33+00:00,61.201544046402,6,Stim_B.csv,Item.csv,Item,B,,,,,,0,FreeRecall,60,60,"Please type as many words as you can from the previous study list in any order. Please separate each word with a comma. Spelling will not count against you. This screen will automatically advance in one minute.",,RECALL_Test,60003,"bench, stool, desk, sitting, sit, recliner, swivel, sofa, couch, rocking",0,1761,48167,0,0,,,1
65dcb33f369862cba54b8546,gyvr3ajruz,Ex2A_Prolific,1,76,2024-02-27T23:46:44+00:00,11.554769039154,6,Stim_B.csv,Item.csv,Item,B,,,,,,0,Instruct,User,3,"You will now be presented with a new study list. Click next when you are ready to begin.",,NEXT_LIST,10873,,,-1,-1,,,,,0.911
65dcb33f369862cba54b8546,gyvr3ajruz,Ex2A_Prolific,1,77,2024-02-27T23:46:57+00:00,12.559857130051,6,Stim_B.csv,Item.csv,Item,B,climber,,D1,,,50,JOL,User,1.25,"How likely are you to correctly recall the second item in the pair?|Type your response on a scale from 0-100 and then press Enter.",Doctor,D1,11823,,,10680,11332,,,,50,1
65dcb33f369862cba54b8546,gyvr3ajruz,Ex2A_Prolific,1,78,2024-02-27T23:47:02+00:00,5.3548419475555,6,Stim_B.csv,Item.csv,Item,B,hill,,D2,,,51,JOL,User,1.25,"How likely are you to correctly recall the second item in the pair?|Type your response on a scale from 0-100 and then press Enter.",Doctor,D2,4666,,,3393,4226,,,,80,1
65dcb33f369862cba54b8546,gyvr3ajruz,Ex2A_Prolific,1,79,2024-02-27T23:47:11+00:00,9.1358799934387,6,Stim_B.csv,Item.csv,Item,B,climb,,D3,,,52,JOL,User,1.25,"How likely are you to correctly recall the second item in the pair?|Type your response on a scale from 0-100 and then press Enter.",Doctor,D3,8471,,,6664,7298,,,,60,1
65dcb33f369862cba54b8546,gyvr3ajruz,Ex2A_Prolific,1,80,2024-02-27T23:47:21+00:00,9.7623739242554,6,Stim_B.csv,Item.csv,Item,B,molehill,,D4,,,53,JOL,User,1.25,"How likely are you to correctly recall the second item in the pair?|Type your response on a scale from 0-100 and then press Enter.",Doctor,D4,9097,,,7873,8546,,,,20,1
65dcb33f369862cba54b8546,gyvr3ajruz,Ex2A_Prolific,1,81,2024-02-27T23:47:28+00:00,7.379105091095,6,Stim_B.csv,Item.csv,Item,B,peak,,D5,,,54,JOL,User,1.25,"How likely are you to correctly recall the second item in the pair?|Type your response on a scale from 0-100 and then press Enter.",Doctor,D5,6699,,,5295,6128,,,,50,1
65dcb33f369862cba54b8546,gyvr3ajruz,Ex2A_Prolific,1,82,2024-02-27T23:47:36+00:00,7.886589050293,6,Stim_B.csv,Item.csv,Item,B,valley,,D6,,,55,JOL,User,1.25,"How likely are you to correctly recall the second item in the pair?|Type your response on a scale from 0-100 and then press Enter.",Doctor,D6,7159,,,5935,6596,,,,40,1
65dcb33f369862cba54b8546,gyvr3ajruz,Ex2A_Prolific,1,83,2024-02-27T23:47:47+00:00,10.800183773041,6,Stim_B.csv,Item.csv,Item,B,summit,,D7,,,56,JOL,User,1.25,"How likely are you to correctly recall the second item in the pair?|Type your response on a scale from 0-100 and then press Enter.",Doctor,D7,10102,,,9000,9642,,,,60,1
65dcb33f369862cba54b8546,gyvr3ajruz,Ex2A_Prolific,1,84,2024-02-27T23:47:52+00:00,5.2376611232758,6,Stim_B.csv,Item.csv,Item,B,steep,,D8,,,57,JOL,User,1.25,"How likely are you to correctly recall the second item in the pair?|Type your response on a scale from 0-100 and then press Enter.",Doctor,D8,4548,,,3396,4100,,,,20,1
65dcb33f369862cba54b8546,gyvr3ajruz,Ex2A_Prolific,1,85,2024-02-27T23:47:58+00:00,5.696398973465,6,Stim_B.csv,Item.csv,Item,B,ski,,D9,,,58,JOL,User,1.25,"How likely are you to correctly recall the second item in the pair?|Type your response on a scale from 0-100 and then press Enter.",Doctor,D9,4914,,,3620,4283,,,,60,1
65dcb33f369862cba54b8546,gyvr3ajruz,Ex2A_Prolific,1,86,2024-02-27T23:48:03+00:00,4.9650740623474,6,Stim_B.csv,Item.csv,Item,B,bike,,D10,,,59,JOL,User,1.25,"How likely are you to correctly recall the second item in the pair?|Type your response on a scale from 0-100 and then press Enter.",Doctor,D10,4297,,,3194,3806,,,,80,1
65dcb33f369862cba54b8546,gyvr3ajruz,Ex2A_Prolific,1,87,2024-02-27T23:48:09+00:00,6.0299649238586,6,Stim_B.csv,Item.csv,Item,B,goat,,D11,,,60,JOL,User,1.25,"How likely are you to correctly recall the second item in the pair?|Type your response on a scale from 0-100 and then press Enter.",Doctor,D11,5047,,,3370,4073,,,,90,1
65dcb33f369862cba54b8546,gyvr3ajruz,Ex2A_Prolific,1,88,2024-02-27T23:48:17+00:00,7.674665927887,6,Stim_B.csv,Item.csv,Item,B,glacier,,D12,,,61,JOL,User,1.25,"How likely are you to correctly recall the second item in the pair?|Type your response on a scale from 0-100 and then press Enter.",Doctor,D12,6995,,,5691,6404,,,,30,1
65dcb33f369862cba54b8546,gyvr3ajruz,Ex2A_Prolific,1,89,2024-02-27T23:48:23+00:00,6.5521562099457,6,Stim_B.csv,Item.csv,Item,B,,,,,,0,Instruct,User,4,"You have completed this section. Please click next.",,Instruct166,5880,,,-1,-1,,,,,1
65dcb33f369862cba54b8546,gyvr3ajruz,Ex2A_Prolific,1,90,2024-02-27T23:48:54+00:00,30.733820915222,6,Stim_B.csv,Item.csv,Item,B,,,,,,0,FreeRecall,30,30,"Please type as many words as you can that begin with the letter ""K"". The computer will automatically advance to the next screen in 30 seconds.",,FILLER,30002,"kettle, knit, knot, kennel, kent, ken,",0,2331,29843,0,0,,,1
65dcb33f369862cba54b8546,gyvr3ajruz,Ex2A_Prolific,1,91,2024-02-27T23:49:00+00:00,5.5274999141693,6,Stim_B.csv,Item.csv,Item,B,,,,,,0,Instruct,User,4,"You have completed this section. Please click next.",,Instruct166,4821,,,-1,-1,,,,,1
65dcb33f369862cba54b8546,gyvr3ajruz,Ex2A_Prolific,1,92,2024-02-27T23:49:09+00:00,9.3362100124359,6,Stim_B.csv,Item.csv,Item,B,,,,,,0,Instruct,User,4,"You will now complete a memory test for the words you just studied. Please type as many words from the previous list as you can seperated by a comma. Spelling will not count against you and you can recall the words in any order. This test will be timed for one minute, and the computer will automatically advance once time is up. Click next when you are ready to begin.",,Instruct1666,8613,,,-1,-1,,,,,1
65dcb33f369862cba54b8546,gyvr3ajruz,Ex2A_Prolific,1,93,2024-02-27T23:50:10+00:00,60.737664937973,6,Stim_B.csv,Item.csv,Item,B,,,,,,0,FreeRecall,60,60,"Please type as many words as you can from the previous study list in any order. Please separate each word with a comma. Spelling will not count against you. This screen will automatically advance in one minute.",,RECALL_Test,60005,"goat, climb, climber, ski, hill, bike, summit, glacier, ",0,3547,35186,0,0,,,1
65dcb33f369862cba54b8546,gyvr3ajruz,Ex2A_Prolific,1,94,2024-02-27T23:50:31+00:00,21.118766069412,6,Stim_B.csv,Item.csv,Item,B,,,,,,0,Instruct,User,3,"You will now be presented with a new study list. Click next when you are ready to begin.",,NEXT_LIST,20474,,,-1,-1,,,,,0.714
65dcb33f369862cba54b8546,gyvr3ajruz,Ex2A_Prolific,1,95,2024-02-27T23:51:15+00:00,44.634711027145,6,Stim_B.csv,Item.csv,Item,B,band,,S1,,,62,JOL,User,1.25,"How likely are you to correctly recall the second item in the pair?|Type your response on a scale from 0-100 and then press Enter.",Slow,S1,43943,,,42707,43061,,,,50,0.922
65dcb33f369862cba54b8546,gyvr3ajruz,Ex2A_Prolific,1,96,2024-02-27T23:51:23+00:00,7.3104639053345,6,Stim_B.csv,Item.csv,Item,B,concert,,S2,,,63,JOL,User,1.25,"How likely are you to correctly recall the second item in the pair?|Type your response on a scale from 0-100 and then press Enter.",Slow,S2,6692,,,4742,6077,,,,60,1
65dcb33f369862cba54b8546,gyvr3ajruz,Ex2A_Prolific,1,97,2024-02-27T23:51:27+00:00,3.8310282230377,6,Stim_B.csv,Item.csv,Item,B,jazz,,S3,,,64,JOL,User,1.25,"How likely are you to correctly recall the second item in the pair?|Type your response on a scale from 0-100 and then press Enter.",Slow,S3,3172,,,1806,2597,,,,40,1
65dcb33f369862cba54b8546,gyvr3ajruz,Ex2A_Prolific,1,98,2024-02-27T23:51:33+00:00,6.3397037982941,6,Stim_B.csv,Item.csv,Item,B,symphony,,S4,,,65,JOL,User,1.25,"How likely are you to correctly recall the second item in the pair?|Type your response on a scale from 0-100 and then press Enter.",Slow,S4,5641,,,4118,4957,,,,20,1
65dcb33f369862cba54b8546,gyvr3ajruz,Ex2A_Prolific,1,99,2024-02-27T23:51:37+00:00,4.1568660736084,6,Stim_B.csv,Item.csv,Item,B,orchestra,,S5,,,66,JOL,User,1.25,"How likely are you to correctly recall the second item in the pair?|Type your response on a scale from 0-100 and then press Enter.",Slow,S5,3510,,,1915,2741,,,,10,1
65dcb33f369862cba54b8546,gyvr3ajruz,Ex2A_Prolific,1,100,2024-02-27T23:51:40+00:00,3.3401100635529,6,Stim_B.csv,Item.csv,Item,B,rhythm,,S6,,,67,JOL,User,1.25,"How likely are you to correctly recall the second item in the pair?|Type your response on a scale from 0-100 and then press Enter.",Slow,S6,2648,,,1338,2023,,,,40,1
65dcb33f369862cba54b8546,gyvr3ajruz,Ex2A_Prolific,1,101,2024-02-27T23:51:45+00:00,4.7811908721924,6,Stim_B.csv,Item.csv,Item,B,radio,,S7,,,68,JOL,User,1.25,"How likely are you to correctly recall the second item in the pair?|Type your response on a scale from 0-100 and then press Enter.",Slow,S7,4103,,,2760,3539,,,,70,1
65dcb33f369862cba54b8546,gyvr3ajruz,Ex2A_Prolific,1,102,2024-02-27T23:51:52+00:00,6.3935370445251,6,Stim_B.csv,Item.csv,Item,B,melody,,S8,,,69,JOL,User,1.25,"How likely are you to correctly recall the second item in the pair?|Type your response on a scale from 0-100 and then press Enter.",Slow,S8,5713,,,4362,5056,,,,50,1
65dcb33f369862cba54b8546,gyvr3ajruz,Ex2A_Prolific,1,103,2024-02-27T23:51:56+00:00,4.0090620517731,6,Stim_B.csv,Item.csv,Item,B,piano,,S9,,,70,JOL,User,1.25,"How likely are you to correctly recall the second item in the pair?|Type your response on a scale from 0-100 and then press Enter.",Slow,S9,3271,,,1972,2656,,,,50,1
65dcb33f369862cba54b8546,gyvr3ajruz,Ex2A_Prolific,1,104,2024-02-27T23:52:03+00:00,7.3167939186096,6,Stim_B.csv,Item.csv,Item,B,sound,,S10,,,71,JOL,User,1.25,"How likely are you to correctly recall the second item in the pair?|Type your response on a scale from 0-100 and then press Enter.",Slow,S10,6598,,,3804,4527,,,,70,1
65dcb33f369862cba54b8546,gyvr3ajruz,Ex2A_Prolific,1,105,2024-02-27T23:52:06+00:00,3.4529531002045,6,Stim_B.csv,Item.csv,Item,B,instrument,,S11,,,72,JOL,User,1.25,"How likely are you to correctly recall the second item in the pair?|Type your response on a scale from 0-100 and then press Enter.",Slow,S11,2776,,,1503,2169,,,,40,1
65dcb33f369862cba54b8546,gyvr3ajruz,Ex2A_Prolific,1,106,2024-02-27T23:52:13+00:00,6.907958984375,6,Stim_B.csv,Item.csv,Item,B,note,,S12,,,73,JOL,User,1.25,"How likely are you to correctly recall the second item in the pair?|Type your response on a scale from 0-100 and then press Enter.",Slow,S12,6205,,,4910,5618,,,,50,1
65dcb33f369862cba54b8546,gyvr3ajruz,Ex2A_Prolific,1,107,2024-02-27T23:52:19+00:00,5.9322369098663,6,Stim_B.csv,Item.csv,Item,B,,,,,,0,Instruct,User,4,"You have completed this section. Please click next.",,Instruct166,5225,,,-1,-1,,,,,1
65dcb33f369862cba54b8546,gyvr3ajruz,Ex2A_Prolific,1,108,2024-02-27T23:52:50+00:00,30.65927195549,6,Stim_B.csv,Item.csv,Item,B,,,,,,0,FreeRecall,30,30,"Please type as many words as you can that begin with the letter ""C"". The computer will automatically advance to the next screen in 30 seconds.",,FILLER,30003,"can, cut, caught, candle, can't cane camp",0,1824,27920,0,0,,,1
65dcb33f369862cba54b8546,gyvr3ajruz,Ex2A_Prolific,1,109,2024-02-27T23:52:54+00:00,3.9703261852264,6,Stim_B.csv,Item.csv,Item,B,,,,,,0,Instruct,User,-,"You have completed this section. Please click next.",,Instruct166,3308,,,-1,-1,,,,,1
65dcb33f369862cba54b8546,gyvr3ajruz,Ex2A_Prolific,1,110,2024-02-27T23:53:05+00:00,11.274077892303,6,Stim_B.csv,Item.csv,Item,B,,,,,,0,Instruct,User,4,"You will now complete a memory test for the words you just studied. Please type as many words from the previous list as you can seperated by a comma. Spelling will not count against you and you can recall the words in any order. This test will be timed for one minute, and the computer will automatically advance once time is up. Click next when you are ready to begin.",,Instruct1666,10629,,,-1,-1,,,,,0.907
65dcb33f369862cba54b8546,gyvr3ajruz,Ex2A_Prolific,1,111,2024-02-27T23:54:06+00:00,60.678488969803,6,Stim_B.csv,Item.csv,Item,B,,,,,,0,FreeRecall,60,60,"Please type as many words as you can from the previous study list in any order. Please separate each word with a comma. Spelling will not count against you. This screen will automatically advance in one minute.",,RECALL_Test,60003,"melody, note, piano, jazz, band, concert, instrument, orchestra, sound ",0,5124,55031,0,0,,,1
65dcb33f369862cba54b8546,gyvr3ajruz,Ex2A_Prolific,1,112,2024-02-27T23:54:13+00:00,7.7022030353546,6,Stim_B.csv,Item.csv,Item,B,,,,,,0,Instruct,User,3,"You will now be presented with a new study list. Click next when you are ready to begin.",,NEXT_LIST,7081,,,-1,-1,,,,,1
65dcb33f369862cba54b8546,gyvr3ajruz,Ex2A_Prolific,1,113,2024-02-27T23:54:21+00:00,7.5713760852814,6,Stim_B.csv,Item.csv,Item,B,foam,,RR1,,,74,JOL,User,1.25,"How likely are you to correctly recall the second item in the pair?|Type your response on a scale from 0-100 and then press Enter.",River,RR1,6892,,,4927,5840,,,,50,1
65dcb33f369862cba54b8546,gyvr3ajruz,Ex2A_Prolific,1,114,2024-02-27T23:54:28+00:00,6.8310739994049,6,Stim_B.csv,Item.csv,Item,B,latex,,RR2,,,75,JOL,User,1.25,"How likely are you to correctly recall the second item in the pair?|Type your response on a scale from 0-100 and then press Enter.",River,RR2,6108,,,4346,5288,,,,30,1
65dcb33f369862cba54b8546,gyvr3ajruz,Ex2A_Prolific,1,115,2024-02-27T23:54:34+00:00,6.4796190261841,6,Stim_B.csv,Item.csv,Item,B,galoshes,,RR3,,,76,JOL,User,1.25,"How likely are you to correctly recall the second item in the pair?|Type your response on a scale from 0-100 and then press Enter.",River,RR3,5808,,,3286,4228,,,,10,1
65dcb33f369862cba54b8546,gyvr3ajruz,Ex2A_Prolific,1,116,2024-02-27T23:54:38+00:00,3.5698058605194,6,Stim_B.csv,Item.csv,Item,B,tire,,RR4,,,77,JOL,User,1.25,"How likely are you to correctly recall the second item in the pair?|Type your response on a scale from 0-100 and then press Enter.",River,RR4,2900,,,1393,2220,,,,60,1
65dcb33f369862cba54b8546,gyvr3ajruz,Ex2A_Prolific,1,117,2024-02-27T23:54:42+00:00,3.6437351703644,6,Stim_B.csv,Item.csv,Item,B,flexible,,RR5,,,78,JOL,User,1.25,"How likely are you to correctly recall the second item in the pair?|Type your response on a scale from 0-100 and then press Enter.",River,RR5,2988,,,1562,2281,,,,50,1
65dcb33f369862cba54b8546,gyvr3ajruz,Ex2A_Prolific,1,118,2024-02-27T23:54:45+00:00,3.9175879955292,6,Stim_B.csv,Item.csv,Item,B,elastic,,RR6,,,79,JOL,User,1.25,"How likely are you to correctly recall the second item in the pair?|Type your response on a scale from 0-100 and then press Enter.",River,RR6,3266,,,1678,2545,,,,30,1
65dcb33f369862cba54b8546,gyvr3ajruz,Ex2A_Prolific,1,119,2024-02-27T23:54:51+00:00,5.9663679599762,6,Stim_B.csv,Item.csv,Item,B,gloves,,RR7,,,80,JOL,User,1.25,"How likely are you to correctly recall the second item in the pair?|Type your response on a scale from 0-100 and then press Enter.",River,RR7,5238,,,2320,4588,,,,60,1
65dcb33f369862cba54b8546,gyvr3ajruz,Ex2A_Prolific,1,120,2024-02-27T23:54:56+00:00,4.3742108345032,6,Stim_B.csv,Item.csv,Item,B,eraser,,RR8,,,81,JOL,User,1.25,"How likely are you to correctly recall the second item in the pair?|Type your response on a scale from 0-100 and then press Enter.",River,RR8,3561,,,2064,2884,,,,40,1
65dcb33f369862cba54b8546,gyvr3ajruz,Ex2A_Prolific,1,121,2024-02-27T23:55:00+00:00,4.5183811187744,6,Stim_B.csv,Item.csv,Item,B,bounce,,RR9,,,82,JOL,User,1.25,"How likely are you to correctly recall the second item in the pair?|Type your response on a scale from 0-100 and then press Enter.",River,RR9,3853,,,2355,3136,,,,50,1
65dcb33f369862cba54b8546,gyvr3ajruz,Ex2A_Prolific,1,122,2024-02-27T23:55:04+00:00,4.019700050354,6,Stim_B.csv,Item.csv,Item,B,ball,,RR10,,,83,JOL,User,1.25,"How likely are you to correctly recall the second item in the pair?|Type your response on a scale from 0-100 and then press Enter.",River,RR10,3347,,,1908,2650,,,,70,1
65dcb33f369862cba54b8546,gyvr3ajruz,Ex2A_Prolific,1,123,2024-02-27T23:55:09+00:00,4.494756937027,6,Stim_B.csv,Item.csv,Item,B,soles,,RR11,,,84,JOL,User,1.25,"How likely are you to correctly recall the second item in the pair?|Type your response on a scale from 0-100 and then press Enter.",River,RR11,3818,,,2407,3172,,,,40,1
65dcb33f369862cba54b8546,gyvr3ajruz,Ex2A_Prolific,1,124,2024-02-27T23:55:13+00:00,4.3312571048737,6,Stim_B.csv,Item.csv,Item,B,springy,,RR12,,,85,JOL,User,1.25,"How likely are you to correctly recall the second item in the pair?|Type your response on a scale from 0-100 and then press Enter.",River,RR12,3709,,,2322,3083,,,,30,1
65dcb33f369862cba54b8546,gyvr3ajruz,Ex2A_Prolific,1,125,2024-02-27T23:55:15+00:00,2.2485299110413,6,Stim_B.csv,Item.csv,Item,B,,,,,,0,Instruct,User,-,"You have completed this section. Please click next.",,Instruct166,1586,,,-1,-1,,,,,1
65dcb33f369862cba54b8546,gyvr3ajruz,Ex2A_Prolific,1,126,2024-02-27T23:55:46+00:00,30.657942056656,6,Stim_B.csv,Item.csv,Item,B,,,,,,0,FreeRecall,30,30,"Please type as many words as you can that begin with the letter ""W"". The computer will automatically advance to the next screen in 30 seconds.",,FILLER,30003,"win, when, why, who, what, winter, water, waiter, write, wrote,",0,2241,29963,0,0,,,1
65dcb33f369862cba54b8546,gyvr3ajruz,Ex2A_Prolific,1,127,2024-02-27T23:55:54+00:00,8.1402130126953,6,Stim_B.csv,Item.csv,Item,B,,,,,,0,Instruct,User,4,"You have completed this section. Please click next.",,Instruct166,7453,,,-1,-1,,,,,1
65dcb33f369862cba54b8546,gyvr3ajruz,Ex2A_Prolific,1,128,2024-02-27T23:56:00+00:00,5.4536948204041,6,Stim_B.csv,Item.csv,Item,B,,,,,,0,Instruct,User,4,"You will now complete a memory test for the words you just studied. Please type as many words from the previous list as you can seperated by a comma. Spelling will not count against you and you can recall the words in any order. This test will be timed for one minute, and the computer will automatically advance once time is up. Click next when you are ready to begin.",,Instruct1666,4703,,,-1,-1,,,,,1
65dcb33f369862cba54b8546,gyvr3ajruz,Ex2A_Prolific,1,129,2024-02-27T23:57:00+00:00,60.722412109375,6,Stim_B.csv,Item.csv,Item,B,,,,,,0,FreeRecall,60,60,"Please type as many words as you can from the previous study list in any order. Please separate each word with a comma. Spelling will not count against you. This screen will automatically advance in one minute.",,RECALL_Test,60002,"foam, tire, eraser, soles, elastic, latex, gloves,",0,477,29183,0,0,,,1
65dcb33f369862cba54b8546,gyvr3ajruz,Ex2A_Prolific,1,130,2024-02-27T23:57:05+00:00,4.9929609298706,6,Stim_B.csv,Item.csv,Item,B,,,,,,0,Instruct,User,3,"You will now be presented with a new study list. Click next when you are ready to begin.",,NEXT_LIST,4289,,,-1,-1,,,,,1
65dcb33f369862cba54b8546,gyvr3ajruz,Ex2A_Prolific,1,131,2024-02-27T23:57:10+00:00,4.912878036499,6,Stim_B.csv,Item.csv,Item,B,toe,,B1,,,86,JOL,User,1.25,"How likely are you to correctly recall the second item in the pair?|Type your response on a scale from 0-100 and then press Enter.",Bread,B1,4267,,,2958,3515,,,,50,1
65dcb33f369862cba54b8546,gyvr3ajruz,Ex2A_Prolific,1,132,2024-02-27T23:57:14+00:00,3.8131740093231,6,Stim_B.csv,Item.csv,Item,B,inch,,B2,,,87,JOL,User,1.25,"How likely are you to correctly recall the second item in the pair?|Type your response on a scale from 0-100 and then press Enter.",Bread,B2,3155,,,1657,2349,,,,40,1
65dcb33f369862cba54b8546,gyvr3ajruz,Ex2A_Prolific,1,133,2024-02-27T23:57:19+00:00,4.9732389450073,6,Stim_B.csv,Item.csv,Item,B,ankle,,B3,,,88,JOL,User,1.25,"How likely are you to correctly recall the second item in the pair?|Type your response on a scale from 0-100 and then press Enter.",Bread,B3,4281,,,2293,3553,,,,50,1
65dcb33f369862cba54b8546,gyvr3ajruz,Ex2A_Prolific,1,134,2024-02-27T23:57:26+00:00,6.9939370155334,6,Stim_B.csv,Item.csv,Item,B,shoe,,B4,,,89,JOL,User,1.25,"How likely are you to correctly recall the second item in the pair?|Type your response on a scale from 0-100 and then press Enter.",Bread,B4,6311,,,4954,5704,,,,70,1
65dcb33f369862cba54b8546,gyvr3ajruz,Ex2A_Prolific,1,135,2024-02-27T23:57:34+00:00,8.3360459804535,6,Stim_B.csv,Item.csv,Item,B,sandals,,B5,,,90,JOL,User,1.25,"How likely are you to correctly recall the second item in the pair?|Type your response on a scale from 0-100 and then press Enter.",Bread,B5,7621,,,6203,6809,,,,50,1
65dcb33f369862cba54b8546,gyvr3ajruz,Ex2A_Prolific,1,136,2024-02-27T23:57:40+00:00,5.1623520851135,6,Stim_B.csv,Item.csv,Item,B,sock,,B6,,,91,JOL,User,1.25,"How likely are you to correctly recall the second item in the pair?|Type your response on a scale from 0-100 and then press Enter.",Bread,B6,4507,,,1829,3798,,,,50,1
65dcb33f369862cba54b8546,gyvr3ajruz,Ex2A_Prolific,1,137,2024-02-27T23:57:44+00:00,4.2124280929565,6,Stim_B.csv,Item.csv,Item,B,hand,,B7,,,92,JOL,User,1.25,"How likely are you to correctly recall the second item in the pair?|Type your response on a scale from 0-100 and then press Enter.",Bread,B7,3548,,,1999,2931,,,,70,1
65dcb33f369862cba54b8546,gyvr3ajruz,Ex2A_Prolific,1,138,2024-02-27T23:57:48+00:00,4.069739818573,6,Stim_B.csv,Item.csv,Item,B,boot,,B8,,,93,JOL,User,1.25,"How likely are you to correctly recall the second item in the pair?|Type your response on a scale from 0-100 and then press Enter.",Bread,B8,3437,,,2144,2881,,,,50,1
65dcb33f369862cba54b8546,gyvr3ajruz,Ex2A_Prolific,1,139,2024-02-27T23:57:54+00:00,6.6366579532623,6,Stim_B.csv,Item.csv,Item,B,yard,,B9,,,94,JOL,User,1.25,"How likely are you to correctly recall the second item in the pair?|Type your response on a scale from 0-100 and then press Enter.",Bread,B9,5905,,,2783,5127,,,,40,1
65dcb33f369862cba54b8546,gyvr3ajruz,Ex2A_Prolific,1,140,2024-02-27T23:57:58+00:00,3.5745031833649,6,Stim_B.csv,Item.csv,Item,B,kick,,B10,,,95,JOL,User,1.25,"How likely are you to correctly recall the second item in the pair?|Type your response on a scale from 0-100 and then press Enter.",Bread,B10,2925,,,1688,2345,,,,60,1
65dcb33f369862cba54b8546,gyvr3ajruz,Ex2A_Prolific,1,141,2024-02-27T23:58:02+00:00,4.0202569961548,6,Stim_B.csv,Item.csv,Item,B,knee,,B11,,,96,JOL,User,1.25,"How likely are you to correctly recall the second item in the pair?|Type your response on a scale from 0-100 and then press Enter.",Bread,B11,3376,,,2173,2789,,,,50,1
65dcb33f369862cba54b8546,gyvr3ajruz,Ex2A_Prolific,1,142,2024-02-27T23:58:06+00:00,3.9166598320007,6,Stim_B.csv,Item.csv,Item,B,walk,,B12,,,97,JOL,User,1.25,"How likely are you to correctly recall the second item in the pair?|Type your response on a scale from 0-100 and then press Enter.",Bread,B12,3269,,,1859,2509,,,,70,1
65dcb33f369862cba54b8546,gyvr3ajruz,Ex2A_Prolific,1,143,2024-02-27T23:58:11+00:00,5.338926076889,6,Stim_B.csv,Item.csv,Item,B,,,,,,0,Instruct,User,4,"You have completed this section. Please click next.",,Instruct166,4523,,,-1,-1,,,,,1
65dcb33f369862cba54b8546,gyvr3ajruz,Ex2A_Prolific,1,144,2024-02-27T23:58:42+00:00,30.913484096527,6,Stim_B.csv,Item.csv,Item,B,,,,,,0,FreeRecall,30,30,"Please type as many words as you can that begin with the letter ""M"". The computer will automatically advance to the next screen in 30 seconds.",,FILLER,30008,"man, mate, made, monday, many, monke",0,2584,29794,0,0,,,1
65dcb33f369862cba54b8546,gyvr3ajruz,Ex2A_Prolific,1,145,2024-02-27T23:58:45+00:00,2.5455958843231,6,Stim_B.csv,Item.csv,Item,B,,,,,,0,Instruct,User,-,"You have completed this section. Please click next.",,Instruct166,1894,,,-1,-1,,,,,1
65dcb33f369862cba54b8546,gyvr3ajruz,Ex2A_Prolific,1,146,2024-02-27T23:58:50+00:00,5.5386779308319,6,Stim_B.csv,Item.csv,Item,B,,,,,,0,Instruct,User,4,"You will now complete a memory test for the words you just studied. Please type as many words from the previous list as you can seperated by a comma. Spelling will not count against you and you can recall the words in any order. This test will be timed for one minute, and the computer will automatically advance once time is up. Click next when you are ready to begin.",,Instruct1666,4820,,,-1,-1,,,,,1
65dcb33f369862cba54b8546,gyvr3ajruz,Ex2A_Prolific,1,147,2024-02-27T23:59:51+00:00,60.730332136154,6,Stim_B.csv,Item.csv,Item,B,,,,,,0,FreeRecall,60,60,"Please type as many words as you can from the previous study list in any order. Please separate each word with a comma. Spelling will not count against you. This screen will automatically advance in one minute.",,RECALL_Test,60003,"knee, kick, toe, shoe, sock, sandals, hand, ankle, ",0,1447,41208,0,0,,,1
65dcb33f369862cba54b8546,gyvr3ajruz,Ex2A_Prolific,1,148,2024-02-28T00:00:07+00:00,15.616571903229,6,Stim_B.csv,Item.csv,Item,B,,,,,,0,Instruct,User,3,"You will now be presented with a new study list. Click next when you are ready to begin.",,NEXT_LIST,14950,,,-1,-1,,,,,0.791
65dcb33f369862cba54b8546,gyvr3ajruz,Ex2A_Prolific,1,149,2024-02-28T00:00:11+00:00,4.2266681194305,6,Stim_B.csv,Item.csv,Item,B,boy,,F1,,,98,JOL,User,1.25,"How likely are you to correctly recall the second item in the pair?|Type your response on a scale from 0-100 and then press Enter.",Flag,F1,3546,,,2160,2848,,,,60,1
65dcb33f369862cba54b8546,gyvr3ajruz,Ex2A_Prolific,1,150,2024-02-28T00:00:15+00:00,4.3004088401794,6,Stim_B.csv,Item.csv,Item,B,dolls,,F2,,,99,JOL,User,1.25,"How likely are you to correctly recall the second item in the pair?|Type your response on a scale from 0-100 and then press Enter.",Flag,F2,3589,,,1930,2607,,,,60,1
65dcb33f369862cba54b8546,gyvr3ajruz,Ex2A_Prolific,1,151,2024-02-28T00:00:20+00:00,4.3863470554352,6,Stim_B.csv,Item.csv,Item,B,pretty,,F3,,,100,JOL,User,1.25,"How likely are you to correctly recall the second item in the pair?|Type your response on a scale from 0-100 and then press Enter.",Flag,F3,3708,,,2189,2957,,,,50,1
65dcb33f369862cba54b8546,gyvr3ajruz,Ex2A_Prolific,1,152,2024-02-28T00:00:28+00:00,8.0827691555023,6,Stim_B.csv,Item.csv,Item,B,female,,F4,,,101,JOL,User,1.25,"How likely are you to correctly recall the second item in the pair?|Type your response on a scale from 0-100 and then press Enter.",Flag,F4,7478,,,6301,6666,,,,70,1
65dcb33f369862cba54b8546,gyvr3ajruz,Ex2A_Prolific,1,153,2024-02-28T00:00:34+00:00,6.1717579364777,6,Stim_B.csv,Item.csv,Item,B,dress,,F5,,,102,JOL,User,1.25,"How likely are you to correctly recall the second item in the pair?|Type your response on a scale from 0-100 and then press Enter.",Flag,F5,5478,,,3908,5203,,,,75,1
65dcb33f369862cba54b8546,gyvr3ajruz,Ex2A_Prolific,1,154,2024-02-28T00:00:39+00:00,5.5179350376129,6,Stim_B.csv,Item.csv,Item,B,date,,F6,,,103,JOL,User,1.25,"How likely are you to correctly recall the second item in the pair?|Type your response on a scale from 0-100 and then press Enter.",Flag,F6,4846,,,3186,3844,,,,50,1
65dcb33f369862cba54b8546,gyvr3ajruz,Ex2A_Prolific,1,155,2024-02-28T00:00:54+00:00,15.038447856903,6,Stim_B.csv,Item.csv,Item,B,beautiful,,F7,,,104,JOL,User,1.25,"How likely are you to correctly recall the second item in the pair?|Type your response on a scale from 0-100 and then press Enter.",Flag,F7,14334,,,12691,13573,,,,60,1
65dcb33f369862cba54b8546,gyvr3ajruz,Ex2A_Prolific,1,156,2024-02-28T00:00:59+00:00,4.7382380962372,6,Stim_B.csv,Item.csv,Item,B,daughter,,F8,,,105,JOL,User,1.25,"How likely are you to correctly recall the second item in the pair?|Type your response on a scale from 0-100 and then press Enter.",Flag,F8,4068,,,2720,3351,,,,80,1
65dcb33f369862cba54b8546,gyvr3ajruz,Ex2A_Prolific,1,157,2024-02-28T00:01:04+00:00,4.4395649433136,6,Stim_B.csv,Item.csv,Item,B,sister,,F9,,,106,JOL,User,1.25,"How likely are you to correctly recall the second item in the pair?|Type your response on a scale from 0-100 and then press Enter.",Flag,F9,3685,,,2703,3117,,,,60,1
65dcb33f369862cba54b8546,gyvr3ajruz,Ex2A_Prolific,1,158,2024-02-28T00:01:07+00:00,3.8791990280151,6,Stim_B.csv,Item.csv,Item,B,cute,,F10,,,107,JOL,User,1.25,"How likely are you to correctly recall the second item in the pair?|Type your response on a scale from 0-100 and then press Enter.",Flag,F10,3257,,,2108,2573,,,,50,1
65dcb33f369862cba54b8546,gyvr3ajruz,Ex2A_Prolific,1,159,2024-02-28T00:01:14+00:00,7.0437390804291,6,Stim_B.csv,Item.csv,Item,B,niece,,F11,,,108,JOL,User,1.25,"How likely are you to correctly recall the second item in the pair?|Type your response on a scale from 0-100 and then press Enter.",Flag,F11,6328,,,2035,5749,,,,40,1
65dcb33f369862cba54b8546,gyvr3ajruz,Ex2A_Prolific,1,160,2024-02-28T00:01:18+00:00,3.9603078365326,6,Stim_B.csv,Item.csv,Item,B,young,,F12,,,109,JOL,User,1.25,"How likely are you to correctly recall the second item in the pair?|Type your response on a scale from 0-100 and then press Enter.",Flag,F12,3280,,,2175,2500,,,,70,1
65dcb33f369862cba54b8546,gyvr3ajruz,Ex2A_Prolific,1,161,2024-02-28T00:01:22+00:00,3.3071210384369,6,Stim_B.csv,Item.csv,Item,B,,,,,,0,Instruct,User,-,"You have completed this section. Please click next.",,Instruct166,2585,,,-1,-1,,,,,1
65dcb33f369862cba54b8546,gyvr3ajruz,Ex2A_Prolific,1,162,2024-02-28T00:01:52+00:00,30.739947080612,6,Stim_B.csv,Item.csv,Item,B,,,,,,0,FreeRecall,30,30,"Please type as many words as you can that begin with the letter ""N"". The computer will automatically advance to the next screen in 30 seconds.",,FILLER,30003,"no, name, none, never, nothing, not",0,1971,29799,0,0,,,1
65dcb33f369862cba54b8546,gyvr3ajruz,Ex2A_Prolific,1,163,2024-02-28T00:01:54+00:00,1.9736540317535,6,Stim_B.csv,Item.csv,Item,B,,,,,,0,Instruct,User,-,"You have completed this section. Please click next.",,Instruct166,1257,,,-1,-1,,,,,1
65dcb33f369862cba54b8546,gyvr3ajruz,Ex2A_Prolific,1,164,2024-02-28T00:02:00+00:00,5.4589140415192,6,Stim_B.csv,Item.csv,Item,B,,,,,,0,Instruct,User,4,"You will now complete a memory test for the words you just studied. Please type as many words from the previous list as you can seperated by a comma. Spelling will not count against you and you can recall the words in any order. This test will be timed for one minute, and the computer will automatically advance once time is up. Click next when you are ready to begin.",,Instruct1666,4816,,,-1,-1,,,,,1
65dcb33f369862cba54b8546,gyvr3ajruz,Ex2A_Prolific,1,165,2024-02-28T00:03:01+00:00,60.748699903488,6,Stim_B.csv,Item.csv,Item,B,,,,,,0,FreeRecall,60,60,"Please type as many words as you can from the previous study list in any order. Please separate each word with a comma. Spelling will not count against you. This screen will automatically advance in one minute.",,RECALL_Test,60006,"beautiful, young, girl, sister, niece, boy, female, cute",0,341,49507,0,0,,,1
65dcb33f369862cba54b8546,gyvr3ajruz,Ex2A_Prolific,1,166,2024-02-28T00:03:06+00:00,5.5831959247589,6,Stim_B.csv,Item.csv,Item,B,,,,,,0,Instruct,User,3,"You will now be presented with a new study list. Click next when you are ready to begin.",,NEXT_LIST,4954,,,-1,-1,,,,,1
65dcb33f369862cba54b8546,gyvr3ajruz,Ex2A_Prolific,1,167,2024-02-28T00:03:13+00:00,6.5605201721191,6,Stim_B.csv,Item.csv,Item,B,white,,SS1,,,110,JOL,User,1.25,"How likely are you to correctly recall the second item in the pair?|Type your response on a scale from 0-100 and then press Enter.",Shirt,SS1,5668,,,3732,5042,,,,50,1
65dcb33f369862cba54b8546,gyvr3ajruz,Ex2A_Prolific,1,168,2024-02-28T00:03:17+00:00,4.3488459587097,6,Stim_B.csv,Item.csv,Item,B,gray,,SS2,,,111,JOL,User,1.25,"How likely are you to correctly recall the second item in the pair?|Type your response on a scale from 0-100 and then press Enter.",Shirt,SS2,3686,,,2421,3088,,,,40,1
65dcb33f369862cba54b8546,gyvr3ajruz,Ex2A_Prolific,1,169,2024-02-28T00:03:22+00:00,4.3749840259552,6,Stim_B.csv,Item.csv,Item,B,brown,,SS3,,,112,JOL,User,1.25,"How likely are you to correctly recall the second item in the pair?|Type your response on a scale from 0-100 and then press Enter.",Shirt,SS3,3732,,,2191,3134,,,,60,1
65dcb33f369862cba54b8546,gyvr3ajruz,Ex2A_Prolific,1,170,2024-02-28T00:03:26+00:00,4.2388308048248,6,Stim_B.csv,Item.csv,Item,B,coal,,SS4,,,113,JOL,User,1.25,"How likely are you to correctly recall the second item in the pair?|Type your response on a scale from 0-100 and then press Enter.",Shirt,SS4,3563,,,2225,2947,,,,30,1
65dcb33f369862cba54b8546,gyvr3ajruz,Ex2A_Prolific,1,171,2024-02-28T00:03:30+00:00,3.8938491344452,6,Stim_B.csv,Item.csv,Item,B,dark,,SS5,,,114,JOL,User,1.25,"How likely are you to correctly recall the second item in the pair?|Type your response on a scale from 0-100 and then press Enter.",Shirt,SS5,3218,,,1902,2548,,,,70,1
65dcb33f369862cba54b8546,gyvr3ajruz,Ex2A_Prolific,1,172,2024-02-28T00:03:35+00:00,5.4424550533295,6,Stim_B.csv,Item.csv,Item,B,color,,SS6,,,115,JOL,User,1.25,"How likely are you to correctly recall the second item in the pair?|Type your response on a scale from 0-100 and then press Enter.",Shirt,SS6,4737,,,2700,4067,,,,80,1
65dcb33f369862cba54b8546,gyvr3ajruz,Ex2A_Prolific,1,173,2024-02-28T00:03:42+00:00,6.5363368988037,6,Stim_B.csv,Item.csv,Item,B,funeral,,SS7,,,116,JOL,User,1.25,"How likely are you to correctly recall the second item in the pair?|Type your response on a scale from 0-100 and then press Enter.",Shirt,SS7,5769,,,4468,4834,,,,30,1
65dcb33f369862cba54b8546,gyvr3ajruz,Ex2A_Prolific,1,174,2024-02-28T00:03:45+00:00,3.4802000522614,6,Stim_B.csv,Item.csv,Item,B,blue,,SS8,,,117,JOL,User,1.25,"How likely are you to correctly recall the second item in the pair?|Type your response on a scale from 0-100 and then press Enter.",Shirt,SS8,2826,,,1607,2263,,,,70,1
65dcb33f369862cba54b8546,gyvr3ajruz,Ex2A_Prolific,1,175,2024-02-28T00:03:49+00:00,4.016921043396,6,Stim_B.csv,Item.csv,Item,B,charred,,SS9,,,118,JOL,User,1.25,"How likely are you to correctly recall the second item in the pair?|Type your response on a scale from 0-100 and then press Enter.",Shirt,SS9,3353,,,2115,2641,,,,10,1
65dcb33f369862cba54b8546,gyvr3ajruz,Ex2A_Prolific,1,176,2024-02-28T00:03:53+00:00,4.0306308269501,6,Stim_B.csv,Item.csv,Item,B,ink,,SS10,,,119,JOL,User,1.25,"How likely are you to correctly recall the second item in the pair?|Type your response on a scale from 0-100 and then press Enter.",Shirt,SS10,3364,,,2181,2384,,,,40,1
65dcb33f369862cba54b8546,gyvr3ajruz,Ex2A_Prolific,1,177,2024-02-28T00:03:58+00:00,4.3593389987946,6,Stim_B.csv,Item.csv,Item,B,death,,SS11,,,120,JOL,User,1.25,"How likely are you to correctly recall the second item in the pair?|Type your response on a scale from 0-100 and then press Enter.",Shirt,SS11,3692,,,2770,3176,,,,40,1
65dcb33f369862cba54b8546,gyvr3ajruz,Ex2A_Prolific,1,178,2024-02-28T00:04:03+00:00,5.7255921363831,6,Stim_B.csv,Item.csv,Item,B,cat,,SS12,,,121,JOL,User,1.25,"How likely are you to correctly recall the second item in the pair?|Type your response on a scale from 0-100 and then press Enter.",Shirt,SS12,5047,,,4357,4507,,,,50,1
65dcb33f369862cba54b8546,gyvr3ajruz,Ex2A_Prolific,1,179,2024-02-28T00:04:05+00:00,2.1016190052032,6,Stim_B.csv,Item.csv,Item,B,,,,,,0,Instruct,User,-,"You have completed this section. Please click next.",,Instruct166,1449,,,-1,-1,,,,,1
65dcb33f369862cba54b8546,gyvr3ajruz,Ex2A_Prolific,1,180,2024-02-28T00:04:36+00:00,30.645267963409,6,Stim_B.csv,Item.csv,Item,B,,,,,,0,FreeRecall,30,30,"Please type as many words as you can that begin with the letter ""R"". The computer will automatically advance to the next screen in 30 seconds.",,FILLER,30003,"ran, rat, rot, run, rant, ramp, ram, realm, real",0,2113,29045,0,0,,,1
65dcb33f369862cba54b8546,gyvr3ajruz,Ex2A_Prolific,1,181,2024-02-28T00:04:42+00:00,5.6442608833313,6,Stim_B.csv,Item.csv,Item,B,,,,,,0,Instruct,User,4,"You have completed this section. Please click next.",,Instruct166,4892,,,-1,-1,,,,,1
65dcb33f369862cba54b8546,gyvr3ajruz,Ex2A_Prolific,1,182,2024-02-28T00:04:47+00:00,5.3435521125793,6,Stim_B.csv,Item.csv,Item,B,,,,,,0,Instruct,User,4,"You will now complete a memory test for the words you just studied. Please type as many words from the previous list as you can seperated by a comma. Spelling will not count against you and you can recall the words in any order. This test will be timed for one minute, and the computer will automatically advance once time is up. Click next when you are ready to begin.",,Instruct1666,4641,,,-1,-1,,,,,1
65dcb33f369862cba54b8546,gyvr3ajruz,Ex2A_Prolific,1,183,2024-02-28T00:05:48+00:00,60.816380023956,6,Stim_B.csv,Item.csv,Item,B,,,,,,0,FreeRecall,60,60,"Please type as many words as you can from the previous study list in any order. Please separate each word with a comma. Spelling will not count against you. This screen will automatically advance in one minute.",,RECALL_Test,60001,"blue, dark, death, funeral, brown, gray, cat, charred, white, color",0,1823,53764,0,0,,,1
65dcb33f369862cba54b8546,gyvr3ajruz,Ex2A_Prolific,1,184,2024-02-28T00:05:53+00:00,5.2533130645752,6,Stim_B.csv,Item.csv,Item,B,,,,,,0,Instruct,User,-,"You have completed this section. Please click next.",,Instruct7,4633,,,-1,-1,,,,,1
65dcb33f369862cba54b8546,gyvr3ajruz,Ex2A_Prolific,1,185,2024-02-28T00:05:59+00:00,5.5530078411102,6,Stim_B.csv,Item.csv,Item,B,,,,,,0,Instruct,User,-,"The following screen will ask you a few questions abour your experience today. You must complete these questions to receive credit.",,Instruct8,4823,,,-1,-1,,,,,1
