Username,ID,ExperimentName,Session,Trial,Date,TimeDif,"Condition Number","Stimuli File","Order File","Condition Description","Condition Notes",Stimuli*Cue,Stimuli*Answer,Stimuli*Shuffle,"Stimuli*Stimuli Notes",Stimuli*Value,Procedure*Item,"Procedure*Trial Type","Procedure*Max Time","Procedure*Min Time",Procedure*Text,"Procedure*Procedure Notes",Procedure*Shuffle,Response*RT,Response*Response,Response*Accuracy,Response*RTfirst,Response*RTlast,Response*strictAcc,Response*lenientAcc,Response*focus,Response*JOL,Response*Focus
6509ad3e10014974dfe2f77c,dron1vz9ua,Ex2A_Prolific,1,1,2024-02-28T02:08:44+00:00,73.605976104736,5,Stim_A.csv,Item.csv,Item,A,,,,,,0,Instruct,-,5,"In this section, you will be presented with a series of words. Please study each word carefully. Your memory will be tested!",Initial_Instruct,Instruct1,72848,,,-1,-1,,,,,1
6509ad3e10014974dfe2f77c,dron1vz9ua,Ex2A_Prolific,1,2,2024-02-28T02:09:02+00:00,18.129703998566,5,Stim_A.csv,Item.csv,Item,A,,,,,,0,Instruct,-,5,"As you study, you will be asked to rate your ability to remember each item on a later memory test using a 0-100 scale. For example, if you study the word DOG, a rating of 0 indicates that you would not remember DOG at test, while a rating of 100 indicates full certainty that you would remember the word DOG at test.",,Instruct13,17542,,,-1,-1,,,,,1
6509ad3e10014974dfe2f77c,dron1vz9ua,Ex2A_Prolific,1,3,2024-02-28T02:09:14+00:00,11.846784830093,5,Stim_A.csv,Item.csv,Item,A,,,,,,0,Instruct,-,10,"When making your ratings, it is criticial that you use the full range of the scale. You will be disqualified for only giving ratings of 0 or 100!",,Instruct15,11204,,,-1,-1,,,,,1
6509ad3e10014974dfe2f77c,dron1vz9ua,Ex2A_Prolific,1,4,2024-02-28T02:09:16+00:00,2.7660350799561,5,Stim_A.csv,Item.csv,Item,A,,,,,,0,Instruct,User,-,"You will now begin the study. Click next when you are ready to begin.",,Instruct16,2209,,,-1,-1,,,,,1
6509ad3e10014974dfe2f77c,dron1vz9ua,Ex2A_Prolific,1,5,2024-02-28T02:09:28+00:00,12.137125968933,5,Stim_A.csv,Item.csv,Item,A,pane,,Win_1,,,2,JOL,User,1.25,"How likely are you to correctly recall the second item in the pair?|Type your response on a scale from 0-100 and then press Enter.",Window,Win_1,11548,,,6338,6481,,,,60,1
6509ad3e10014974dfe2f77c,dron1vz9ua,Ex2A_Prolific,1,6,2024-02-28T02:09:35+00:00,6.031800031662,5,Stim_A.csv,Item.csv,Item,A,sill,,Win_2,,,3,JOL,User,1.25,"How likely are you to correctly recall the second item in the pair?|Type your response on a scale from 0-100 and then press Enter.",Window,Win_2,5396,,,3744,3875,,,,60,1
6509ad3e10014974dfe2f77c,dron1vz9ua,Ex2A_Prolific,1,7,2024-02-28T02:09:41+00:00,6.3852760791779,5,Stim_A.csv,Item.csv,Item,A,shutter,,Win_3,,,4,JOL,User,1.25,"How likely are you to correctly recall the second item in the pair?|Type your response on a scale from 0-100 and then press Enter.",Window,Win_3,5704,,,3832,4822,,,,20,1
6509ad3e10014974dfe2f77c,dron1vz9ua,Ex2A_Prolific,1,8,2024-02-28T02:09:50+00:00,8.7310218811035,5,Stim_A.csv,Item.csv,Item,A,curtain,,Win_4,,,5,JOL,User,1.25,"How likely are you to correctly recall the second item in the pair?|Type your response on a scale from 0-100 and then press Enter.",Window,Win_4,8162,,,6182,7860,,,,40,1
6509ad3e10014974dfe2f77c,dron1vz9ua,Ex2A_Prolific,1,9,2024-02-28T02:09:55+00:00,5.7058000564575,5,Stim_A.csv,Item.csv,Item,A,door,,Win_5,,,6,JOL,User,1.25,"How likely are you to correctly recall the second item in the pair?|Type your response on a scale from 0-100 and then press Enter.",Window,Win_5,5111,,,4177,4291,,,,70,1
6509ad3e10014974dfe2f77c,dron1vz9ua,Ex2A_Prolific,1,10,2024-02-28T02:10:00+00:00,4.4314239025116,5,Stim_A.csv,Item.csv,Item,A,ledge,,Win_6,,,7,JOL,User,1.25,"How likely are you to correctly recall the second item in the pair?|Type your response on a scale from 0-100 and then press Enter.",Window,Win_6,3871,,,3320,3414,,,,20,1
6509ad3e10014974dfe2f77c,dron1vz9ua,Ex2A_Prolific,1,11,2024-02-28T02:10:04+00:00,4.0065171718597,5,Stim_A.csv,Item.csv,Item,A,glass,,Win_7,,,8,JOL,User,1.25,"How likely are you to correctly recall the second item in the pair?|Type your response on a scale from 0-100 and then press Enter.",Window,Win_7,3314,,,2894,3047,,,,50,1
6509ad3e10014974dfe2f77c,dron1vz9ua,Ex2A_Prolific,1,12,2024-02-28T02:10:10+00:00,5.9590828418732,5,Stim_A.csv,Item.csv,Item,A,view,,Win_8,,,9,JOL,User,1.25,"How likely are you to correctly recall the second item in the pair?|Type your response on a scale from 0-100 and then press Enter.",Window,Win_8,5258,,,2800,4729,,,,60,1
6509ad3e10014974dfe2f77c,dron1vz9ua,Ex2A_Prolific,1,13,2024-02-28T02:10:15+00:00,5.6777291297913,5,Stim_A.csv,Item.csv,Item,A,screen,,Win_9,,,10,JOL,User,1.25,"How likely are you to correctly recall the second item in the pair?|Type your response on a scale from 0-100 and then press Enter.",Window,Win_9,5126,,,4762,4868,,,,60,1
6509ad3e10014974dfe2f77c,dron1vz9ua,Ex2A_Prolific,1,14,2024-02-28T02:10:29+00:00,13.332284927368,5,Stim_A.csv,Item.csv,Item,A,shade,,Win_10,,,11,JOL,User,1.25,"How likely are you to correctly recall the second item in the pair?|Type your response on a scale from 0-100 and then press Enter.",Window,Win_10,12756,,,12131,12260,,,,60,1
6509ad3e10014974dfe2f77c,dron1vz9ua,Ex2A_Prolific,1,15,2024-02-28T02:10:32+00:00,3.4684751033783,5,Stim_A.csv,Item.csv,Item,A,open,,Win_11,,,12,JOL,User,1.25,"How likely are you to correctly recall the second item in the pair?|Type your response on a scale from 0-100 and then press Enter.",Window,Win_11,2781,,,2303,2423,,,,60,1
6509ad3e10014974dfe2f77c,dron1vz9ua,Ex2A_Prolific,1,16,2024-02-28T02:10:36+00:00,3.536572933197,5,Stim_A.csv,Item.csv,Item,A,frame,,Win_12,,,13,JOL,User,1.25,"How likely are you to correctly recall the second item in the pair?|Type your response on a scale from 0-100 and then press Enter.",Window,Win_12,2977,,,1807,1982,,,,60,1
6509ad3e10014974dfe2f77c,dron1vz9ua,Ex2A_Prolific,1,17,2024-02-28T02:10:37+00:00,1.6006820201874,5,Stim_A.csv,Item.csv,Item,A,,,,,,0,Instruct,User,-,"You have completed this section. Please click next.",,Instruct166,1053,,,-1,-1,,,,,1
6509ad3e10014974dfe2f77c,dron1vz9ua,Ex2A_Prolific,1,18,2024-02-28T02:11:08+00:00,30.718654870987,5,Stim_A.csv,Item.csv,Item,A,,,,,,0,FreeRecall,30,30,"Please type as many words as you can that begin with the letter ""C"". The computer will automatically advance to the next screen in 30 seconds.",,FILLER,30004,"car crush condition carpet crate coke cookie crayon crepe cure c",0,7315,29717,0,0,,,1
6509ad3e10014974dfe2f77c,dron1vz9ua,Ex2A_Prolific,1,19,2024-02-28T02:11:11+00:00,3.4120149612427,5,Stim_A.csv,Item.csv,Item,A,,,,,,0,Instruct,User,-,"You have completed this section. Please click next.",,Instruct166,2723,,,-1,-1,,,,,1
6509ad3e10014974dfe2f77c,dron1vz9ua,Ex2A_Prolific,1,20,2024-02-28T02:11:30+00:00,18.887481212616,5,Stim_A.csv,Item.csv,Item,A,,,,,,0,Instruct,User,4,"You will now complete a memory test for the words you just studied. Please type as many words from the previous list as you can seperated by a comma. Spelling will not count against you and you can recall the words in any order. This test will be timed for one minute, and the computer will automatically advance once time is up. Click next when you are ready to begin.",,Instruct1666,18339,,,-1,-1,,,,,1
6509ad3e10014974dfe2f77c,dron1vz9ua,Ex2A_Prolific,1,21,2024-02-28T02:12:31+00:00,60.582242965698,5,Stim_A.csv,Item.csv,Item,A,,,,,,0,FreeRecall,60,60,"Please type as many words as you can from the previous study list in any order. Please separate each word with a comma. Spelling will not count against you. This screen will automatically advance in one minute.",,RECALL_Test,60002,"sill pane frame door glass open screen curtain shadow ledge ",0,1011,40732,0,0,,,1
6509ad3e10014974dfe2f77c,dron1vz9ua,Ex2A_Prolific,1,22,2024-02-28T02:12:37+00:00,5.8831028938293,5,Stim_A.csv,Item.csv,Item,A,,,,,,0,Instruct,User,3,"You will now be presented with a new study list. Click next when you are ready to begin.",,NEXT_LIST,4874,,,-1,-1,,,,,1
6509ad3e10014974dfe2f77c,dron1vz9ua,Ex2A_Prolific,1,23,2024-02-28T02:12:41+00:00,4.2653810977936,5,Stim_A.csv,Item.csv,Item,A,sandpaper,,R1,,,14,JOL,User,1.25,"How likely are you to correctly recall the second item in the pair?|Type your response on a scale from 0-100 and then press Enter.",Rough,R1,3671,,,3335,3411,,,,60,1
6509ad3e10014974dfe2f77c,dron1vz9ua,Ex2A_Prolific,1,24,2024-02-28T02:12:44+00:00,2.9824278354645,5,Stim_A.csv,Item.csv,Item,A,smooth,,R2,,,15,JOL,User,1.25,"How likely are you to correctly recall the second item in the pair?|Type your response on a scale from 0-100 and then press Enter.",Rough,R2,2417,,,1802,1963,,,,60,1
6509ad3e10014974dfe2f77c,dron1vz9ua,Ex2A_Prolific,1,25,2024-02-28T02:12:46+00:00,2.0488982200623,5,Stim_A.csv,Item.csv,Item,A,coarse,,R3,,,16,JOL,User,1.25,"How likely are you to correctly recall the second item in the pair?|Type your response on a scale from 0-100 and then press Enter.",Rough,R3,1453,,,1028,1182,,,,60,1
6509ad3e10014974dfe2f77c,dron1vz9ua,Ex2A_Prolific,1,26,2024-02-28T02:12:50+00:00,4.1933128833771,5,Stim_A.csv,Item.csv,Item,A,tough,,R4,,,17,JOL,User,1.25,"How likely are you to correctly recall the second item in the pair?|Type your response on a scale from 0-100 and then press Enter.",Rough,R4,3527,,,1754,3260,,,,40,1
6509ad3e10014974dfe2f77c,dron1vz9ua,Ex2A_Prolific,1,27,2024-02-28T02:12:53+00:00,2.2741479873657,5,Stim_A.csv,Item.csv,Item,A,rugged,,R5,,,18,JOL,User,1.25,"How likely are you to correctly recall the second item in the pair?|Type your response on a scale from 0-100 and then press Enter.",Rough,R5,1695,,,1173,1302,,,,40,1
6509ad3e10014974dfe2f77c,dron1vz9ua,Ex2A_Prolific,1,28,2024-02-28T02:13:07+00:00,14.709343910217,5,Stim_A.csv,Item.csv,Item,A,bumpy,,R6,,,19,JOL,User,1.25,"How likely are you to correctly recall the second item in the pair?|Type your response on a scale from 0-100 and then press Enter.",Rough,R6,14169,,,12852,13910,,,,40,1
6509ad3e10014974dfe2f77c,dron1vz9ua,Ex2A_Prolific,1,29,2024-02-28T02:13:10+00:00,2.5647799968719,5,Stim_A.csv,Item.csv,Item,A,jagged,,R7,,,20,JOL,User,1.25,"How likely are you to correctly recall the second item in the pair?|Type your response on a scale from 0-100 and then press Enter.",Rough,R7,1960,,,1580,1684,,,,30,1
6509ad3e10014974dfe2f77c,dron1vz9ua,Ex2A_Prolific,1,30,2024-02-28T02:13:17+00:00,7.5543901920319,5,Stim_A.csv,Item.csv,Item,A,riders,,R8,,,21,JOL,User,1.25,"How likely are you to correctly recall the second item in the pair?|Type your response on a scale from 0-100 and then press Enter.",Rough,R8,6986,,,5713,5884,,,,30,1
6509ad3e10014974dfe2f77c,dron1vz9ua,Ex2A_Prolific,1,31,2024-02-28T02:13:21+00:00,3.9210488796234,5,Stim_A.csv,Item.csv,Item,A,uneven,,R9,,,22,JOL,User,1.25,"How likely are you to correctly recall the second item in the pair?|Type your response on a scale from 0-100 and then press Enter.",Rough,R9,3300,,,1764,3000,,,,20,1
6509ad3e10014974dfe2f77c,dron1vz9ua,Ex2A_Prolific,1,32,2024-02-28T02:13:26+00:00,4.8888421058655,5,Stim_A.csv,Item.csv,Item,A,road,,R10,,,23,JOL,User,1.25,"How likely are you to correctly recall the second item in the pair?|Type your response on a scale from 0-100 and then press Enter.",Rough,R10,4124,,,1405,1959,,,,20,1
6509ad3e10014974dfe2f77c,dron1vz9ua,Ex2A_Prolific,1,33,2024-02-28T02:13:29+00:00,2.8641738891602,5,Stim_A.csv,Item.csv,Item,A,ready,,R11,,,24,JOL,User,1.25,"How likely are you to correctly recall the second item in the pair?|Type your response on a scale from 0-100 and then press Enter.",Rough,R11,2150,,,1079,1218,,,,20,1
6509ad3e10014974dfe2f77c,dron1vz9ua,Ex2A_Prolific,1,34,2024-02-28T02:13:34+00:00,4.797199010849,5,Stim_A.csv,Item.csv,Item,A,sand,,R12,,,25,JOL,User,1.25,"How likely are you to correctly recall the second item in the pair?|Type your response on a scale from 0-100 and then press Enter.",Rough,R12,4213,,,1167,3967,,,,60,1
6509ad3e10014974dfe2f77c,dron1vz9ua,Ex2A_Prolific,1,35,2024-02-28T02:13:35+00:00,1.2897260189056,5,Stim_A.csv,Item.csv,Item,A,,,,,,0,Instruct,User,-,"You have completed this section. Please click next.",,Instruct166,736,,,-1,-1,,,,,1
6509ad3e10014974dfe2f77c,dron1vz9ua,Ex2A_Prolific,1,36,2024-02-28T02:14:06+00:00,30.751714944839,5,Stim_A.csv,Item.csv,Item,A,,,,,,0,FreeRecall,30,30,"Please type as many words as you can that begin with the letter ""L"". The computer will automatically advance to the next screen in 30 seconds.",,FILLER,30002,"leverage lost lose lower lift leaf lettuce lo",0,557,29956,0,0,,,1
6509ad3e10014974dfe2f77c,dron1vz9ua,Ex2A_Prolific,1,37,2024-02-28T02:14:10+00:00,4.3064119815826,5,Stim_A.csv,Item.csv,Item,A,,,,,,0,Instruct,User,-,"You have completed this section. Please click next.",,Instruct166,3587,,,-1,-1,,,,,1
6509ad3e10014974dfe2f77c,dron1vz9ua,Ex2A_Prolific,1,38,2024-02-28T02:14:23+00:00,12.748206138611,5,Stim_A.csv,Item.csv,Item,A,,,,,,0,Instruct,User,4,"You will now complete a memory test for the words you just studied. Please type as many words from the previous list as you can seperated by a comma. Spelling will not count against you and you can recall the words in any order. This test will be timed for one minute, and the computer will automatically advance once time is up. Click next when you are ready to begin.",,Instruct1666,12131,,,-1,-1,,,,,1
6509ad3e10014974dfe2f77c,dron1vz9ua,Ex2A_Prolific,1,39,2024-02-28T02:15:24+00:00,60.61154794693,5,Stim_A.csv,Item.csv,Item,A,,,,,,0,FreeRecall,60,60,"Please type as many words as you can from the previous study list in any order. Please separate each word with a comma. Spelling will not count against you. This screen will automatically advance in one minute.",,RECALL_Test,60004,"sand, sandpaper, rough, bumpy, smooth, ready, tough, uneven, ",0,1382,27357,0,0,,,1
6509ad3e10014974dfe2f77c,dron1vz9ua,Ex2A_Prolific,1,40,2024-02-28T02:15:28+00:00,4.4310309886932,5,Stim_A.csv,Item.csv,Item,A,,,,,,0,Instruct,User,3,"You will now be presented with a new study list. Click next when you are ready to begin.",,NEXT_LIST,3842,,,-1,-1,,,,,1
6509ad3e10014974dfe2f77c,dron1vz9ua,Ex2A_Prolific,1,41,2024-02-28T02:15:33+00:00,5.101105928421,5,Stim_A.csv,Item.csv,Item,A,rage,,A1,,,26,JOL,User,1.25,"How likely are you to correctly recall the second item in the pair?|Type your response on a scale from 0-100 and then press Enter.",Anger,A1,4545,,,3191,3986,,,,65,1
6509ad3e10014974dfe2f77c,dron1vz9ua,Ex2A_Prolific,1,42,2024-02-28T02:15:36+00:00,2.4535319805145,5,Stim_A.csv,Item.csv,Item,A,mad,,A2,,,27,JOL,User,1.25,"How likely are you to correctly recall the second item in the pair?|Type your response on a scale from 0-100 and then press Enter.",Anger,A2,1823,,,1396,1663,,,,65,1
6509ad3e10014974dfe2f77c,dron1vz9ua,Ex2A_Prolific,1,43,2024-02-28T02:15:38+00:00,2.307816028595,5,Stim_A.csv,Item.csv,Item,A,enrage,,A3,,,28,JOL,User,1.25,"How likely are you to correctly recall the second item in the pair?|Type your response on a scale from 0-100 and then press Enter.",Anger,A3,1628,,,1314,1480,,,,65,1
6509ad3e10014974dfe2f77c,dron1vz9ua,Ex2A_Prolific,1,44,2024-02-28T02:15:40+00:00,2.301910161972,5,Stim_A.csv,Item.csv,Item,A,fury,,A4,,,29,JOL,User,1.25,"How likely are you to correctly recall the second item in the pair?|Type your response on a scale from 0-100 and then press Enter.",Anger,A4,1707,,,1185,1330,,,,65,1
6509ad3e10014974dfe2f77c,dron1vz9ua,Ex2A_Prolific,1,45,2024-02-28T02:15:47+00:00,6.6443119049072,5,Stim_A.csv,Item.csv,Item,A,temper,,A5,,,30,JOL,User,1.25,"How likely are you to correctly recall the second item in the pair?|Type your response on a scale from 0-100 and then press Enter.",Anger,A5,6002,,,1337,1542,,,,65,1
6509ad3e10014974dfe2f77c,dron1vz9ua,Ex2A_Prolific,1,46,2024-02-28T02:15:50+00:00,2.7736959457397,5,Stim_A.csv,Item.csv,Item,A,ire,,A6,,,31,JOL,User,1.25,"How likely are you to correctly recall the second item in the pair?|Type your response on a scale from 0-100 and then press Enter.",Anger,A6,2176,,,1793,1886,,,,20,1
6509ad3e10014974dfe2f77c,dron1vz9ua,Ex2A_Prolific,1,47,2024-02-28T02:15:52+00:00,2.3433520793915,5,Stim_A.csv,Item.csv,Item,A,wrath,,A7,,,32,JOL,User,1.25,"How likely are you to correctly recall the second item in the pair?|Type your response on a scale from 0-100 and then press Enter.",Anger,A7,1781,,,1386,1497,,,,60,1
6509ad3e10014974dfe2f77c,dron1vz9ua,Ex2A_Prolific,1,48,2024-02-28T02:15:55+00:00,2.6267170906067,5,Stim_A.csv,Item.csv,Item,A,mean,,A8,,,33,JOL,User,1.25,"How likely are you to correctly recall the second item in the pair?|Type your response on a scale from 0-100 and then press Enter.",Anger,A8,1925,,,1472,1564,,,,70,1
6509ad3e10014974dfe2f77c,dron1vz9ua,Ex2A_Prolific,1,49,2024-02-28T02:15:57+00:00,2.2362189292908,5,Stim_A.csv,Item.csv,Item,A,hatred,,A9,,,34,JOL,User,1.25,"How likely are you to correctly recall the second item in the pair?|Type your response on a scale from 0-100 and then press Enter.",Anger,A9,1658,,,1268,1377,,,,60,1
6509ad3e10014974dfe2f77c,dron1vz9ua,Ex2A_Prolific,1,50,2024-02-28T02:15:59+00:00,2.2879068851471,5,Stim_A.csv,Item.csv,Item,A,fight,,A10,,,35,JOL,User,1.25,"How likely are you to correctly recall the second item in the pair?|Type your response on a scale from 0-100 and then press Enter.",Anger,A10,1715,,,1342,1456,,,,60,1
6509ad3e10014974dfe2f77c,dron1vz9ua,Ex2A_Prolific,1,51,2024-02-28T02:16:01+00:00,2.300096988678,5,Stim_A.csv,Item.csv,Item,A,hate,,A11,,,36,JOL,User,1.25,"How likely are you to correctly recall the second item in the pair?|Type your response on a scale from 0-100 and then press Enter.",Anger,A11,1743,,,1389,1476,,,,70,1
6509ad3e10014974dfe2f77c,dron1vz9ua,Ex2A_Prolific,1,52,2024-02-28T02:16:05+00:00,3.9303181171417,5,Stim_A.csv,Item.csv,Item,A,fear,,A12,,,37,JOL,User,1.25,"How likely are you to correctly recall the second item in the pair?|Type your response on a scale from 0-100 and then press Enter.",Anger,A12,3357,,,1389,3129,,,,60,1
6509ad3e10014974dfe2f77c,dron1vz9ua,Ex2A_Prolific,1,53,2024-02-28T02:16:11+00:00,5.4824900627136,5,Stim_A.csv,Item.csv,Item,A,,,,,,0,Instruct,User,4,"You have completed this section. Please click next.",,Instruct166,4921,,,-1,-1,,,,,1
6509ad3e10014974dfe2f77c,dron1vz9ua,Ex2A_Prolific,1,54,2024-02-28T02:16:41+00:00,30.568769931793,5,Stim_A.csv,Item.csv,Item,A,,,,,,0,FreeRecall,30,30,"Please type as many words as you can that begin with the letter ""M"". The computer will automatically advance to the next screen in 30 seconds.",,FILLER,30006,"map monster move martian maple miles mart minion Mexico marina moor make ",0,1722,29624,0,0,,,1
6509ad3e10014974dfe2f77c,dron1vz9ua,Ex2A_Prolific,1,55,2024-02-28T02:16:48+00:00,6.1092388629913,5,Stim_A.csv,Item.csv,Item,A,,,,,,0,Instruct,User,4,"You have completed this section. Please click next.",,Instruct166,5515,,,-1,-1,,,,,1
6509ad3e10014974dfe2f77c,dron1vz9ua,Ex2A_Prolific,1,56,2024-02-28T02:16:54+00:00,6.7181351184845,5,Stim_A.csv,Item.csv,Item,A,,,,,,0,Instruct,User,4,"You will now complete a memory test for the words you just studied. Please type as many words from the previous list as you can seperated by a comma. Spelling will not count against you and you can recall the words in any order. This test will be timed for one minute, and the computer will automatically advance once time is up. Click next when you are ready to begin.",,Instruct1666,6178,,,-1,-1,,,,,1
6509ad3e10014974dfe2f77c,dron1vz9ua,Ex2A_Prolific,1,57,2024-02-28T02:17:55+00:00,60.720064878464,5,Stim_A.csv,Item.csv,Item,A,,,,,,0,FreeRecall,60,60,"Please type as many words as you can from the previous study list in any order. Please separate each word with a comma. Spelling will not count against you. This screen will automatically advance in one minute.",,RECALL_Test,60009,"rage, anger, enrage, fight, fear, hate, ",0,858,19184,0,0,,,1
6509ad3e10014974dfe2f77c,dron1vz9ua,Ex2A_Prolific,1,58,2024-02-28T02:18:05+00:00,9.9743001461029,5,Stim_A.csv,Item.csv,Item,A,,,,,,0,Instruct,User,3,"You will now be presented with a new study list. Click next when you are ready to begin.",,NEXT_LIST,9048,,,-1,-1,,,,,1
6509ad3e10014974dfe2f77c,dron1vz9ua,Ex2A_Prolific,1,59,2024-02-28T02:18:14+00:00,8.9064240455627,5,Stim_A.csv,Item.csv,Item,A,garbage,,T1,,,38,JOL,User,1.25,"How likely are you to correctly recall the second item in the pair?|Type your response on a scale from 0-100 and then press Enter.",Trash,T1,8336,,,2715,2837,,,,50,1
6509ad3e10014974dfe2f77c,dron1vz9ua,Ex2A_Prolific,1,60,2024-02-28T02:18:20+00:00,5.7249689102173,5,Stim_A.csv,Item.csv,Item,A,rubbish,,T2,,,39,JOL,User,1.25,"How likely are you to correctly recall the second item in the pair?|Type your response on a scale from 0-100 and then press Enter.",Trash,T2,5143,,,4410,4548,,,,60,1
6509ad3e10014974dfe2f77c,dron1vz9ua,Ex2A_Prolific,1,61,2024-02-28T02:18:25+00:00,5.0318939685822,5,Stim_A.csv,Item.csv,Item,A,debris,,T3,,,40,JOL,User,1.25,"How likely are you to correctly recall the second item in the pair?|Type your response on a scale from 0-100 and then press Enter.",Trash,T3,4401,,,1391,1580,,,,60,1
6509ad3e10014974dfe2f77c,dron1vz9ua,Ex2A_Prolific,1,62,2024-02-28T02:18:29+00:00,4.1836271286011,5,Stim_A.csv,Item.csv,Item,A,dump,,T4,,,41,JOL,User,1.25,"How likely are you to correctly recall the second item in the pair?|Type your response on a scale from 0-100 and then press Enter.",Trash,T4,3620,,,3098,3233,,,,70,1
6509ad3e10014974dfe2f77c,dron1vz9ua,Ex2A_Prolific,1,63,2024-02-28T02:18:34+00:00,4.8079559803009,5,Stim_A.csv,Item.csv,Item,A,litter,,T5,,,42,JOL,User,1.25,"How likely are you to correctly recall the second item in the pair?|Type your response on a scale from 0-100 and then press Enter.",Trash,T5,4255,,,3645,3767,,,,60,1
6509ad3e10014974dfe2f77c,dron1vz9ua,Ex2A_Prolific,1,64,2024-02-28T02:18:37+00:00,3.8631000518799,5,Stim_A.csv,Item.csv,Item,A,landfill,,T6,,,43,JOL,User,1.25,"How likely are you to correctly recall the second item in the pair?|Type your response on a scale from 0-100 and then press Enter.",Trash,T6,3270,,,2449,2770,,,,60,1
6509ad3e10014974dfe2f77c,dron1vz9ua,Ex2A_Prolific,1,65,2024-02-28T02:18:40+00:00,2.4663338661194,5,Stim_A.csv,Item.csv,Item,A,junk,,T7,,,44,JOL,User,1.25,"How likely are you to correctly recall the second item in the pair?|Type your response on a scale from 0-100 and then press Enter.",Trash,T7,1758,,,1418,1507,,,,50,1
6509ad3e10014974dfe2f77c,dron1vz9ua,Ex2A_Prolific,1,66,2024-02-28T02:18:42+00:00,2.1543109416962,5,Stim_A.csv,Item.csv,Item,A,waste,,T8,,,45,JOL,User,1.25,"How likely are you to correctly recall the second item in the pair?|Type your response on a scale from 0-100 and then press Enter.",Trash,T8,1528,,,1176,1272,,,,70,1
6509ad3e10014974dfe2f77c,dron1vz9ua,Ex2A_Prolific,1,67,2024-02-28T02:18:46+00:00,3.6460490226746,5,Stim_A.csv,Item.csv,Item,A,sewage,,T9,,,46,JOL,User,1.25,"How likely are you to correctly recall the second item in the pair?|Type your response on a scale from 0-100 and then press Enter.",Trash,T9,3127,,,2815,2910,,,,20,1
6509ad3e10014974dfe2f77c,dron1vz9ua,Ex2A_Prolific,1,68,2024-02-28T02:18:48+00:00,2.5129079818726,5,Stim_A.csv,Item.csv,Item,A,pile,,T10,,,47,JOL,User,1.25,"How likely are you to correctly recall the second item in the pair?|Type your response on a scale from 0-100 and then press Enter.",Trash,T10,1932,,,811,917,,,,20,1
6509ad3e10014974dfe2f77c,dron1vz9ua,Ex2A_Prolific,1,69,2024-02-28T02:18:53+00:00,5.1768481731415,5,Stim_A.csv,Item.csv,Item,A,scraps,,T11,,,48,JOL,User,1.25,"How likely are you to correctly recall the second item in the pair?|Type your response on a scale from 0-100 and then press Enter.",Trash,T11,4609,,,1276,1469,,,,30,1
6509ad3e10014974dfe2f77c,dron1vz9ua,Ex2A_Prolific,1,70,2024-02-28T02:18:57+00:00,3.2007689476013,5,Stim_A.csv,Item.csv,Item,A,refuse,,T12,,,49,JOL,User,1.25,"How likely are you to correctly recall the second item in the pair?|Type your response on a scale from 0-100 and then press Enter.",Trash,T12,2630,,,2264,2360,,,,20,1
6509ad3e10014974dfe2f77c,dron1vz9ua,Ex2A_Prolific,1,71,2024-02-28T02:19:05+00:00,8.6624848842621,5,Stim_A.csv,Item.csv,Item,A,,,,,,0,Instruct,User,4,"You have completed this section. Please click next.",,Instruct166,7957,,,-1,-1,,,,,1
6509ad3e10014974dfe2f77c,dron1vz9ua,Ex2A_Prolific,1,72,2024-02-28T02:19:36+00:00,30.61221408844,5,Stim_A.csv,Item.csv,Item,A,,,,,,0,FreeRecall,30,30,"Please type as many words as you can that begin with the letter ""W"". The computer will automatically advance to the next screen in 30 seconds.",,FILLER,30003,"water wage winter wake wire wyvern wireless wanted wood ",0,6020,29569,0,0,,,1
6509ad3e10014974dfe2f77c,dron1vz9ua,Ex2A_Prolific,1,73,2024-02-28T02:19:41+00:00,5.2261679172516,5,Stim_A.csv,Item.csv,Item,A,,,,,,0,Instruct,User,4,"You have completed this section. Please click next.",,Instruct166,4509,,,-1,-1,,,,,1
6509ad3e10014974dfe2f77c,dron1vz9ua,Ex2A_Prolific,1,74,2024-02-28T02:19:47+00:00,6.1811740398407,5,Stim_A.csv,Item.csv,Item,A,,,,,,0,Instruct,User,4,"You will now complete a memory test for the words you just studied. Please type as many words from the previous list as you can seperated by a comma. Spelling will not count against you and you can recall the words in any order. This test will be timed for one minute, and the computer will automatically advance once time is up. Click next when you are ready to begin.",,Instruct1666,5549,,,-1,-1,,,,,1
6509ad3e10014974dfe2f77c,dron1vz9ua,Ex2A_Prolific,1,75,2024-02-28T02:20:48+00:00,60.621371984482,5,Stim_A.csv,Item.csv,Item,A,,,,,,0,FreeRecall,60,60,"Please type as many words as you can from the previous study list in any order. Please separate each word with a comma. Spelling will not count against you. This screen will automatically advance in one minute.",,RECALL_Test,60004,"garbage, refuse, landfill, dump, waste, debris, rubbish, ",0,1383,25286,0,0,,,1
6509ad3e10014974dfe2f77c,dron1vz9ua,Ex2A_Prolific,1,76,2024-02-28T02:20:53+00:00,5.2461121082306,5,Stim_A.csv,Item.csv,Item,A,,,,,,0,Instruct,User,3,"You will now be presented with a new study list. Click next when you are ready to begin.",,NEXT_LIST,4590,,,-1,-1,,,,,1
6509ad3e10014974dfe2f77c,dron1vz9ua,Ex2A_Prolific,1,77,2024-02-28T02:20:58+00:00,4.7096688747406,5,Stim_A.csv,Item.csv,Item,A,physician,,D1,,,50,JOL,User,1.25,"How likely are you to correctly recall the second item in the pair?|Type your response on a scale from 0-100 and then press Enter.",Doctor,D1,4144,,,3703,3822,,,,40,1
6509ad3e10014974dfe2f77c,dron1vz9ua,Ex2A_Prolific,1,78,2024-02-28T02:21:00+00:00,2.5481569766998,5,Stim_A.csv,Item.csv,Item,A,nurse,,D2,,,51,JOL,User,1.25,"How likely are you to correctly recall the second item in the pair?|Type your response on a scale from 0-100 and then press Enter.",Doctor,D2,1986,,,1619,1708,,,,50,1
6509ad3e10014974dfe2f77c,dron1vz9ua,Ex2A_Prolific,1,79,2024-02-28T02:21:03+00:00,3.0392951965332,5,Stim_A.csv,Item.csv,Item,A,stethoscope,,D3,,,52,JOL,User,1.25,"How likely are you to correctly recall the second item in the pair?|Type your response on a scale from 0-100 and then press Enter.",Doctor,D3,2403,,,1890,2010,,,,20,1
6509ad3e10014974dfe2f77c,dron1vz9ua,Ex2A_Prolific,1,80,2024-02-28T02:21:09+00:00,5.1564049720764,5,Stim_A.csv,Item.csv,Item,A,surgeon,,D4,,,53,JOL,User,1.25,"How likely are you to correctly recall the second item in the pair?|Type your response on a scale from 0-100 and then press Enter.",Doctor,D4,4587,,,3863,4069,,,,50,1
6509ad3e10014974dfe2f77c,dron1vz9ua,Ex2A_Prolific,1,81,2024-02-28T02:21:12+00:00,2.9256088733673,5,Stim_A.csv,Item.csv,Item,A,patient,,D5,,,54,JOL,User,1.25,"How likely are you to correctly recall the second item in the pair?|Type your response on a scale from 0-100 and then press Enter.",Doctor,D5,2327,,,1342,1465,,,,60,1
6509ad3e10014974dfe2f77c,dron1vz9ua,Ex2A_Prolific,1,82,2024-02-28T02:21:17+00:00,5.9093589782715,5,Stim_A.csv,Item.csv,Item,A,clinic,,D6,,,55,JOL,User,1.25,"How likely are you to correctly recall the second item in the pair?|Type your response on a scale from 0-100 and then press Enter.",Doctor,D6,5358,,,4555,4736,,,,30,1
6509ad3e10014974dfe2f77c,dron1vz9ua,Ex2A_Prolific,1,83,2024-02-28T02:21:26+00:00,8.9795391559601,5,Stim_A.csv,Item.csv,Item,A,dentist,,D7,,,56,JOL,User,1.25,"How likely are you to correctly recall the second item in the pair?|Type your response on a scale from 0-100 and then press Enter.",Doctor,D7,8293,,,6425,7490,,,,30,1
6509ad3e10014974dfe2f77c,dron1vz9ua,Ex2A_Prolific,1,84,2024-02-28T02:21:29+00:00,2.6552288532257,5,Stim_A.csv,Item.csv,Item,A,medicine,,D8,,,57,JOL,User,1.25,"How likely are you to correctly recall the second item in the pair?|Type your response on a scale from 0-100 and then press Enter.",Doctor,D8,1976,,,1523,1705,,,,40,1
6509ad3e10014974dfe2f77c,dron1vz9ua,Ex2A_Prolific,1,85,2024-02-28T02:21:32+00:00,2.9898159503937,5,Stim_A.csv,Item.csv,Item,A,lawyer,,D9,,,58,JOL,User,1.25,"How likely are you to correctly recall the second item in the pair?|Type your response on a scale from 0-100 and then press Enter.",Doctor,D9,2422,,,1939,2184,,,,20,1
6509ad3e10014974dfe2f77c,dron1vz9ua,Ex2A_Prolific,1,86,2024-02-28T02:21:35+00:00,2.860344171524,5,Stim_A.csv,Item.csv,Item,A,health,,D10,,,59,JOL,User,1.25,"How likely are you to correctly recall the second item in the pair?|Type your response on a scale from 0-100 and then press Enter.",Doctor,D10,2317,,,1906,2064,,,,30,1
6509ad3e10014974dfe2f77c,dron1vz9ua,Ex2A_Prolific,1,87,2024-02-28T02:21:38+00:00,3.3952889442444,5,Stim_A.csv,Item.csv,Item,A,sick,,D11,,,60,JOL,User,1.25,"How likely are you to correctly recall the second item in the pair?|Type your response on a scale from 0-100 and then press Enter.",Doctor,D11,2712,,,1120,2478,,,,35,1
6509ad3e10014974dfe2f77c,dron1vz9ua,Ex2A_Prolific,1,88,2024-02-28T02:21:41+00:00,3.0783500671387,5,Stim_A.csv,Item.csv,Item,A,cure,,D12,,,61,JOL,User,1.25,"How likely are you to correctly recall the second item in the pair?|Type your response on a scale from 0-100 and then press Enter.",Doctor,D12,2506,,,2070,2180,,,,35,1
6509ad3e10014974dfe2f77c,dron1vz9ua,Ex2A_Prolific,1,89,2024-02-28T02:21:50+00:00,8.454521894455,5,Stim_A.csv,Item.csv,Item,A,,,,,,0,Instruct,User,4,"You have completed this section. Please click next.",,Instruct166,7902,,,-1,-1,,,,,1
6509ad3e10014974dfe2f77c,dron1vz9ua,Ex2A_Prolific,1,90,2024-02-28T02:22:20+00:00,30.575181007385,5,Stim_A.csv,Item.csv,Item,A,,,,,,0,FreeRecall,30,30,"Please type as many words as you can that begin with the letter ""R"". The computer will automatically advance to the next screen in 30 seconds.",,FILLER,30004,"Read, reward rewatch retire reap redo revenge repeat red reap redeem rope ",0,1821,29949,0,0,,,1
6509ad3e10014974dfe2f77c,dron1vz9ua,Ex2A_Prolific,1,91,2024-02-28T02:22:26+00:00,5.1965780258179,5,Stim_A.csv,Item.csv,Item,A,,,,,,0,Instruct,User,4,"You have completed this section. Please click next.",,Instruct166,4520,,,-1,-1,,,,,1
6509ad3e10014974dfe2f77c,dron1vz9ua,Ex2A_Prolific,1,92,2024-02-28T02:22:31+00:00,5.1555578708649,5,Stim_A.csv,Item.csv,Item,A,,,,,,0,Instruct,User,4,"You will now complete a memory test for the words you just studied. Please type as many words from the previous list as you can seperated by a comma. Spelling will not count against you and you can recall the words in any order. This test will be timed for one minute, and the computer will automatically advance once time is up. Click next when you are ready to begin.",,Instruct1666,4581,,,-1,-1,,,,,1
6509ad3e10014974dfe2f77c,dron1vz9ua,Ex2A_Prolific,1,93,2024-02-28T02:23:31+00:00,60.630153179169,5,Stim_A.csv,Item.csv,Item,A,,,,,,0,FreeRecall,60,60,"Please type as many words as you can from the previous study list in any order. Please separate each word with a comma. Spelling will not count against you. This screen will automatically advance in one minute.",,RECALL_Test,60003,"physician, medicine, dentist, nurse, surgeon, health, clinic, lawyer, ",0,1006,38281,0,0,,,1
6509ad3e10014974dfe2f77c,dron1vz9ua,Ex2A_Prolific,1,94,2024-02-28T02:23:36+00:00,4.4022278785706,5,Stim_A.csv,Item.csv,Item,A,,,,,,0,Instruct,User,3,"You will now be presented with a new study list. Click next when you are ready to begin.",,NEXT_LIST,3617,,,-1,-1,,,,,1
6509ad3e10014974dfe2f77c,dron1vz9ua,Ex2A_Prolific,1,95,2024-02-28T02:23:39+00:00,3.6313669681549,5,Stim_A.csv,Item.csv,Item,A,fast,,S1,,,62,JOL,User,1.25,"How likely are you to correctly recall the second item in the pair?|Type your response on a scale from 0-100 and then press Enter.",Slow,S1,2767,,,2386,2503,,,,50,1
6509ad3e10014974dfe2f77c,dron1vz9ua,Ex2A_Prolific,1,96,2024-02-28T02:23:42+00:00,2.0826292037964,5,Stim_A.csv,Item.csv,Item,A,snail,,S2,,,63,JOL,User,1.25,"How likely are you to correctly recall the second item in the pair?|Type your response on a scale from 0-100 and then press Enter.",Slow,S2,1520,,,1172,1287,,,,60,1
6509ad3e10014974dfe2f77c,dron1vz9ua,Ex2A_Prolific,1,97,2024-02-28T02:23:43+00:00,1.9180707931519,5,Stim_A.csv,Item.csv,Item,A,turtle,,S3,,,64,JOL,User,1.25,"How likely are you to correctly recall the second item in the pair?|Type your response on a scale from 0-100 and then press Enter.",Slow,S3,1371,,,965,1127,,,,60,1
6509ad3e10014974dfe2f77c,dron1vz9ua,Ex2A_Prolific,1,98,2024-02-28T02:23:45+00:00,1.9244041442871,5,Stim_A.csv,Item.csv,Item,A,sluggish,,S4,,,65,JOL,User,1.25,"How likely are you to correctly recall the second item in the pair?|Type your response on a scale from 0-100 and then press Enter.",Slow,S4,1374,,,958,958,,,,60,1
6509ad3e10014974dfe2f77c,dron1vz9ua,Ex2A_Prolific,1,99,2024-02-28T02:23:48+00:00,2.3715138435364,5,Stim_A.csv,Item.csv,Item,A,quick,,S5,,,66,JOL,User,1.25,"How likely are you to correctly recall the second item in the pair?|Type your response on a scale from 0-100 and then press Enter.",Slow,S5,1683,,,1254,1437,,,,50,1
6509ad3e10014974dfe2f77c,dron1vz9ua,Ex2A_Prolific,1,100,2024-02-28T02:23:52+00:00,4.2848651409149,5,Stim_A.csv,Item.csv,Item,A,molasses,,S6,,,67,JOL,User,1.25,"How likely are you to correctly recall the second item in the pair?|Type your response on a scale from 0-100 and then press Enter.",Slow,S6,3713,,,2565,3475,,,,70,1
6509ad3e10014974dfe2f77c,dron1vz9ua,Ex2A_Prolific,1,101,2024-02-28T02:23:55+00:00,2.4840550422668,5,Stim_A.csv,Item.csv,Item,A,lethargic,,S7,,,68,JOL,User,1.25,"How likely are you to correctly recall the second item in the pair?|Type your response on a scale from 0-100 and then press Enter.",Slow,S7,1881,,,1554,1660,,,,20,1
6509ad3e10014974dfe2f77c,dron1vz9ua,Ex2A_Prolific,1,102,2024-02-28T02:23:57+00:00,2.4562568664551,5,Stim_A.csv,Item.csv,Item,A,speed,,S8,,,69,JOL,User,1.25,"How likely are you to correctly recall the second item in the pair?|Type your response on a scale from 0-100 and then press Enter.",Slow,S8,1883,,,1623,1713,,,,50,1
6509ad3e10014974dfe2f77c,dron1vz9ua,Ex2A_Prolific,1,103,2024-02-28T02:23:59+00:00,2.2104511260986,5,Stim_A.csv,Item.csv,Item,A,delay,,S9,,,70,JOL,User,1.25,"How likely are you to correctly recall the second item in the pair?|Type your response on a scale from 0-100 and then press Enter.",Slow,S9,1658,,,915,1451,,,,50,1
6509ad3e10014974dfe2f77c,dron1vz9ua,Ex2A_Prolific,1,104,2024-02-28T02:24:02+00:00,2.9660060405731,5,Stim_A.csv,Item.csv,Item,A,hesitant,,S10,,,71,JOL,User,1.25,"How likely are you to correctly recall the second item in the pair?|Type your response on a scale from 0-100 and then press Enter.",Slow,S10,2417,,,1242,2231,,,,40,1
6509ad3e10014974dfe2f77c,dron1vz9ua,Ex2A_Prolific,1,105,2024-02-28T02:24:05+00:00,3.3306119441986,5,Stim_A.csv,Item.csv,Item,A,cautious,,S11,,,72,JOL,User,1.25,"How likely are you to correctly recall the second item in the pair?|Type your response on a scale from 0-100 and then press Enter.",Slow,S11,2630,,,2256,2371,,,,20,1
6509ad3e10014974dfe2f77c,dron1vz9ua,Ex2A_Prolific,1,106,2024-02-28T02:24:08+00:00,2.2443029880524,5,Stim_A.csv,Item.csv,Item,A,traffic,,S12,,,73,JOL,User,1.25,"How likely are you to correctly recall the second item in the pair?|Type your response on a scale from 0-100 and then press Enter.",Slow,S12,1711,,,1344,1463,,,,50,1
6509ad3e10014974dfe2f77c,dron1vz9ua,Ex2A_Prolific,1,107,2024-02-28T02:24:09+00:00,1.7434990406036,5,Stim_A.csv,Item.csv,Item,A,,,,,,0,Instruct,User,-,"You have completed this section. Please click next.",,Instruct166,1182,,,-1,-1,,,,,1
6509ad3e10014974dfe2f77c,dron1vz9ua,Ex2A_Prolific,1,108,2024-02-28T02:24:40+00:00,30.595383882523,5,Stim_A.csv,Item.csv,Item,A,,,,,,0,FreeRecall,30,30,"Please type as many words as you can that begin with the letter ""S"". The computer will automatically advance to the next screen in 30 seconds.",,FILLER,30006,"snake super sorry seat Sea-Doo sour secret star spare spar soft simple saggy s",0,1410,29956,0,0,,,1
6509ad3e10014974dfe2f77c,dron1vz9ua,Ex2A_Prolific,1,109,2024-02-28T02:24:46+00:00,6.3626000881195,5,Stim_A.csv,Item.csv,Item,A,,,,,,0,Instruct,User,4,"You have completed this section. Please click next.",,Instruct166,5780,,,-1,-1,,,,,1
6509ad3e10014974dfe2f77c,dron1vz9ua,Ex2A_Prolific,1,110,2024-02-28T02:24:52+00:00,5.1477699279785,5,Stim_A.csv,Item.csv,Item,A,,,,,,0,Instruct,User,4,"You will now complete a memory test for the words you just studied. Please type as many words from the previous list as you can seperated by a comma. Spelling will not count against you and you can recall the words in any order. This test will be timed for one minute, and the computer will automatically advance once time is up. Click next when you are ready to begin.",,Instruct1666,4606,,,-1,-1,,,,,1
6509ad3e10014974dfe2f77c,dron1vz9ua,Ex2A_Prolific,1,111,2024-02-28T02:25:52+00:00,60.587166070938,5,Stim_A.csv,Item.csv,Item,A,,,,,,0,FreeRecall,60,60,"Please type as many words as you can from the previous study list in any order. Please separate each word with a comma. Spelling will not count against you. This screen will automatically advance in one minute.",,RECALL_Test,60004,"fast, sluggish, turtle, snail, lethargic, quick, ",0,524,35818,0,0,,,1
6509ad3e10014974dfe2f77c,dron1vz9ua,Ex2A_Prolific,1,112,2024-02-28T02:26:05+00:00,13.314769029617,5,Stim_A.csv,Item.csv,Item,A,,,,,,0,Instruct,User,3,"You will now be presented with a new study list. Click next when you are ready to begin.",,NEXT_LIST,12664,,,-1,-1,,,,,1
6509ad3e10014974dfe2f77c,dron1vz9ua,Ex2A_Prolific,1,113,2024-02-28T02:26:10+00:00,4.96346783638,5,Stim_A.csv,Item.csv,Item,A,mississippi,,RR1,,,74,JOL,User,1.25,"How likely are you to correctly recall the second item in the pair?|Type your response on a scale from 0-100 and then press Enter.",River,RR1,4108,,,3721,3849,,,,60,1
6509ad3e10014974dfe2f77c,dron1vz9ua,Ex2A_Prolific,1,114,2024-02-28T02:26:13+00:00,2.2617239952087,5,Stim_A.csv,Item.csv,Item,A,creek,,RR2,,,75,JOL,User,1.25,"How likely are you to correctly recall the second item in the pair?|Type your response on a scale from 0-100 and then press Enter.",River,RR2,1716,,,1346,1477,,,,50,1
6509ad3e10014974dfe2f77c,dron1vz9ua,Ex2A_Prolific,1,115,2024-02-28T02:26:15+00:00,2.696084022522,5,Stim_A.csv,Item.csv,Item,A,stream,,RR3,,,76,JOL,User,1.25,"How likely are you to correctly recall the second item in the pair?|Type your response on a scale from 0-100 and then press Enter.",River,RR3,2006,,,1283,1714,,,,50,1
6509ad3e10014974dfe2f77c,dron1vz9ua,Ex2A_Prolific,1,116,2024-02-28T02:26:22+00:00,6.9629590511322,5,Stim_A.csv,Item.csv,Item,A,flow,,RR4,,,77,JOL,User,1.25,"How likely are you to correctly recall the second item in the pair?|Type your response on a scale from 0-100 and then press Enter.",River,RR4,6381,,,2013,2503,,,,50,1
6509ad3e10014974dfe2f77c,dron1vz9ua,Ex2A_Prolific,1,117,2024-02-28T02:26:25+00:00,2.7486670017242,5,Stim_A.csv,Item.csv,Item,A,bridge,,RR5,,,78,JOL,User,1.25,"How likely are you to correctly recall the second item in the pair?|Type your response on a scale from 0-100 and then press Enter.",River,RR5,2139,,,1797,1874,,,,60,1
6509ad3e10014974dfe2f77c,dron1vz9ua,Ex2A_Prolific,1,118,2024-02-28T02:26:28+00:00,2.8868970870972,5,Stim_A.csv,Item.csv,Item,A,brook,,RR6,,,79,JOL,User,1.25,"How likely are you to correctly recall the second item in the pair?|Type your response on a scale from 0-100 and then press Enter.",River,RR6,2324,,,2017,2099,,,,40,1
6509ad3e10014974dfe2f77c,dron1vz9ua,Ex2A_Prolific,1,119,2024-02-28T02:26:30+00:00,2.1400330066681,5,Stim_A.csv,Item.csv,Item,A,lake,,RR7,,,80,JOL,User,1.25,"How likely are you to correctly recall the second item in the pair?|Type your response on a scale from 0-100 and then press Enter.",River,RR7,1582,,,1179,1275,,,,60,1
6509ad3e10014974dfe2f77c,dron1vz9ua,Ex2A_Prolific,1,120,2024-02-28T02:26:32+00:00,2.2618269920349,5,Stim_A.csv,Item.csv,Item,A,barge,,RR8,,,81,JOL,User,1.25,"How likely are you to correctly recall the second item in the pair?|Type your response on a scale from 0-100 and then press Enter.",River,RR8,1538,,,1175,1279,,,,50,1
6509ad3e10014974dfe2f77c,dron1vz9ua,Ex2A_Prolific,1,121,2024-02-28T02:26:39+00:00,6.3754198551178,5,Stim_A.csv,Item.csv,Item,A,water,,RR9,,,82,JOL,User,1.25,"How likely are you to correctly recall the second item in the pair?|Type your response on a scale from 0-100 and then press Enter.",River,RR9,5817,,,5502,5588,,,,60,1
6509ad3e10014974dfe2f77c,dron1vz9ua,Ex2A_Prolific,1,122,2024-02-28T02:26:41+00:00,1.9247181415558,5,Stim_A.csv,Item.csv,Item,A,boat,,RR10,,,83,JOL,User,1.25,"How likely are you to correctly recall the second item in the pair?|Type your response on a scale from 0-100 and then press Enter.",River,RR10,1357,,,1017,1131,,,,60,1
6509ad3e10014974dfe2f77c,dron1vz9ua,Ex2A_Prolific,1,123,2024-02-28T02:26:43+00:00,2.3777358531952,5,Stim_A.csv,Item.csv,Item,A,tide,,RR11,,,84,JOL,User,1.25,"How likely are you to correctly recall the second item in the pair?|Type your response on a scale from 0-100 and then press Enter.",River,RR11,1837,,,1517,1617,,,,50,1
6509ad3e10014974dfe2f77c,dron1vz9ua,Ex2A_Prolific,1,124,2024-02-28T02:26:46+00:00,2.8258411884308,5,Stim_A.csv,Item.csv,Item,A,swim,,RR12,,,85,JOL,User,1.25,"How likely are you to correctly recall the second item in the pair?|Type your response on a scale from 0-100 and then press Enter.",River,RR12,2252,,,742,818,,,,40,1
6509ad3e10014974dfe2f77c,dron1vz9ua,Ex2A_Prolific,1,125,2024-02-28T02:26:53+00:00,7.1973218917847,5,Stim_A.csv,Item.csv,Item,A,,,,,,0,Instruct,User,4,"You have completed this section. Please click next.",,Instruct166,6546,,,-1,-1,,,,,1
6509ad3e10014974dfe2f77c,dron1vz9ua,Ex2A_Prolific,1,126,2024-02-28T02:27:24+00:00,30.594023942947,5,Stim_A.csv,Item.csv,Item,A,,,,,,0,FreeRecall,30,30,"Please type as many words as you can that begin with the letter ""N"". The computer will automatically advance to the next screen in 30 seconds.",,FILLER,30005,"noise never nope neat nature nourish nape naked nude n",0,4465,25544,0,0,,,1
6509ad3e10014974dfe2f77c,dron1vz9ua,Ex2A_Prolific,1,127,2024-02-28T02:27:33+00:00,8.8200719356537,5,Stim_A.csv,Item.csv,Item,A,,,,,,0,Instruct,User,4,"You have completed this section. Please click next.",,Instruct166,8171,,,-1,-1,,,,,1
6509ad3e10014974dfe2f77c,dron1vz9ua,Ex2A_Prolific,1,128,2024-02-28T02:27:38+00:00,5.063511133194,5,Stim_A.csv,Item.csv,Item,A,,,,,,0,Instruct,User,4,"You will now complete a memory test for the words you just studied. Please type as many words from the previous list as you can seperated by a comma. Spelling will not count against you and you can recall the words in any order. This test will be timed for one minute, and the computer will automatically advance once time is up. Click next when you are ready to begin.",,Instruct1666,4500,,,-1,-1,,,,,1
6509ad3e10014974dfe2f77c,dron1vz9ua,Ex2A_Prolific,1,129,2024-02-28T02:28:38+00:00,60.653703927994,5,Stim_A.csv,Item.csv,Item,A,,,,,,0,FreeRecall,60,60,"Please type as many words as you can from the previous study list in any order. Please separate each word with a comma. Spelling will not count against you. This screen will automatically advance in one minute.",,RECALL_Test,60008,"river, creek, water, boat, barge, bridge, ",0,7862,20641,0,0,,,1
6509ad3e10014974dfe2f77c,dron1vz9ua,Ex2A_Prolific,1,130,2024-02-28T02:28:50+00:00,12.277999162674,5,Stim_A.csv,Item.csv,Item,A,,,,,,0,Instruct,User,3,"You will now be presented with a new study list. Click next when you are ready to begin.",,NEXT_LIST,11607,,,-1,-1,,,,,1
6509ad3e10014974dfe2f77c,dron1vz9ua,Ex2A_Prolific,1,131,2024-02-28T02:28:56+00:00,5.1507248878479,5,Stim_A.csv,Item.csv,Item,A,rye,,B1,,,86,JOL,User,1.25,"How likely are you to correctly recall the second item in the pair?|Type your response on a scale from 0-100 and then press Enter.",Bread,B1,4549,,,3129,3293,,,,30,1
6509ad3e10014974dfe2f77c,dron1vz9ua,Ex2A_Prolific,1,132,2024-02-28T02:29:03+00:00,7.3378219604492,5,Stim_A.csv,Item.csv,Item,A,loaf,,B2,,,87,JOL,User,1.25,"How likely are you to correctly recall the second item in the pair?|Type your response on a scale from 0-100 and then press Enter.",Bread,B2,6763,,,6355,6449,,,,50,1
6509ad3e10014974dfe2f77c,dron1vz9ua,Ex2A_Prolific,1,133,2024-02-28T02:29:12+00:00,9.4560661315918,5,Stim_A.csv,Item.csv,Item,A,butter,,B3,,,88,JOL,User,1.25,"How likely are you to correctly recall the second item in the pair?|Type your response on a scale from 0-100 and then press Enter.",Bread,B3,8757,,,8120,8304,,,,60,1
6509ad3e10014974dfe2f77c,dron1vz9ua,Ex2A_Prolific,1,134,2024-02-28T02:29:15+00:00,2.6284668445587,5,Stim_A.csv,Item.csv,Item,A,toast,,B4,,,89,JOL,User,1.25,"How likely are you to correctly recall the second item in the pair?|Type your response on a scale from 0-100 and then press Enter.",Bread,B4,2023,,,853,1030,,,,60,1
6509ad3e10014974dfe2f77c,dron1vz9ua,Ex2A_Prolific,1,135,2024-02-28T02:29:17+00:00,1.8669941425323,5,Stim_A.csv,Item.csv,Item,A,dough,,B5,,,90,JOL,User,1.25,"How likely are you to correctly recall the second item in the pair?|Type your response on a scale from 0-100 and then press Enter.",Bread,B5,1314,,,978,1076,,,,50,1
6509ad3e10014974dfe2f77c,dron1vz9ua,Ex2A_Prolific,1,136,2024-02-28T02:29:19+00:00,1.8193299770355,5,Stim_A.csv,Item.csv,Item,A,crust,,B6,,,91,JOL,User,1.25,"How likely are you to correctly recall the second item in the pair?|Type your response on a scale from 0-100 and then press Enter.",Bread,B6,1277,,,821,984,,,,30,1
6509ad3e10014974dfe2f77c,dron1vz9ua,Ex2A_Prolific,1,137,2024-02-28T02:29:23+00:00,3.8259649276733,5,Stim_A.csv,Item.csv,Item,A,flour,,B7,,,92,JOL,User,1.25,"How likely are you to correctly recall the second item in the pair?|Type your response on a scale from 0-100 and then press Enter.",Bread,B7,3149,,,2763,3001,,,,45,1
6509ad3e10014974dfe2f77c,dron1vz9ua,Ex2A_Prolific,1,138,2024-02-28T02:29:25+00:00,2.7230350971222,5,Stim_A.csv,Item.csv,Item,A,sandwich,,B8,,,93,JOL,User,1.25,"How likely are you to correctly recall the second item in the pair?|Type your response on a scale from 0-100 and then press Enter.",Bread,B8,2168,,,1823,1944,,,,60,1
6509ad3e10014974dfe2f77c,dron1vz9ua,Ex2A_Prolific,1,139,2024-02-28T02:29:28+00:00,3.1157138347626,5,Stim_A.csv,Item.csv,Item,A,jam,,B9,,,94,JOL,User,1.25,"How likely are you to correctly recall the second item in the pair?|Type your response on a scale from 0-100 and then press Enter.",Bread,B9,2369,,,1065,2172,,,,70,1
6509ad3e10014974dfe2f77c,dron1vz9ua,Ex2A_Prolific,1,140,2024-02-28T02:29:33+00:00,4.140200138092,5,Stim_A.csv,Item.csv,Item,A,jelly,,B10,,,95,JOL,User,1.25,"How likely are you to correctly recall the second item in the pair?|Type your response on a scale from 0-100 and then press Enter.",Bread,B10,3602,,,3334,3420,,,,70,1
6509ad3e10014974dfe2f77c,dron1vz9ua,Ex2A_Prolific,1,141,2024-02-28T02:29:35+00:00,2.4197750091553,5,Stim_A.csv,Item.csv,Item,A,slice,,B11,,,96,JOL,User,1.25,"How likely are you to correctly recall the second item in the pair?|Type your response on a scale from 0-100 and then press Enter.",Bread,B11,1840,,,1547,1636,,,,30,1
6509ad3e10014974dfe2f77c,dron1vz9ua,Ex2A_Prolific,1,142,2024-02-28T02:29:38+00:00,3.0302789211273,5,Stim_A.csv,Item.csv,Item,A,milk,,B12,,,97,JOL,User,1.25,"How likely are you to correctly recall the second item in the pair?|Type your response on a scale from 0-100 and then press Enter.",Bread,B12,2455,,,2110,2225,,,,20,1
6509ad3e10014974dfe2f77c,dron1vz9ua,Ex2A_Prolific,1,143,2024-02-28T02:29:40+00:00,1.7368221282959,5,Stim_A.csv,Item.csv,Item,A,,,,,,0,Instruct,User,-,"You have completed this section. Please click next.",,Instruct166,1065,,,-1,-1,,,,,1
6509ad3e10014974dfe2f77c,dron1vz9ua,Ex2A_Prolific,1,144,2024-02-28T02:30:10+00:00,30.622715950012,5,Stim_A.csv,Item.csv,Item,A,,,,,,0,FreeRecall,30,30,"Please type as many words as you can that begin with the letter ""K"". The computer will automatically advance to the next screen in 30 seconds.",,FILLER,30004,"kick kite kicker kind kid k",0,2091,25859,0,0,,,1
6509ad3e10014974dfe2f77c,dron1vz9ua,Ex2A_Prolific,1,145,2024-02-28T02:30:19+00:00,8.8977780342102,5,Stim_A.csv,Item.csv,Item,A,,,,,,0,Instruct,User,-,"You have completed this section. Please click next.",,Instruct166,8232,,,-1,-1,,,,,1
6509ad3e10014974dfe2f77c,dron1vz9ua,Ex2A_Prolific,1,146,2024-02-28T02:30:24+00:00,5.0550379753113,5,Stim_A.csv,Item.csv,Item,A,,,,,,0,Instruct,User,4,"You will now complete a memory test for the words you just studied. Please type as many words from the previous list as you can seperated by a comma. Spelling will not count against you and you can recall the words in any order. This test will be timed for one minute, and the computer will automatically advance once time is up. Click next when you are ready to begin.",,Instruct1666,4486,,,-1,-1,,,,,1
6509ad3e10014974dfe2f77c,dron1vz9ua,Ex2A_Prolific,1,147,2024-02-28T02:31:25+00:00,60.590944051743,5,Stim_A.csv,Item.csv,Item,A,,,,,,0,FreeRecall,60,60,"Please type as many words as you can from the previous study list in any order. Please separate each word with a comma. Spelling will not count against you. This screen will automatically advance in one minute.",,RECALL_Test,60005,"rye, toast, bread, dough, jam, jelly, milk, ",0,1059,11595,0,0,,,1
6509ad3e10014974dfe2f77c,dron1vz9ua,Ex2A_Prolific,1,148,2024-02-28T02:31:49+00:00,23.979265928268,5,Stim_A.csv,Item.csv,Item,A,,,,,,0,Instruct,User,3,"You will now be presented with a new study list. Click next when you are ready to begin.",,NEXT_LIST,23256,,,-1,-1,,,,,1
6509ad3e10014974dfe2f77c,dron1vz9ua,Ex2A_Prolific,1,149,2024-02-28T02:31:52+00:00,3.5384230613708,5,Stim_A.csv,Item.csv,Item,A,banner,,F1,,,98,JOL,User,1.25,"How likely are you to correctly recall the second item in the pair?|Type your response on a scale from 0-100 and then press Enter.",Flag,F1,2608,,,2344,2412,,,,30,1
6509ad3e10014974dfe2f77c,dron1vz9ua,Ex2A_Prolific,1,150,2024-02-28T02:31:55+00:00,2.1826829910278,5,Stim_A.csv,Item.csv,Item,A,checkered,,F2,,,99,JOL,User,1.25,"How likely are you to correctly recall the second item in the pair?|Type your response on a scale from 0-100 and then press Enter.",Flag,F2,1645,,,1328,1427,,,,60,1
6509ad3e10014974dfe2f77c,dron1vz9ua,Ex2A_Prolific,1,151,2024-02-28T02:32:01+00:00,6.0199739933014,5,Stim_A.csv,Item.csv,Item,A,american,,F3,,,100,JOL,User,1.25,"How likely are you to correctly recall the second item in the pair?|Type your response on a scale from 0-100 and then press Enter.",Flag,F3,5478,,,5188,5282,,,,50,1
6509ad3e10014974dfe2f77c,dron1vz9ua,Ex2A_Prolific,1,152,2024-02-28T02:32:04+00:00,3.1506719589233,5,Stim_A.csv,Item.csv,Item,A,stripes,,F4,,,101,JOL,User,1.25,"How likely are you to correctly recall the second item in the pair?|Type your response on a scale from 0-100 and then press Enter.",Flag,F4,2572,,,2079,2224,,,,50,1
6509ad3e10014974dfe2f77c,dron1vz9ua,Ex2A_Prolific,1,153,2024-02-28T02:32:06+00:00,2.1919660568237,5,Stim_A.csv,Item.csv,Item,A,pole,,F5,,,102,JOL,User,1.25,"How likely are you to correctly recall the second item in the pair?|Type your response on a scale from 0-100 and then press Enter.",Flag,F5,1454,,,1130,1262,,,,60,1
6509ad3e10014974dfe2f77c,dron1vz9ua,Ex2A_Prolific,1,154,2024-02-28T02:32:08+00:00,1.8864829540253,5,Stim_A.csv,Item.csv,Item,A,anthem,,F6,,,103,JOL,User,1.25,"How likely are you to correctly recall the second item in the pair?|Type your response on a scale from 0-100 and then press Enter.",Flag,F6,1344,,,786,1066,,,,30,1
6509ad3e10014974dfe2f77c,dron1vz9ua,Ex2A_Prolific,1,155,2024-02-28T02:32:11+00:00,3.5497310161591,5,Stim_A.csv,Item.csv,Item,A,emblem,,F7,,,104,JOL,User,1.25,"How likely are you to correctly recall the second item in the pair?|Type your response on a scale from 0-100 and then press Enter.",Flag,F7,3015,,,2424,2593,,,,40,1
6509ad3e10014974dfe2f77c,dron1vz9ua,Ex2A_Prolific,1,156,2024-02-28T02:32:15+00:00,3.171315908432,5,Stim_A.csv,Item.csv,Item,A,national,,F8,,,105,JOL,User,1.25,"How likely are you to correctly recall the second item in the pair?|Type your response on a scale from 0-100 and then press Enter.",Flag,F8,2337,,,1867,1972,,,,30,1
6509ad3e10014974dfe2f77c,dron1vz9ua,Ex2A_Prolific,1,157,2024-02-28T02:32:17+00:00,2.9027390480042,5,Stim_A.csv,Item.csv,Item,A,freedom,,F9,,,106,JOL,User,1.25,"How likely are you to correctly recall the second item in the pair?|Type your response on a scale from 0-100 and then press Enter.",Flag,F9,2351,,,1842,2015,,,,40,1
6509ad3e10014974dfe2f77c,dron1vz9ua,Ex2A_Prolific,1,158,2024-02-28T02:32:24+00:00,6.2311289310455,5,Stim_A.csv,Item.csv,Item,A,symbol,,F10,,,107,JOL,User,1.25,"How likely are you to correctly recall the second item in the pair?|Type your response on a scale from 0-100 and then press Enter.",Flag,F10,5685,,,4212,4414,,,,30,1
6509ad3e10014974dfe2f77c,dron1vz9ua,Ex2A_Prolific,1,159,2024-02-28T02:32:29+00:00,5.249274969101,5,Stim_A.csv,Item.csv,Item,A,wave,,F11,,,108,JOL,User,1.25,"How likely are you to correctly recall the second item in the pair?|Type your response on a scale from 0-100 and then press Enter.",Flag,F11,4674,,,4109,4303,,,,20,1
6509ad3e10014974dfe2f77c,dron1vz9ua,Ex2A_Prolific,1,160,2024-02-28T02:32:37+00:00,8.3239469528198,5,Stim_A.csv,Item.csv,Item,A,stars,,F12,,,109,JOL,User,1.25,"How likely are you to correctly recall the second item in the pair?|Type your response on a scale from 0-100 and then press Enter.",Flag,F12,7679,,,6042,6311,,,,40,1
6509ad3e10014974dfe2f77c,dron1vz9ua,Ex2A_Prolific,1,161,2024-02-28T02:32:42+00:00,4.3072102069855,5,Stim_A.csv,Item.csv,Item,A,,,,,,0,Instruct,User,-,"You have completed this section. Please click next.",,Instruct166,3706,,,-1,-1,,,,,1
6509ad3e10014974dfe2f77c,dron1vz9ua,Ex2A_Prolific,1,162,2024-02-28T02:33:12+00:00,30.652078866959,5,Stim_A.csv,Item.csv,Item,A,,,,,,0,FreeRecall,30,30,"Please type as many words as you can that begin with the letter ""M"". The computer will automatically advance to the next screen in 30 seconds.",,FILLER,30004,"map move migrate moon money misc mature maple make m",0,2585,29985,0,0,,,1
6509ad3e10014974dfe2f77c,dron1vz9ua,Ex2A_Prolific,1,163,2024-02-28T02:33:17+00:00,4.9189629554749,5,Stim_A.csv,Item.csv,Item,A,,,,,,0,Instruct,User,-,"You have completed this section. Please click next.",,Instruct166,4239,,,-1,-1,,,,,1
6509ad3e10014974dfe2f77c,dron1vz9ua,Ex2A_Prolific,1,164,2024-02-28T02:33:28+00:00,10.953108072281,5,Stim_A.csv,Item.csv,Item,A,,,,,,0,Instruct,User,4,"You will now complete a memory test for the words you just studied. Please type as many words from the previous list as you can seperated by a comma. Spelling will not count against you and you can recall the words in any order. This test will be timed for one minute, and the computer will automatically advance once time is up. Click next when you are ready to begin.",,Instruct1666,10405,,,-1,-1,,,,,1
6509ad3e10014974dfe2f77c,dron1vz9ua,Ex2A_Prolific,1,165,2024-02-28T02:34:29+00:00,60.962776899338,5,Stim_A.csv,Item.csv,Item,A,,,,,,0,FreeRecall,60,60,"Please type as many words as you can from the previous study list in any order. Please separate each word with a comma. Spelling will not count against you. This screen will automatically advance in one minute.",,RECALL_Test,60003,"American, anthem, freedom, pole, ",0,1116,7649,0,0,,,1
6509ad3e10014974dfe2f77c,dron1vz9ua,Ex2A_Prolific,1,166,2024-02-28T02:34:34+00:00,4.8650741577148,5,Stim_A.csv,Item.csv,Item,A,,,,,,0,Instruct,User,3,"You will now be presented with a new study list. Click next when you are ready to begin.",,NEXT_LIST,4076,,,-1,-1,,,,,1
6509ad3e10014974dfe2f77c,dron1vz9ua,Ex2A_Prolific,1,167,2024-02-28T02:34:38+00:00,3.7574570178986,5,Stim_A.csv,Item.csv,Item,A,blouse,,SS1,,,110,JOL,User,1.25,"How likely are you to correctly recall the second item in the pair?|Type your response on a scale from 0-100 and then press Enter.",Shirt,SS1,3189,,,2600,2892,,,,20,1
6509ad3e10014974dfe2f77c,dron1vz9ua,Ex2A_Prolific,1,168,2024-02-28T02:34:40+00:00,2.7517240047455,5,Stim_A.csv,Item.csv,Item,A,sleeves,,SS2,,,111,JOL,User,1.25,"How likely are you to correctly recall the second item in the pair?|Type your response on a scale from 0-100 and then press Enter.",Shirt,SS2,2185,,,793,793,,,,20,1
6509ad3e10014974dfe2f77c,dron1vz9ua,Ex2A_Prolific,1,169,2024-02-28T02:34:44+00:00,3.2991058826447,5,Stim_A.csv,Item.csv,Item,A,collar,,SS3,,,112,JOL,User,1.25,"How likely are you to correctly recall the second item in the pair?|Type your response on a scale from 0-100 and then press Enter.",Shirt,SS3,2603,,,1306,2363,,,,30,1
6509ad3e10014974dfe2f77c,dron1vz9ua,Ex2A_Prolific,1,170,2024-02-28T02:34:59+00:00,15.228770017624,5,Stim_A.csv,Item.csv,Item,A,shorts,,SS4,,,113,JOL,User,1.25,"How likely are you to correctly recall the second item in the pair?|Type your response on a scale from 0-100 and then press Enter.",Shirt,SS4,14624,,,14233,14345,,,,30,1
6509ad3e10014974dfe2f77c,dron1vz9ua,Ex2A_Prolific,1,171,2024-02-28T02:35:01+00:00,1.9270980358124,5,Stim_A.csv,Item.csv,Item,A,button,,SS5,,,114,JOL,User,1.25,"How likely are you to correctly recall the second item in the pair?|Type your response on a scale from 0-100 and then press Enter.",Shirt,SS5,1275,,,857,988,,,,40,1
6509ad3e10014974dfe2f77c,dron1vz9ua,Ex2A_Prolific,1,172,2024-02-28T02:35:03+00:00,2.1855208873749,5,Stim_A.csv,Item.csv,Item,A,pants,,SS6,,,115,JOL,User,1.25,"How likely are you to correctly recall the second item in the pair?|Type your response on a scale from 0-100 and then press Enter.",Shirt,SS6,1589,,,1209,1295,,,,50,1
6509ad3e10014974dfe2f77c,dron1vz9ua,Ex2A_Prolific,1,173,2024-02-28T02:35:07+00:00,3.544783115387,5,Stim_A.csv,Item.csv,Item,A,polo,,SS7,,,116,JOL,User,1.25,"How likely are you to correctly recall the second item in the pair?|Type your response on a scale from 0-100 and then press Enter.",Shirt,SS7,2983,,,2530,2682,,,,40,1
6509ad3e10014974dfe2f77c,dron1vz9ua,Ex2A_Prolific,1,174,2024-02-28T02:35:09+00:00,2.4029870033264,5,Stim_A.csv,Item.csv,Item,A,jersey,,SS8,,,117,JOL,User,1.25,"How likely are you to correctly recall the second item in the pair?|Type your response on a scale from 0-100 and then press Enter.",Shirt,SS8,1774,,,895,1037,,,,30,1
6509ad3e10014974dfe2f77c,dron1vz9ua,Ex2A_Prolific,1,175,2024-02-28T02:35:11+00:00,2.3766329288483,5,Stim_A.csv,Item.csv,Item,A,vest,,SS9,,,118,JOL,User,1.25,"How likely are you to correctly recall the second item in the pair?|Type your response on a scale from 0-100 and then press Enter.",Shirt,SS9,1797,,,711,872,,,,30,1
6509ad3e10014974dfe2f77c,dron1vz9ua,Ex2A_Prolific,1,176,2024-02-28T02:35:14+00:00,2.5820350646973,5,Stim_A.csv,Item.csv,Item,A,cuffs,,SS10,,,119,JOL,User,1.25,"How likely are you to correctly recall the second item in the pair?|Type your response on a scale from 0-100 and then press Enter.",Shirt,SS10,2001,,,1579,1738,,,,20,1
6509ad3e10014974dfe2f77c,dron1vz9ua,Ex2A_Prolific,1,177,2024-02-28T02:35:19+00:00,4.812108039856,5,Stim_A.csv,Item.csv,Item,A,tie,,SS11,,,120,JOL,User,1.25,"How likely are you to correctly recall the second item in the pair?|Type your response on a scale from 0-100 and then press Enter.",Shirt,SS11,2156,,,1768,1897,,,,50,1
6509ad3e10014974dfe2f77c,dron1vz9ua,Ex2A_Prolific,1,178,2024-02-28T02:35:22+00:00,2.7254300117493,5,Stim_A.csv,Item.csv,Item,A,pocket,,SS12,,,121,JOL,User,1.25,"How likely are you to correctly recall the second item in the pair?|Type your response on a scale from 0-100 and then press Enter.",Shirt,SS12,1839,,,1451,1565,,,,50,1
6509ad3e10014974dfe2f77c,dron1vz9ua,Ex2A_Prolific,1,179,2024-02-28T02:35:27+00:00,5.1422879695892,5,Stim_A.csv,Item.csv,Item,A,,,,,,0,Instruct,User,4,"You have completed this section. Please click next.",,Instruct166,4489,,,-1,-1,,,,,1
6509ad3e10014974dfe2f77c,dron1vz9ua,Ex2A_Prolific,1,180,2024-02-28T02:35:57+00:00,30.617415904999,5,Stim_A.csv,Item.csv,Item,A,,,,,,0,FreeRecall,30,30,"Please type as many words as you can that begin with the letter ""T"". The computer will automatically advance to the next screen in 30 seconds.",,FILLER,30005,"train tree tourist truck take tower treant toke tar tune tomorrow temper temperature t",0,1507,29494,0,0,,,1
6509ad3e10014974dfe2f77c,dron1vz9ua,Ex2A_Prolific,1,181,2024-02-28T02:36:01+00:00,3.2741210460663,5,Stim_A.csv,Item.csv,Item,A,,,,,,0,Instruct,User,-,"You have completed this section. Please click next.",,Instruct166,2629,,,-1,-1,,,,,1
6509ad3e10014974dfe2f77c,dron1vz9ua,Ex2A_Prolific,1,182,2024-02-28T02:36:09+00:00,8.1019179821014,5,Stim_A.csv,Item.csv,Item,A,,,,,,0,Instruct,User,4,"You will now complete a memory test for the words you just studied. Please type as many words from the previous list as you can seperated by a comma. Spelling will not count against you and you can recall the words in any order. This test will be timed for one minute, and the computer will automatically advance once time is up. Click next when you are ready to begin.",,Instruct1666,7454,,,-1,-1,,,,,1
6509ad3e10014974dfe2f77c,dron1vz9ua,Ex2A_Prolific,1,183,2024-02-28T02:37:09+00:00,60.71199798584,5,Stim_A.csv,Item.csv,Item,A,,,,,,0,FreeRecall,60,60,"Please type as many words as you can from the previous study list in any order. Please separate each word with a comma. Spelling will not count against you. This screen will automatically advance in one minute.",,RECALL_Test,60005,"blouse, pants, button, tye, pocket, collar, shirt, ",0,1002,17407,0,0,,,1
6509ad3e10014974dfe2f77c,dron1vz9ua,Ex2A_Prolific,1,184,2024-02-28T02:37:16+00:00,6.6674361228943,5,Stim_A.csv,Item.csv,Item,A,,,,,,0,Instruct,User,-,"You have completed this section. Please click next.",,Instruct7,5852,,,-1,-1,,,,,1
6509ad3e10014974dfe2f77c,dron1vz9ua,Ex2A_Prolific,1,185,2024-02-28T02:37:21+00:00,4.9613809585571,5,Stim_A.csv,Item.csv,Item,A,,,,,,0,Instruct,User,-,"The following screen will ask you a few questions abour your experience today. You must complete these questions to receive credit.",,Instruct8,4398,,,-1,-1,,,,,1
