Username,ID,ExperimentName,Session,Trial,Date,TimeDif,"Condition Number","Stimuli File","Order File","Condition Description","Condition Notes",Stimuli*Cue,Stimuli*Answer,Stimuli*Shuffle,"Stimuli*Stimuli Notes",Stimuli*Value,Procedure*Item,"Procedure*Trial Type","Procedure*Max Time","Procedure*Min Time",Procedure*Text,"Procedure*Procedure Notes",Procedure*Shuffle,Response*RT,Response*Response,Response*Accuracy,Response*RTfirst,Response*RTlast,Response*strictAcc,Response*lenientAcc,Response*focus,Response*JOL,Response*Focus
653913f75c3b77d3bf034279,33kie8hwsc,Ex2A_Prolific,1,1,2024-02-28T22:18:57+00:00,6.8454899787903,5,Stim_A.csv,Item.csv,Item,A,,,,,,0,Instruct,-,5,"In this section, you will be presented with a series of words. Please study each word carefully. Your memory will be tested!",Initial_Instruct,Instruct1,6427,,,-1,-1,,,,,1
653913f75c3b77d3bf034279,33kie8hwsc,Ex2A_Prolific,1,2,2024-02-28T22:19:03+00:00,6.0548651218414,5,Stim_A.csv,Item.csv,Item,A,,,,,,0,Instruct,-,5,"As you study, you will be asked to rate your ability to remember each item on a later memory test using a 0-100 scale. For example, if you study the word DOG, a rating of 0 indicates that you would not remember DOG at test, while a rating of 100 indicates full certainty that you would remember the word DOG at test.",,Instruct13,5502,,,-1,-1,,,,,1
653913f75c3b77d3bf034279,33kie8hwsc,Ex2A_Prolific,1,3,2024-02-28T22:19:15+00:00,11.673040866852,5,Stim_A.csv,Item.csv,Item,A,,,,,,0,Instruct,-,10,"When making your ratings, it is criticial that you use the full range of the scale. You will be disqualified for only giving ratings of 0 or 100!",,Instruct15,10987,,,-1,-1,,,,,1
653913f75c3b77d3bf034279,33kie8hwsc,Ex2A_Prolific,1,4,2024-02-28T22:19:17+00:00,1.5533239841461,5,Stim_A.csv,Item.csv,Item,A,,,,,,0,Instruct,User,-,"You will now begin the study. Click next when you are ready to begin.",,Instruct16,982,,,-1,-1,,,,,1
653913f75c3b77d3bf034279,33kie8hwsc,Ex2A_Prolific,1,5,2024-02-28T22:19:35+00:00,17.960086107254,5,Stim_A.csv,Item.csv,Item,A,pane,,Win_1,,,2,JOL,User,1.25,"How likely are you to correctly recall the second item in the pair?|Type your response on a scale from 0-100 and then press Enter.",Window,Win_1,17394,,,15507,15723,,,,75,1
653913f75c3b77d3bf034279,33kie8hwsc,Ex2A_Prolific,1,6,2024-02-28T22:19:42+00:00,7.6570258140564,5,Stim_A.csv,Item.csv,Item,A,sill,,Win_2,,,3,JOL,User,1.25,"How likely are you to correctly recall the second item in the pair?|Type your response on a scale from 0-100 and then press Enter.",Window,Win_2,7081,,,6431,6504,,,,23,1
653913f75c3b77d3bf034279,33kie8hwsc,Ex2A_Prolific,1,7,2024-02-28T22:19:50+00:00,7.4815630912781,5,Stim_A.csv,Item.csv,Item,A,shutter,,Win_3,,,4,JOL,User,1.25,"How likely are you to correctly recall the second item in the pair?|Type your response on a scale from 0-100 and then press Enter.",Window,Win_3,6922,,,5973,6059,,,,80,1
653913f75c3b77d3bf034279,33kie8hwsc,Ex2A_Prolific,1,8,2024-02-28T22:19:56+00:00,6.0073490142822,5,Stim_A.csv,Item.csv,Item,A,curtain,,Win_4,,,5,JOL,User,1.25,"How likely are you to correctly recall the second item in the pair?|Type your response on a scale from 0-100 and then press Enter.",Window,Win_4,5378,,,4355,4458,,,,91,1
653913f75c3b77d3bf034279,33kie8hwsc,Ex2A_Prolific,1,9,2024-02-28T22:20:00+00:00,3.9905009269714,5,Stim_A.csv,Item.csv,Item,A,door,,Win_5,,,6,JOL,User,1.25,"How likely are you to correctly recall the second item in the pair?|Type your response on a scale from 0-100 and then press Enter.",Window,Win_5,3453,,,2615,2740,,,,95,1
653913f75c3b77d3bf034279,33kie8hwsc,Ex2A_Prolific,1,10,2024-02-28T22:20:05+00:00,5.6859290599823,5,Stim_A.csv,Item.csv,Item,A,ledge,,Win_6,,,7,JOL,User,1.25,"How likely are you to correctly recall the second item in the pair?|Type your response on a scale from 0-100 and then press Enter.",Window,Win_6,5120,,,3853,4128,,,,60,1
653913f75c3b77d3bf034279,33kie8hwsc,Ex2A_Prolific,1,11,2024-02-28T22:20:10+00:00,4.5185859203339,5,Stim_A.csv,Item.csv,Item,A,glass,,Win_7,,,8,JOL,User,1.25,"How likely are you to correctly recall the second item in the pair?|Type your response on a scale from 0-100 and then press Enter.",Window,Win_7,3980,,,2814,2937,,,,77,1
653913f75c3b77d3bf034279,33kie8hwsc,Ex2A_Prolific,1,12,2024-02-28T22:20:17+00:00,7.3078219890594,5,Stim_A.csv,Item.csv,Item,A,view,,Win_8,,,9,JOL,User,1.25,"How likely are you to correctly recall the second item in the pair?|Type your response on a scale from 0-100 and then press Enter.",Window,Win_8,6412,,,4725,5262,,,,65,1
653913f75c3b77d3bf034279,33kie8hwsc,Ex2A_Prolific,1,13,2024-02-28T22:20:22+00:00,4.7479231357574,5,Stim_A.csv,Item.csv,Item,A,screen,,Win_9,,,10,JOL,User,1.25,"How likely are you to correctly recall the second item in the pair?|Type your response on a scale from 0-100 and then press Enter.",Window,Win_9,4196,,,2972,3211,,,,40,1
653913f75c3b77d3bf034279,33kie8hwsc,Ex2A_Prolific,1,14,2024-02-28T22:20:27+00:00,5.1761410236359,5,Stim_A.csv,Item.csv,Item,A,shade,,Win_10,,,11,JOL,User,1.25,"How likely are you to correctly recall the second item in the pair?|Type your response on a scale from 0-100 and then press Enter.",Window,Win_10,4630,,,3599,3699,,,,35,1
653913f75c3b77d3bf034279,33kie8hwsc,Ex2A_Prolific,1,15,2024-02-28T22:20:33+00:00,5.9833159446716,5,Stim_A.csv,Item.csv,Item,A,open,,Win_11,,,12,JOL,User,1.25,"How likely are you to correctly recall the second item in the pair?|Type your response on a scale from 0-100 and then press Enter.",Window,Win_11,5436,,,4554,4613,,,,45,1
653913f75c3b77d3bf034279,33kie8hwsc,Ex2A_Prolific,1,16,2024-02-28T22:20:41+00:00,7.6283280849457,5,Stim_A.csv,Item.csv,Item,A,frame,,Win_12,,,13,JOL,User,1.25,"How likely are you to correctly recall the second item in the pair?|Type your response on a scale from 0-100 and then press Enter.",Window,Win_12,7080,,,5965,6127,,,,78,1
653913f75c3b77d3bf034279,33kie8hwsc,Ex2A_Prolific,1,17,2024-02-28T22:20:46+00:00,5.1901960372925,5,Stim_A.csv,Item.csv,Item,A,,,,,,0,Instruct,User,4,"You have completed this section. Please click next.",,Instruct166,4663,,,-1,-1,,,,,1
653913f75c3b77d3bf034279,33kie8hwsc,Ex2A_Prolific,1,18,2024-02-28T22:21:17+00:00,30.596357822418,5,Stim_A.csv,Item.csv,Item,A,,,,,,0,FreeRecall,30,30,"Please type as many words as you can that begin with the letter ""S"". The computer will automatically advance to the next screen in 30 seconds.",,FILLER,30003,"screen sill smoke shadow soft sympathy sit sedge silo submit ",0,4488,27883,0,0,,,1
653913f75c3b77d3bf034279,33kie8hwsc,Ex2A_Prolific,1,19,2024-02-28T22:21:19+00:00,2.4085681438446,5,Stim_A.csv,Item.csv,Item,A,,,,,,0,Instruct,User,-,"You have completed this section. Please click next.",,Instruct166,1832,,,-1,-1,,,,,1
653913f75c3b77d3bf034279,33kie8hwsc,Ex2A_Prolific,1,20,2024-02-28T22:21:27+00:00,7.8013520240784,5,Stim_A.csv,Item.csv,Item,A,,,,,,0,Instruct,User,4,"You will now complete a memory test for the words you just studied. Please type as many words from the previous list as you can seperated by a comma. Spelling will not count against you and you can recall the words in any order. This test will be timed for one minute, and the computer will automatically advance once time is up. Click next when you are ready to begin.",,Instruct1666,7212,,,-1,-1,,,,,1
653913f75c3b77d3bf034279,33kie8hwsc,Ex2A_Prolific,1,21,2024-02-28T22:22:27+00:00,60.562460899353,5,Stim_A.csv,Item.csv,Item,A,,,,,,0,FreeRecall,60,60,"Please type as many words as you can from the previous study list in any order. Please separate each word with a comma. Spelling will not count against you. This screen will automatically advance in one minute.",,RECALL_Test,60002,"pane, frame, sill, ledge, open, view, glass, curtain, door, screen, ",0,1039,26655,0,0,,,1
653913f75c3b77d3bf034279,33kie8hwsc,Ex2A_Prolific,1,22,2024-02-28T22:22:32+00:00,4.5927910804749,5,Stim_A.csv,Item.csv,Item,A,,,,,,0,Instruct,User,3,"You will now be presented with a new study list. Click next when you are ready to begin.",,NEXT_LIST,3751,,,-1,-1,,,,,1
653913f75c3b77d3bf034279,33kie8hwsc,Ex2A_Prolific,1,23,2024-02-28T22:22:38+00:00,6.0174958705902,5,Stim_A.csv,Item.csv,Item,A,sandpaper,,R1,,,14,JOL,User,1.25,"How likely are you to correctly recall the second item in the pair?|Type your response on a scale from 0-100 and then press Enter.",Rough,R1,5395,,,3030,4663,,,,95,1
653913f75c3b77d3bf034279,33kie8hwsc,Ex2A_Prolific,1,24,2024-02-28T22:22:44+00:00,5.8780801296234,5,Stim_A.csv,Item.csv,Item,A,smooth,,R2,,,15,JOL,User,1.25,"How likely are you to correctly recall the second item in the pair?|Type your response on a scale from 0-100 and then press Enter.",Rough,R2,5334,,,3117,4714,,,,75,1
653913f75c3b77d3bf034279,33kie8hwsc,Ex2A_Prolific,1,25,2024-02-28T22:22:48+00:00,3.845743894577,5,Stim_A.csv,Item.csv,Item,A,coarse,,R3,,,16,JOL,User,1.25,"How likely are you to correctly recall the second item in the pair?|Type your response on a scale from 0-100 and then press Enter.",Rough,R3,3222,,,2351,2406,,,,90,1
653913f75c3b77d3bf034279,33kie8hwsc,Ex2A_Prolific,1,26,2024-02-28T22:22:51+00:00,3.7123141288757,5,Stim_A.csv,Item.csv,Item,A,tough,,R4,,,17,JOL,User,1.25,"How likely are you to correctly recall the second item in the pair?|Type your response on a scale from 0-100 and then press Enter.",Rough,R4,3128,,,1963,1982,,,,80,1
653913f75c3b77d3bf034279,33kie8hwsc,Ex2A_Prolific,1,27,2024-02-28T22:22:55+00:00,3.2418568134308,5,Stim_A.csv,Item.csv,Item,A,rugged,,R5,,,18,JOL,User,1.25,"How likely are you to correctly recall the second item in the pair?|Type your response on a scale from 0-100 and then press Enter.",Rough,R5,2683,,,1744,1848,,,,20,1
653913f75c3b77d3bf034279,33kie8hwsc,Ex2A_Prolific,1,28,2024-02-28T22:22:59+00:00,3.9482791423798,5,Stim_A.csv,Item.csv,Item,A,bumpy,,R6,,,19,JOL,User,1.25,"How likely are you to correctly recall the second item in the pair?|Type your response on a scale from 0-100 and then press Enter.",Rough,R6,3382,,,2229,2280,,,,30,1
653913f75c3b77d3bf034279,33kie8hwsc,Ex2A_Prolific,1,29,2024-02-28T22:23:02+00:00,3.6641309261322,5,Stim_A.csv,Item.csv,Item,A,jagged,,R7,,,20,JOL,User,1.25,"How likely are you to correctly recall the second item in the pair?|Type your response on a scale from 0-100 and then press Enter.",Rough,R7,3119,,,2387,2492,,,,25,1
653913f75c3b77d3bf034279,33kie8hwsc,Ex2A_Prolific,1,30,2024-02-28T22:23:06+00:00,3.4439680576324,5,Stim_A.csv,Item.csv,Item,A,riders,,R8,,,21,JOL,User,1.25,"How likely are you to correctly recall the second item in the pair?|Type your response on a scale from 0-100 and then press Enter.",Rough,R8,2916,,,1821,1941,,,,10,1
653913f75c3b77d3bf034279,33kie8hwsc,Ex2A_Prolific,1,31,2024-02-28T22:23:10+00:00,4.0018939971924,5,Stim_A.csv,Item.csv,Item,A,uneven,,R9,,,22,JOL,User,1.25,"How likely are you to correctly recall the second item in the pair?|Type your response on a scale from 0-100 and then press Enter.",Rough,R9,3423,,,1932,2068,,,,50,1
653913f75c3b77d3bf034279,33kie8hwsc,Ex2A_Prolific,1,32,2024-02-28T22:23:16+00:00,6.3703570365906,5,Stim_A.csv,Item.csv,Item,A,road,,R10,,,23,JOL,User,1.25,"How likely are you to correctly recall the second item in the pair?|Type your response on a scale from 0-100 and then press Enter.",Rough,R10,5814,,,4643,4871,,,,60,1
653913f75c3b77d3bf034279,33kie8hwsc,Ex2A_Prolific,1,33,2024-02-28T22:23:21+00:00,4.5557889938354,5,Stim_A.csv,Item.csv,Item,A,ready,,R11,,,24,JOL,User,1.25,"How likely are you to correctly recall the second item in the pair?|Type your response on a scale from 0-100 and then press Enter.",Rough,R11,3993,,,3348,3459,,,,43,1
653913f75c3b77d3bf034279,33kie8hwsc,Ex2A_Prolific,1,34,2024-02-28T22:23:27+00:00,6.0778388977051,5,Stim_A.csv,Item.csv,Item,A,sand,,R12,,,25,JOL,User,1.25,"How likely are you to correctly recall the second item in the pair?|Type your response on a scale from 0-100 and then press Enter.",Rough,R12,5499,,,2182,4788,,,,85,1
653913f75c3b77d3bf034279,33kie8hwsc,Ex2A_Prolific,1,35,2024-02-28T22:23:29+00:00,1.8266220092773,5,Stim_A.csv,Item.csv,Item,A,,,,,,0,Instruct,User,-,"You have completed this section. Please click next.",,Instruct166,1279,,,-1,-1,,,,,1
653913f75c3b77d3bf034279,33kie8hwsc,Ex2A_Prolific,1,36,2024-02-28T22:23:59+00:00,30.547914981842,5,Stim_A.csv,Item.csv,Item,A,,,,,,0,FreeRecall,30,30,"Please type as many words as you can that begin with the letter ""T"". The computer will automatically advance to the next screen in 30 seconds.",,FILLER,30001,"threw though that the throughout tough tin tent true trust tennis team trial",0,1625,29821,0,0,,,1
653913f75c3b77d3bf034279,33kie8hwsc,Ex2A_Prolific,1,37,2024-02-28T22:24:01+00:00,2.1375930309296,5,Stim_A.csv,Item.csv,Item,A,,,,,,0,Instruct,User,-,"You have completed this section. Please click next.",,Instruct166,1509,,,-1,-1,,,,,1
653913f75c3b77d3bf034279,33kie8hwsc,Ex2A_Prolific,1,38,2024-02-28T22:24:06+00:00,5.0362679958344,5,Stim_A.csv,Item.csv,Item,A,,,,,,0,Instruct,User,4,"You will now complete a memory test for the words you just studied. Please type as many words from the previous list as you can seperated by a comma. Spelling will not count against you and you can recall the words in any order. This test will be timed for one minute, and the computer will automatically advance once time is up. Click next when you are ready to begin.",,Instruct1666,4478,,,-1,-1,,,,,1
653913f75c3b77d3bf034279,33kie8hwsc,Ex2A_Prolific,1,39,2024-02-28T22:25:07+00:00,60.509834051132,5,Stim_A.csv,Item.csv,Item,A,,,,,,0,FreeRecall,60,60,"Please type as many words as you can from the previous study list in any order. Please separate each word with a comma. Spelling will not count against you. This screen will automatically advance in one minute.",,RECALL_Test,60002,"sandpaper, sand, rough, smooth, jagged, rugged, ready, road, riders, uneven, coarse",0,735,34131,0,0,,,1
653913f75c3b77d3bf034279,33kie8hwsc,Ex2A_Prolific,1,40,2024-02-28T22:25:15+00:00,7.8832068443298,5,Stim_A.csv,Item.csv,Item,A,,,,,,0,Instruct,User,3,"You will now be presented with a new study list. Click next when you are ready to begin.",,NEXT_LIST,7048,,,-1,-1,,,,,0.81
653913f75c3b77d3bf034279,33kie8hwsc,Ex2A_Prolific,1,41,2024-02-28T22:25:19+00:00,4.6314101219177,5,Stim_A.csv,Item.csv,Item,A,rage,,A1,,,26,JOL,User,1.25,"How likely are you to correctly recall the second item in the pair?|Type your response on a scale from 0-100 and then press Enter.",Anger,A1,4037,,,2851,2992,,,,95,1
653913f75c3b77d3bf034279,33kie8hwsc,Ex2A_Prolific,1,42,2024-02-28T22:25:23+00:00,3.9262890815735,5,Stim_A.csv,Item.csv,Item,A,mad,,A2,,,27,JOL,User,1.25,"How likely are you to correctly recall the second item in the pair?|Type your response on a scale from 0-100 and then press Enter.",Anger,A2,3361,,,2425,2556,,,,60,1
653913f75c3b77d3bf034279,33kie8hwsc,Ex2A_Prolific,1,43,2024-02-28T22:25:28+00:00,4.4510598182678,5,Stim_A.csv,Item.csv,Item,A,enrage,,A3,,,28,JOL,User,1.25,"How likely are you to correctly recall the second item in the pair?|Type your response on a scale from 0-100 and then press Enter.",Anger,A3,3885,,,2467,2986,,,,90,1
653913f75c3b77d3bf034279,33kie8hwsc,Ex2A_Prolific,1,44,2024-02-28T22:25:31+00:00,3.528881072998,5,Stim_A.csv,Item.csv,Item,A,fury,,A4,,,29,JOL,User,1.25,"How likely are you to correctly recall the second item in the pair?|Type your response on a scale from 0-100 and then press Enter.",Anger,A4,2948,,,1898,1989,,,,70,1
653913f75c3b77d3bf034279,33kie8hwsc,Ex2A_Prolific,1,45,2024-02-28T22:25:35+00:00,4.1880149841309,5,Stim_A.csv,Item.csv,Item,A,temper,,A5,,,30,JOL,User,1.25,"How likely are you to correctly recall the second item in the pair?|Type your response on a scale from 0-100 and then press Enter.",Anger,A5,3625,,,2764,2847,,,,50,1
653913f75c3b77d3bf034279,33kie8hwsc,Ex2A_Prolific,1,46,2024-02-28T22:25:40+00:00,4.9997429847717,5,Stim_A.csv,Item.csv,Item,A,ire,,A6,,,31,JOL,User,1.25,"How likely are you to correctly recall the second item in the pair?|Type your response on a scale from 0-100 and then press Enter.",Anger,A6,4444,,,3060,3792,,,,42,1
653913f75c3b77d3bf034279,33kie8hwsc,Ex2A_Prolific,1,47,2024-02-28T22:25:44+00:00,3.2623760700226,5,Stim_A.csv,Item.csv,Item,A,wrath,,A7,,,32,JOL,User,1.25,"How likely are you to correctly recall the second item in the pair?|Type your response on a scale from 0-100 and then press Enter.",Anger,A7,2712,,,1744,1906,,,,40,1
653913f75c3b77d3bf034279,33kie8hwsc,Ex2A_Prolific,1,48,2024-02-28T22:25:47+00:00,3.1516160964966,5,Stim_A.csv,Item.csv,Item,A,mean,,A8,,,33,JOL,User,1.25,"How likely are you to correctly recall the second item in the pair?|Type your response on a scale from 0-100 and then press Enter.",Anger,A8,2603,,,1731,1906,,,,30,1
653913f75c3b77d3bf034279,33kie8hwsc,Ex2A_Prolific,1,49,2024-02-28T22:25:50+00:00,3.554426908493,5,Stim_A.csv,Item.csv,Item,A,hatred,,A9,,,34,JOL,User,1.25,"How likely are you to correctly recall the second item in the pair?|Type your response on a scale from 0-100 and then press Enter.",Anger,A9,2904,,,1512,1649,,,,70,1
653913f75c3b77d3bf034279,33kie8hwsc,Ex2A_Prolific,1,50,2024-02-28T22:25:54+00:00,3.3939890861511,5,Stim_A.csv,Item.csv,Item,A,fight,,A10,,,35,JOL,User,1.25,"How likely are you to correctly recall the second item in the pair?|Type your response on a scale from 0-100 and then press Enter.",Anger,A10,2842,,,1975,2066,,,,50,1
653913f75c3b77d3bf034279,33kie8hwsc,Ex2A_Prolific,1,51,2024-02-28T22:25:59+00:00,5.160059928894,5,Stim_A.csv,Item.csv,Item,A,hate,,A11,,,36,JOL,User,1.25,"How likely are you to correctly recall the second item in the pair?|Type your response on a scale from 0-100 and then press Enter.",Anger,A11,4573,,,2650,3206,,,,75,1
653913f75c3b77d3bf034279,33kie8hwsc,Ex2A_Prolific,1,52,2024-02-28T22:26:03+00:00,3.8740119934082,5,Stim_A.csv,Item.csv,Item,A,fear,,A12,,,37,JOL,User,1.25,"How likely are you to correctly recall the second item in the pair?|Type your response on a scale from 0-100 and then press Enter.",Anger,A12,3291,,,2200,2308,,,,50,1
653913f75c3b77d3bf034279,33kie8hwsc,Ex2A_Prolific,1,53,2024-02-28T22:26:08+00:00,5.5215849876404,5,Stim_A.csv,Item.csv,Item,A,,,,,,0,Instruct,User,4,"You have completed this section. Please click next.",,Instruct166,4949,,,-1,-1,,,,,1
653913f75c3b77d3bf034279,33kie8hwsc,Ex2A_Prolific,1,54,2024-02-28T22:26:39+00:00,30.555103063583,5,Stim_A.csv,Item.csv,Item,A,,,,,,0,FreeRecall,30,30,"Please type as many words as you can that begin with the letter ""L"". The computer will automatically advance to the next screen in 30 seconds.",,FILLER,30002,"loose light life live lean lemon loom liberty leg level",0,1544,29972,0,0,,,1
653913f75c3b77d3bf034279,33kie8hwsc,Ex2A_Prolific,1,55,2024-02-28T22:26:40+00:00,1.6035168170929,5,Stim_A.csv,Item.csv,Item,A,,,,,,0,Instruct,User,-,"You have completed this section. Please click next.",,Instruct166,861,,,-1,-1,,,,,1
653913f75c3b77d3bf034279,33kie8hwsc,Ex2A_Prolific,1,56,2024-02-28T22:26:46+00:00,5.5618090629578,5,Stim_A.csv,Item.csv,Item,A,,,,,,0,Instruct,User,4,"You will now complete a memory test for the words you just studied. Please type as many words from the previous list as you can seperated by a comma. Spelling will not count against you and you can recall the words in any order. This test will be timed for one minute, and the computer will automatically advance once time is up. Click next when you are ready to begin.",,Instruct1666,4978,,,-1,-1,,,,,1
653913f75c3b77d3bf034279,33kie8hwsc,Ex2A_Prolific,1,57,2024-02-28T22:27:47+00:00,61.4212911129,5,Stim_A.csv,Item.csv,Item,A,,,,,,0,FreeRecall,60,60,"Please type as many words as you can from the previous study list in any order. Please separate each word with a comma. Spelling will not count against you. This screen will automatically advance in one minute.",,RECALL_Test,60863,"rage, enrage, temper, wrath, ire, mean, hate, hatred, fury, mad, fear, anger",0,506,30444,0,0,,,0.937
653913f75c3b77d3bf034279,33kie8hwsc,Ex2A_Prolific,1,58,2024-02-28T22:27:52+00:00,4.4937539100647,5,Stim_A.csv,Item.csv,Item,A,,,,,,0,Instruct,User,3,"You will now be presented with a new study list. Click next when you are ready to begin.",,NEXT_LIST,3762,,,-1,-1,,,,,0.636
653913f75c3b77d3bf034279,33kie8hwsc,Ex2A_Prolific,1,59,2024-02-28T22:27:57+00:00,5.1194701194763,5,Stim_A.csv,Item.csv,Item,A,garbage,,T1,,,38,JOL,User,1.25,"How likely are you to correctly recall the second item in the pair?|Type your response on a scale from 0-100 and then press Enter.",Trash,T1,4327,,,3098,3329,,,,90,1
653913f75c3b77d3bf034279,33kie8hwsc,Ex2A_Prolific,1,60,2024-02-28T22:28:01+00:00,3.9450118541718,5,Stim_A.csv,Item.csv,Item,A,rubbish,,T2,,,39,JOL,User,1.25,"How likely are you to correctly recall the second item in the pair?|Type your response on a scale from 0-100 and then press Enter.",Trash,T2,3320,,,2290,2434,,,,90,1
653913f75c3b77d3bf034279,33kie8hwsc,Ex2A_Prolific,1,61,2024-02-28T22:28:04+00:00,2.9311921596527,5,Stim_A.csv,Item.csv,Item,A,debris,,T3,,,40,JOL,User,1.25,"How likely are you to correctly recall the second item in the pair?|Type your response on a scale from 0-100 and then press Enter.",Trash,T3,2405,,,1428,1581,,,,40,1
653913f75c3b77d3bf034279,33kie8hwsc,Ex2A_Prolific,1,62,2024-02-28T22:28:08+00:00,3.7903838157654,5,Stim_A.csv,Item.csv,Item,A,dump,,T4,,,41,JOL,User,1.25,"How likely are you to correctly recall the second item in the pair?|Type your response on a scale from 0-100 and then press Enter.",Trash,T4,3214,,,2271,2454,,,,50,1
653913f75c3b77d3bf034279,33kie8hwsc,Ex2A_Prolific,1,63,2024-02-28T22:28:11+00:00,2.9702241420746,5,Stim_A.csv,Item.csv,Item,A,litter,,T5,,,42,JOL,User,1.25,"How likely are you to correctly recall the second item in the pair?|Type your response on a scale from 0-100 and then press Enter.",Trash,T5,2408,,,1240,1329,,,,70,1
653913f75c3b77d3bf034279,33kie8hwsc,Ex2A_Prolific,1,64,2024-02-28T22:28:14+00:00,3.5217609405518,5,Stim_A.csv,Item.csv,Item,A,landfill,,T6,,,43,JOL,User,1.25,"How likely are you to correctly recall the second item in the pair?|Type your response on a scale from 0-100 and then press Enter.",Trash,T6,2574,,,1857,1948,,,,65,1
653913f75c3b77d3bf034279,33kie8hwsc,Ex2A_Prolific,1,65,2024-02-28T22:28:17+00:00,3.1455190181732,5,Stim_A.csv,Item.csv,Item,A,junk,,T7,,,44,JOL,User,1.25,"How likely are you to correctly recall the second item in the pair?|Type your response on a scale from 0-100 and then press Enter.",Trash,T7,2588,,,1664,1793,,,,70,1
653913f75c3b77d3bf034279,33kie8hwsc,Ex2A_Prolific,1,66,2024-02-28T22:28:20+00:00,3.1307790279388,5,Stim_A.csv,Item.csv,Item,A,waste,,T8,,,45,JOL,User,1.25,"How likely are you to correctly recall the second item in the pair?|Type your response on a scale from 0-100 and then press Enter.",Trash,T8,2576,,,1772,1819,,,,70,1
653913f75c3b77d3bf034279,33kie8hwsc,Ex2A_Prolific,1,67,2024-02-28T22:28:24+00:00,3.6337749958038,5,Stim_A.csv,Item.csv,Item,A,sewage,,T9,,,46,JOL,User,1.25,"How likely are you to correctly recall the second item in the pair?|Type your response on a scale from 0-100 and then press Enter.",Trash,T9,3012,,,2120,2168,,,,50,1
653913f75c3b77d3bf034279,33kie8hwsc,Ex2A_Prolific,1,68,2024-02-28T22:28:28+00:00,3.9159770011902,5,Stim_A.csv,Item.csv,Item,A,pile,,T10,,,47,JOL,User,1.25,"How likely are you to correctly recall the second item in the pair?|Type your response on a scale from 0-100 and then press Enter.",Trash,T10,3121,,,2149,2266,,,,35,1
653913f75c3b77d3bf034279,33kie8hwsc,Ex2A_Prolific,1,69,2024-02-28T22:28:32+00:00,4.3139989376068,5,Stim_A.csv,Item.csv,Item,A,scraps,,T11,,,48,JOL,User,1.25,"How likely are you to correctly recall the second item in the pair?|Type your response on a scale from 0-100 and then press Enter.",Trash,T11,3709,,,1761,2732,,,,30,1
653913f75c3b77d3bf034279,33kie8hwsc,Ex2A_Prolific,1,70,2024-02-28T22:28:36+00:00,4.1399159431458,5,Stim_A.csv,Item.csv,Item,A,refuse,,T12,,,49,JOL,User,1.25,"How likely are you to correctly recall the second item in the pair?|Type your response on a scale from 0-100 and then press Enter.",Trash,T12,3609,,,2765,2816,,,,50,1
653913f75c3b77d3bf034279,33kie8hwsc,Ex2A_Prolific,1,71,2024-02-28T22:28:42+00:00,5.0158410072327,5,Stim_A.csv,Item.csv,Item,A,,,,,,0,Instruct,User,4,"You have completed this section. Please click next.",,Instruct166,4462,,,-1,-1,,,,,1
653913f75c3b77d3bf034279,33kie8hwsc,Ex2A_Prolific,1,72,2024-02-28T22:29:12+00:00,30.554890155792,5,Stim_A.csv,Item.csv,Item,A,,,,,,0,FreeRecall,30,30,"Please type as many words as you can that begin with the letter ""M"". The computer will automatically advance to the next screen in 30 seconds.",,FILLER,30001,"moon mouse middle maximum move motion mean melon make mirror mental m",0,1476,29710,0,0,,,1
653913f75c3b77d3bf034279,33kie8hwsc,Ex2A_Prolific,1,73,2024-02-28T22:29:14+00:00,2.0155198574066,5,Stim_A.csv,Item.csv,Item,A,,,,,,0,Instruct,User,-,"You have completed this section. Please click next.",,Instruct166,1381,,,-1,-1,,,,,1
653913f75c3b77d3bf034279,33kie8hwsc,Ex2A_Prolific,1,74,2024-02-28T22:29:19+00:00,5.3542010784149,5,Stim_A.csv,Item.csv,Item,A,,,,,,0,Instruct,User,4,"You will now complete a memory test for the words you just studied. Please type as many words from the previous list as you can seperated by a comma. Spelling will not count against you and you can recall the words in any order. This test will be timed for one minute, and the computer will automatically advance once time is up. Click next when you are ready to begin.",,Instruct1666,4721,,,-1,-1,,,,,1
653913f75c3b77d3bf034279,33kie8hwsc,Ex2A_Prolific,1,75,2024-02-28T22:30:20+00:00,61.016710996628,5,Stim_A.csv,Item.csv,Item,A,,,,,,0,FreeRecall,60,60,"Please type as many words as you can from the previous study list in any order. Please separate each word with a comma. Spelling will not count against you. This screen will automatically advance in one minute.",,RECALL_Test,60432,"garbage, rubbish, landfill, refuse, litter, waste, junk, pile, scraps, dump",0,532,22890,0,0,,,0.862
653913f75c3b77d3bf034279,33kie8hwsc,Ex2A_Prolific,1,76,2024-02-28T22:30:32+00:00,11.225827932358,5,Stim_A.csv,Item.csv,Item,A,,,,,,0,Instruct,User,3,"You will now be presented with a new study list. Click next when you are ready to begin.",,NEXT_LIST,10307,,,-1,-1,,,,,0.267
653913f75c3b77d3bf034279,33kie8hwsc,Ex2A_Prolific,1,77,2024-02-28T22:30:36+00:00,4.0284569263458,5,Stim_A.csv,Item.csv,Item,A,physician,,D1,,,50,JOL,User,1.25,"How likely are you to correctly recall the second item in the pair?|Type your response on a scale from 0-100 and then press Enter.",Doctor,D1,3337,,,2439,2538,,,,70,1
653913f75c3b77d3bf034279,33kie8hwsc,Ex2A_Prolific,1,78,2024-02-28T22:30:39+00:00,2.9661560058594,5,Stim_A.csv,Item.csv,Item,A,nurse,,D2,,,51,JOL,User,1.25,"How likely are you to correctly recall the second item in the pair?|Type your response on a scale from 0-100 and then press Enter.",Doctor,D2,2376,,,1316,1371,,,,80,1
653913f75c3b77d3bf034279,33kie8hwsc,Ex2A_Prolific,1,79,2024-02-28T22:30:47+00:00,7.8897831439972,5,Stim_A.csv,Item.csv,Item,A,stethoscope,,D3,,,52,JOL,User,1.25,"How likely are you to correctly recall the second item in the pair?|Type your response on a scale from 0-100 and then press Enter.",Doctor,D3,7326,,,4287,5880,,,,30,1
653913f75c3b77d3bf034279,33kie8hwsc,Ex2A_Prolific,1,80,2024-02-28T22:30:50+00:00,3.6175060272217,5,Stim_A.csv,Item.csv,Item,A,surgeon,,D4,,,53,JOL,User,1.25,"How likely are you to correctly recall the second item in the pair?|Type your response on a scale from 0-100 and then press Enter.",Doctor,D4,3062,,,1869,1925,,,,60,1
653913f75c3b77d3bf034279,33kie8hwsc,Ex2A_Prolific,1,81,2024-02-28T22:30:54+00:00,3.9146339893341,5,Stim_A.csv,Item.csv,Item,A,patient,,D5,,,54,JOL,User,1.25,"How likely are you to correctly recall the second item in the pair?|Type your response on a scale from 0-100 and then press Enter.",Doctor,D5,3250,,,2124,2215,,,,40,1
653913f75c3b77d3bf034279,33kie8hwsc,Ex2A_Prolific,1,82,2024-02-28T22:30:58+00:00,3.7860360145569,5,Stim_A.csv,Item.csv,Item,A,clinic,,D6,,,55,JOL,User,1.25,"How likely are you to correctly recall the second item in the pair?|Type your response on a scale from 0-100 and then press Enter.",Doctor,D6,3197,,,1526,1581,,,,80,1
653913f75c3b77d3bf034279,33kie8hwsc,Ex2A_Prolific,1,83,2024-02-28T22:31:01+00:00,3.2379598617554,5,Stim_A.csv,Item.csv,Item,A,dentist,,D7,,,56,JOL,User,1.25,"How likely are you to correctly recall the second item in the pair?|Type your response on a scale from 0-100 and then press Enter.",Doctor,D7,2693,,,1537,1561,,,,80,1
653913f75c3b77d3bf034279,33kie8hwsc,Ex2A_Prolific,1,84,2024-02-28T22:31:05+00:00,3.4620800018311,5,Stim_A.csv,Item.csv,Item,A,medicine,,D8,,,57,JOL,User,1.25,"How likely are you to correctly recall the second item in the pair?|Type your response on a scale from 0-100 and then press Enter.",Doctor,D8,2855,,,1753,1794,,,,90,1
653913f75c3b77d3bf034279,33kie8hwsc,Ex2A_Prolific,1,85,2024-02-28T22:31:11+00:00,6.0189871788025,5,Stim_A.csv,Item.csv,Item,A,lawyer,,D9,,,58,JOL,User,1.25,"How likely are you to correctly recall the second item in the pair?|Type your response on a scale from 0-100 and then press Enter.",Doctor,D9,5444,,,1647,3843,,,,50,1
653913f75c3b77d3bf034279,33kie8hwsc,Ex2A_Prolific,1,86,2024-02-28T22:31:15+00:00,4.7152397632599,5,Stim_A.csv,Item.csv,Item,A,health,,D10,,,59,JOL,User,1.25,"How likely are you to correctly recall the second item in the pair?|Type your response on a scale from 0-100 and then press Enter.",Doctor,D10,3704,,,2350,2600,,,,60,1
653913f75c3b77d3bf034279,33kie8hwsc,Ex2A_Prolific,1,87,2024-02-28T22:31:19+00:00,4.1640040874481,5,Stim_A.csv,Item.csv,Item,A,sick,,D11,,,60,JOL,User,1.25,"How likely are you to correctly recall the second item in the pair?|Type your response on a scale from 0-100 and then press Enter.",Doctor,D11,3590,,,2358,2478,,,,70,1
653913f75c3b77d3bf034279,33kie8hwsc,Ex2A_Prolific,1,88,2024-02-28T22:31:24+00:00,4.2319939136505,5,Stim_A.csv,Item.csv,Item,A,cure,,D12,,,61,JOL,User,1.25,"How likely are you to correctly recall the second item in the pair?|Type your response on a scale from 0-100 and then press Enter.",Doctor,D12,3685,,,1494,2431,,,,75,1
653913f75c3b77d3bf034279,33kie8hwsc,Ex2A_Prolific,1,89,2024-02-28T22:31:26+00:00,1.8255431652069,5,Stim_A.csv,Item.csv,Item,A,,,,,,0,Instruct,User,-,"You have completed this section. Please click next.",,Instruct166,1231,,,-1,-1,,,,,1
653913f75c3b77d3bf034279,33kie8hwsc,Ex2A_Prolific,1,90,2024-02-28T22:31:56+00:00,30.712399959564,5,Stim_A.csv,Item.csv,Item,A,,,,,,0,FreeRecall,30,30,"Please type as many words as you can that begin with the letter ""C"". The computer will automatically advance to the next screen in 30 seconds.",,FILLER,30002,"cool cat crave coven complex cane cede co-operative command credible castigate",0,1247,29842,0,0,,,1
653913f75c3b77d3bf034279,33kie8hwsc,Ex2A_Prolific,1,91,2024-02-28T22:32:02+00:00,5.2785820960999,5,Stim_A.csv,Item.csv,Item,A,,,,,,0,Instruct,User,4,"You have completed this section. Please click next.",,Instruct166,4657,,,-1,-1,,,,,1
653913f75c3b77d3bf034279,33kie8hwsc,Ex2A_Prolific,1,92,2024-02-28T22:32:07+00:00,5.1616959571838,5,Stim_A.csv,Item.csv,Item,A,,,,,,0,Instruct,User,4,"You will now complete a memory test for the words you just studied. Please type as many words from the previous list as you can seperated by a comma. Spelling will not count against you and you can recall the words in any order. This test will be timed for one minute, and the computer will automatically advance once time is up. Click next when you are ready to begin.",,Instruct1666,4560,,,-1,-1,,,,,1
653913f75c3b77d3bf034279,33kie8hwsc,Ex2A_Prolific,1,93,2024-02-28T22:33:07+00:00,60.592607975006,5,Stim_A.csv,Item.csv,Item,A,,,,,,0,FreeRecall,60,60,"Please type as many words as you can from the previous study list in any order. Please separate each word with a comma. Spelling will not count against you. This screen will automatically advance in one minute.",,RECALL_Test,60002,"dentist, surgeon, physician, nurse, health, medicine, cure, clinic, lawyer, ",0,598,16233,0,0,,,1
653913f75c3b77d3bf034279,33kie8hwsc,Ex2A_Prolific,1,94,2024-02-28T22:33:12+00:00,4.7779660224915,5,Stim_A.csv,Item.csv,Item,A,,,,,,0,Instruct,User,3,"You will now be presented with a new study list. Click next when you are ready to begin.",,NEXT_LIST,3827,,,-1,-1,,,,,1
653913f75c3b77d3bf034279,33kie8hwsc,Ex2A_Prolific,1,95,2024-02-28T22:33:18+00:00,6.1356399059296,5,Stim_A.csv,Item.csv,Item,A,fast,,S1,,,62,JOL,User,1.25,"How likely are you to correctly recall the second item in the pair?|Type your response on a scale from 0-100 and then press Enter.",Slow,S1,5470,,,2175,4742,,,,95,1
653913f75c3b77d3bf034279,33kie8hwsc,Ex2A_Prolific,1,96,2024-02-28T22:33:23+00:00,5.1643619537354,5,Stim_A.csv,Item.csv,Item,A,snail,,S2,,,63,JOL,User,1.25,"How likely are you to correctly recall the second item in the pair?|Type your response on a scale from 0-100 and then press Enter.",Slow,S2,4596,,,1790,3713,,,,65,1
653913f75c3b77d3bf034279,33kie8hwsc,Ex2A_Prolific,1,97,2024-02-28T22:33:28+00:00,4.2129981517792,5,Stim_A.csv,Item.csv,Item,A,turtle,,S3,,,64,JOL,User,1.25,"How likely are you to correctly recall the second item in the pair?|Type your response on a scale from 0-100 and then press Enter.",Slow,S3,3651,,,2386,2569,,,,70,1
653913f75c3b77d3bf034279,33kie8hwsc,Ex2A_Prolific,1,98,2024-02-28T22:33:31+00:00,3.8969149589539,5,Stim_A.csv,Item.csv,Item,A,sluggish,,S4,,,65,JOL,User,1.25,"How likely are you to correctly recall the second item in the pair?|Type your response on a scale from 0-100 and then press Enter.",Slow,S4,3328,,,2304,2427,,,,40,1
653913f75c3b77d3bf034279,33kie8hwsc,Ex2A_Prolific,1,99,2024-02-28T22:33:38+00:00,6.7929880619049,5,Stim_A.csv,Item.csv,Item,A,quick,,S5,,,66,JOL,User,1.25,"How likely are you to correctly recall the second item in the pair?|Type your response on a scale from 0-100 and then press Enter.",Slow,S5,6193,,,4265,5151,,,,60,1
653913f75c3b77d3bf034279,33kie8hwsc,Ex2A_Prolific,1,100,2024-02-28T22:33:42+00:00,3.7598149776459,5,Stim_A.csv,Item.csv,Item,A,molasses,,S6,,,67,JOL,User,1.25,"How likely are you to correctly recall the second item in the pair?|Type your response on a scale from 0-100 and then press Enter.",Slow,S6,3195,,,2253,2371,,,,20,1
653913f75c3b77d3bf034279,33kie8hwsc,Ex2A_Prolific,1,101,2024-02-28T22:33:45+00:00,2.8955080509186,5,Stim_A.csv,Item.csv,Item,A,lethargic,,S7,,,68,JOL,User,1.25,"How likely are you to correctly recall the second item in the pair?|Type your response on a scale from 0-100 and then press Enter.",Slow,S7,2356,,,1321,1635,,,,35,1
653913f75c3b77d3bf034279,33kie8hwsc,Ex2A_Prolific,1,102,2024-02-28T22:33:53+00:00,7.7469878196716,5,Stim_A.csv,Item.csv,Item,A,speed,,S8,,,69,JOL,User,1.25,"How likely are you to correctly recall the second item in the pair?|Type your response on a scale from 0-100 and then press Enter.",Slow,S8,7128,,,6279,6355,,,,70,1
653913f75c3b77d3bf034279,33kie8hwsc,Ex2A_Prolific,1,103,2024-02-28T22:33:56+00:00,3.1392731666565,5,Stim_A.csv,Item.csv,Item,A,delay,,S9,,,70,JOL,User,1.25,"How likely are you to correctly recall the second item in the pair?|Type your response on a scale from 0-100 and then press Enter.",Slow,S9,2578,,,1913,1981,,,,35,1
653913f75c3b77d3bf034279,33kie8hwsc,Ex2A_Prolific,1,104,2024-02-28T22:34:00+00:00,3.9121379852295,5,Stim_A.csv,Item.csv,Item,A,hesitant,,S10,,,71,JOL,User,1.25,"How likely are you to correctly recall the second item in the pair?|Type your response on a scale from 0-100 and then press Enter.",Slow,S10,3320,,,2684,2759,,,,25,1
653913f75c3b77d3bf034279,33kie8hwsc,Ex2A_Prolific,1,105,2024-02-28T22:34:04+00:00,4.3366990089417,5,Stim_A.csv,Item.csv,Item,A,cautious,,S11,,,72,JOL,User,1.25,"How likely are you to correctly recall the second item in the pair?|Type your response on a scale from 0-100 and then press Enter.",Slow,S11,3769,,,1592,1708,,,,35,1
653913f75c3b77d3bf034279,33kie8hwsc,Ex2A_Prolific,1,106,2024-02-28T22:34:10+00:00,5.5450778007507,5,Stim_A.csv,Item.csv,Item,A,traffic,,S12,,,73,JOL,User,1.25,"How likely are you to correctly recall the second item in the pair?|Type your response on a scale from 0-100 and then press Enter.",Slow,S12,4968,,,2482,4093,,,,40,1
653913f75c3b77d3bf034279,33kie8hwsc,Ex2A_Prolific,1,107,2024-02-28T22:34:15+00:00,4.9766161441803,5,Stim_A.csv,Item.csv,Item,A,,,,,,0,Instruct,User,4,"You have completed this section. Please click next.",,Instruct166,4421,,,-1,-1,,,,,1
653913f75c3b77d3bf034279,33kie8hwsc,Ex2A_Prolific,1,108,2024-02-28T22:34:45+00:00,30.608665943146,5,Stim_A.csv,Item.csv,Item,A,,,,,,0,FreeRecall,30,30,"Please type as many words as you can that begin with the letter ""M"". The computer will automatically advance to the next screen in 30 seconds.",,FILLER,30001,"microbe medieval minimum modal microphone medicinal modern merry ",0,2103,28479,0,0,,,1
653913f75c3b77d3bf034279,33kie8hwsc,Ex2A_Prolific,1,109,2024-02-28T22:34:47+00:00,2.1312980651855,5,Stim_A.csv,Item.csv,Item,A,,,,,,0,Instruct,User,-,"You have completed this section. Please click next.",,Instruct166,1436,,,-1,-1,,,,,1
653913f75c3b77d3bf034279,33kie8hwsc,Ex2A_Prolific,1,110,2024-02-28T22:34:52+00:00,4.9908759593964,5,Stim_A.csv,Item.csv,Item,A,,,,,,0,Instruct,User,4,"You will now complete a memory test for the words you just studied. Please type as many words from the previous list as you can seperated by a comma. Spelling will not count against you and you can recall the words in any order. This test will be timed for one minute, and the computer will automatically advance once time is up. Click next when you are ready to begin.",,Instruct1666,4415,,,-1,-1,,,,,1
653913f75c3b77d3bf034279,33kie8hwsc,Ex2A_Prolific,1,111,2024-02-28T22:35:54+00:00,61.309365987778,5,Stim_A.csv,Item.csv,Item,A,,,,,,0,FreeRecall,60,60,"Please type as many words as you can from the previous study list in any order. Please separate each word with a comma. Spelling will not count against you. This screen will automatically advance in one minute.",,RECALL_Test,60468,"snail, turtle, sluggish, fast, quick, speed, delay, traffic, molasses, hesitant, cautious, lethargic",0,620,27100,0,0,,,1
653913f75c3b77d3bf034279,33kie8hwsc,Ex2A_Prolific,1,112,2024-02-28T22:36:14+00:00,19.899462938309,5,Stim_A.csv,Item.csv,Item,A,,,,,,0,Instruct,User,3,"You will now be presented with a new study list. Click next when you are ready to begin.",,NEXT_LIST,18958,,,-1,-1,,,,,0.208
653913f75c3b77d3bf034279,33kie8hwsc,Ex2A_Prolific,1,113,2024-02-28T22:36:20+00:00,6.7104811668396,5,Stim_A.csv,Item.csv,Item,A,mississippi,,RR1,,,74,JOL,User,1.25,"How likely are you to correctly recall the second item in the pair?|Type your response on a scale from 0-100 and then press Enter.",River,RR1,6089,,,4338,4506,,,,40,1
653913f75c3b77d3bf034279,33kie8hwsc,Ex2A_Prolific,1,114,2024-02-28T22:36:25+00:00,4.6271839141846,5,Stim_A.csv,Item.csv,Item,A,creek,,RR2,,,75,JOL,User,1.25,"How likely are you to correctly recall the second item in the pair?|Type your response on a scale from 0-100 and then press Enter.",River,RR2,4049,,,3225,3324,,,,60,1
653913f75c3b77d3bf034279,33kie8hwsc,Ex2A_Prolific,1,115,2024-02-28T22:36:28+00:00,3.3236780166626,5,Stim_A.csv,Item.csv,Item,A,stream,,RR3,,,76,JOL,User,1.25,"How likely are you to correctly recall the second item in the pair?|Type your response on a scale from 0-100 and then press Enter.",River,RR3,2768,,,1962,2105,,,,75,1
653913f75c3b77d3bf034279,33kie8hwsc,Ex2A_Prolific,1,116,2024-02-28T22:36:33+00:00,4.8413739204407,5,Stim_A.csv,Item.csv,Item,A,flow,,RR4,,,77,JOL,User,1.25,"How likely are you to correctly recall the second item in the pair?|Type your response on a scale from 0-100 and then press Enter.",River,RR4,4247,,,1213,3370,,,,40,1
653913f75c3b77d3bf034279,33kie8hwsc,Ex2A_Prolific,1,117,2024-02-28T22:36:39+00:00,5.9648189544678,5,Stim_A.csv,Item.csv,Item,A,bridge,,RR5,,,78,JOL,User,1.25,"How likely are you to correctly recall the second item in the pair?|Type your response on a scale from 0-100 and then press Enter.",River,RR5,5389,,,4322,4422,,,,40,1
653913f75c3b77d3bf034279,33kie8hwsc,Ex2A_Prolific,1,118,2024-02-28T22:36:43+00:00,4.0632491111755,5,Stim_A.csv,Item.csv,Item,A,brook,,RR6,,,79,JOL,User,1.25,"How likely are you to correctly recall the second item in the pair?|Type your response on a scale from 0-100 and then press Enter.",River,RR6,3515,,,2536,2820,,,,75,1
653913f75c3b77d3bf034279,33kie8hwsc,Ex2A_Prolific,1,119,2024-02-28T22:36:46+00:00,3.3979890346527,5,Stim_A.csv,Item.csv,Item,A,lake,,RR7,,,80,JOL,User,1.25,"How likely are you to correctly recall the second item in the pair?|Type your response on a scale from 0-100 and then press Enter.",River,RR7,2655,,,1603,1729,,,,70,1
653913f75c3b77d3bf034279,33kie8hwsc,Ex2A_Prolific,1,120,2024-02-28T22:36:49+00:00,3.008318901062,5,Stim_A.csv,Item.csv,Item,A,barge,,RR8,,,81,JOL,User,1.25,"How likely are you to correctly recall the second item in the pair?|Type your response on a scale from 0-100 and then press Enter.",River,RR8,2445,,,1613,1708,,,,30,1
653913f75c3b77d3bf034279,33kie8hwsc,Ex2A_Prolific,1,121,2024-02-28T22:36:56+00:00,6.7723741531372,5,Stim_A.csv,Item.csv,Item,A,water,,RR9,,,82,JOL,User,1.25,"How likely are you to correctly recall the second item in the pair?|Type your response on a scale from 0-100 and then press Enter.",River,RR9,6218,,,2030,5547,,,,80,1
653913f75c3b77d3bf034279,33kie8hwsc,Ex2A_Prolific,1,122,2024-02-28T22:37:01+00:00,5.0857448577881,5,Stim_A.csv,Item.csv,Item,A,boat,,RR10,,,83,JOL,User,1.25,"How likely are you to correctly recall the second item in the pair?|Type your response on a scale from 0-100 and then press Enter.",River,RR10,4541,,,3476,3679,,,,75,1
653913f75c3b77d3bf034279,33kie8hwsc,Ex2A_Prolific,1,123,2024-02-28T22:37:05+00:00,3.8336379528046,5,Stim_A.csv,Item.csv,Item,A,tide,,RR11,,,84,JOL,User,1.25,"How likely are you to correctly recall the second item in the pair?|Type your response on a scale from 0-100 and then press Enter.",River,RR11,3105,,,1711,2002,,,,30,1
653913f75c3b77d3bf034279,33kie8hwsc,Ex2A_Prolific,1,124,2024-02-28T22:37:09+00:00,3.9364080429077,5,Stim_A.csv,Item.csv,Item,A,swim,,RR12,,,85,JOL,User,1.25,"How likely are you to correctly recall the second item in the pair?|Type your response on a scale from 0-100 and then press Enter.",River,RR12,3037,,,1702,1928,,,,40,1
653913f75c3b77d3bf034279,33kie8hwsc,Ex2A_Prolific,1,125,2024-02-28T22:37:14+00:00,5.2815279960632,5,Stim_A.csv,Item.csv,Item,A,,,,,,0,Instruct,User,4,"You have completed this section. Please click next.",,Instruct166,4715,,,-1,-1,,,,,1
653913f75c3b77d3bf034279,33kie8hwsc,Ex2A_Prolific,1,126,2024-02-28T22:37:45+00:00,30.600949048996,5,Stim_A.csv,Item.csv,Item,A,,,,,,0,FreeRecall,30,30,"Please type as many words as you can that begin with the letter ""N"". The computer will automatically advance to the next screen in 30 seconds.",,FILLER,30002,"nail nevermind nearby nuisance nightingale nibble nightmare nitrogen nudge neglect",0,1422,29945,0,0,,,1
653913f75c3b77d3bf034279,33kie8hwsc,Ex2A_Prolific,1,127,2024-02-28T22:37:50+00:00,5.1257019042969,5,Stim_A.csv,Item.csv,Item,A,,,,,,0,Instruct,User,4,"You have completed this section. Please click next.",,Instruct166,4487,,,-1,-1,,,,,1
653913f75c3b77d3bf034279,33kie8hwsc,Ex2A_Prolific,1,128,2024-02-28T22:37:55+00:00,5.0326030254364,5,Stim_A.csv,Item.csv,Item,A,,,,,,0,Instruct,User,4,"You will now complete a memory test for the words you just studied. Please type as many words from the previous list as you can seperated by a comma. Spelling will not count against you and you can recall the words in any order. This test will be timed for one minute, and the computer will automatically advance once time is up. Click next when you are ready to begin.",,Instruct1666,4421,,,-1,-1,,,,,1
653913f75c3b77d3bf034279,33kie8hwsc,Ex2A_Prolific,1,129,2024-02-28T22:38:56+00:00,60.628110170364,5,Stim_A.csv,Item.csv,Item,A,,,,,,0,FreeRecall,60,60,"Please type as many words as you can from the previous study list in any order. Please separate each word with a comma. Spelling will not count against you. This screen will automatically advance in one minute.",,RECALL_Test,60003,"mississipi, flow, stream, creek, brook, lake, water, barge, bridge, swim, ",0,875,24278,0,0,,,1
653913f75c3b77d3bf034279,33kie8hwsc,Ex2A_Prolific,1,130,2024-02-28T22:39:02+00:00,6.5536308288574,5,Stim_A.csv,Item.csv,Item,A,,,,,,0,Instruct,User,3,"You will now be presented with a new study list. Click next when you are ready to begin.",,NEXT_LIST,5437,,,-1,-1,,,,,1
653913f75c3b77d3bf034279,33kie8hwsc,Ex2A_Prolific,1,131,2024-02-28T22:39:10+00:00,7.8868119716644,5,Stim_A.csv,Item.csv,Item,A,rye,,B1,,,86,JOL,User,1.25,"How likely are you to correctly recall the second item in the pair?|Type your response on a scale from 0-100 and then press Enter.",Bread,B1,7231,,,3537,6398,,,,90,1
653913f75c3b77d3bf034279,33kie8hwsc,Ex2A_Prolific,1,132,2024-02-28T22:39:14+00:00,3.5255610942841,5,Stim_A.csv,Item.csv,Item,A,loaf,,B2,,,87,JOL,User,1.25,"How likely are you to correctly recall the second item in the pair?|Type your response on a scale from 0-100 and then press Enter.",Bread,B2,2548,,,1570,1630,,,,90,1
653913f75c3b77d3bf034279,33kie8hwsc,Ex2A_Prolific,1,133,2024-02-28T22:39:17+00:00,3.2146210670471,5,Stim_A.csv,Item.csv,Item,A,butter,,B3,,,88,JOL,User,1.25,"How likely are you to correctly recall the second item in the pair?|Type your response on a scale from 0-100 and then press Enter.",Bread,B3,2661,,,1659,1710,,,,60,1
653913f75c3b77d3bf034279,33kie8hwsc,Ex2A_Prolific,1,134,2024-02-28T22:39:20+00:00,3.0196158885956,5,Stim_A.csv,Item.csv,Item,A,toast,,B4,,,89,JOL,User,1.25,"How likely are you to correctly recall the second item in the pair?|Type your response on a scale from 0-100 and then press Enter.",Bread,B4,2391,,,1441,1543,,,,70,1
653913f75c3b77d3bf034279,33kie8hwsc,Ex2A_Prolific,1,135,2024-02-28T22:39:23+00:00,3.1977951526642,5,Stim_A.csv,Item.csv,Item,A,dough,,B5,,,90,JOL,User,1.25,"How likely are you to correctly recall the second item in the pair?|Type your response on a scale from 0-100 and then press Enter.",Bread,B5,2583,,,1620,2074,,,,65,1
653913f75c3b77d3bf034279,33kie8hwsc,Ex2A_Prolific,1,136,2024-02-28T22:39:30+00:00,6.672022819519,5,Stim_A.csv,Item.csv,Item,A,crust,,B6,,,91,JOL,User,1.25,"How likely are you to correctly recall the second item in the pair?|Type your response on a scale from 0-100 and then press Enter.",Bread,B6,6075,,,4653,5178,,,,45,1
653913f75c3b77d3bf034279,33kie8hwsc,Ex2A_Prolific,1,137,2024-02-28T22:39:35+00:00,5.2676520347595,5,Stim_A.csv,Item.csv,Item,A,flour,,B7,,,92,JOL,User,1.25,"How likely are you to correctly recall the second item in the pair?|Type your response on a scale from 0-100 and then press Enter.",Bread,B7,4690,,,3395,3523,,,,55,1
653913f75c3b77d3bf034279,33kie8hwsc,Ex2A_Prolific,1,138,2024-02-28T22:39:39+00:00,4.354905128479,5,Stim_A.csv,Item.csv,Item,A,sandwich,,B8,,,93,JOL,User,1.25,"How likely are you to correctly recall the second item in the pair?|Type your response on a scale from 0-100 and then press Enter.",Bread,B8,3767,,,1585,2969,,,,40,1
653913f75c3b77d3bf034279,33kie8hwsc,Ex2A_Prolific,1,139,2024-02-28T22:39:44+00:00,4.1576828956604,5,Stim_A.csv,Item.csv,Item,A,jam,,B9,,,94,JOL,User,1.25,"How likely are you to correctly recall the second item in the pair?|Type your response on a scale from 0-100 and then press Enter.",Bread,B9,3583,,,2932,3039,,,,55,1
653913f75c3b77d3bf034279,33kie8hwsc,Ex2A_Prolific,1,140,2024-02-28T22:39:47+00:00,3.6105179786682,5,Stim_A.csv,Item.csv,Item,A,jelly,,B10,,,95,JOL,User,1.25,"How likely are you to correctly recall the second item in the pair?|Type your response on a scale from 0-100 and then press Enter.",Bread,B10,3029,,,1555,1720,,,,20,1
653913f75c3b77d3bf034279,33kie8hwsc,Ex2A_Prolific,1,141,2024-02-28T22:39:51+00:00,3.9196169376373,5,Stim_A.csv,Item.csv,Item,A,slice,,B11,,,96,JOL,User,1.25,"How likely are you to correctly recall the second item in the pair?|Type your response on a scale from 0-100 and then press Enter.",Bread,B11,3320,,,2297,2550,,,,40,1
653913f75c3b77d3bf034279,33kie8hwsc,Ex2A_Prolific,1,142,2024-02-28T22:39:55+00:00,4.2145850658417,5,Stim_A.csv,Item.csv,Item,A,milk,,B12,,,97,JOL,User,1.25,"How likely are you to correctly recall the second item in the pair?|Type your response on a scale from 0-100 and then press Enter.",Bread,B12,3656,,,1722,2213,,,,32,1
653913f75c3b77d3bf034279,33kie8hwsc,Ex2A_Prolific,1,143,2024-02-28T22:40:01+00:00,5.5922009944916,5,Stim_A.csv,Item.csv,Item,A,,,,,,0,Instruct,User,4,"You have completed this section. Please click next.",,Instruct166,5050,,,-1,-1,,,,,1
653913f75c3b77d3bf034279,33kie8hwsc,Ex2A_Prolific,1,144,2024-02-28T22:40:32+00:00,30.584957122803,5,Stim_A.csv,Item.csv,Item,A,,,,,,0,FreeRecall,30,30,"Please type as many words as you can that begin with the letter ""K"". The computer will automatically advance to the next screen in 30 seconds.",,FILLER,30006,"kill kimchi kennel kernel knight kibbutz k",0,1868,29793,0,0,,,1
653913f75c3b77d3bf034279,33kie8hwsc,Ex2A_Prolific,1,145,2024-02-28T22:40:34+00:00,2.5724129676819,5,Stim_A.csv,Item.csv,Item,A,,,,,,0,Instruct,User,-,"You have completed this section. Please click next.",,Instruct166,1804,,,-1,-1,,,,,1
653913f75c3b77d3bf034279,33kie8hwsc,Ex2A_Prolific,1,146,2024-02-28T22:40:39+00:00,5.3712558746338,5,Stim_A.csv,Item.csv,Item,A,,,,,,0,Instruct,User,4,"You will now complete a memory test for the words you just studied. Please type as many words from the previous list as you can seperated by a comma. Spelling will not count against you and you can recall the words in any order. This test will be timed for one minute, and the computer will automatically advance once time is up. Click next when you are ready to begin.",,Instruct1666,4762,,,-1,-1,,,,,1
653913f75c3b77d3bf034279,33kie8hwsc,Ex2A_Prolific,1,147,2024-02-28T22:41:40+00:00,60.577272176743,5,Stim_A.csv,Item.csv,Item,A,,,,,,0,FreeRecall,60,60,"Please type as many words as you can from the previous study list in any order. Please separate each word with a comma. Spelling will not count against you. This screen will automatically advance in one minute.",,RECALL_Test,60004,"rye, loaf, flour, dough, butter, jam, jelly, sandwich, slice, toast, crust, milk",0,975,39123,0,0,,,1
653913f75c3b77d3bf034279,33kie8hwsc,Ex2A_Prolific,1,148,2024-02-28T22:41:45+00:00,4.5461359024048,5,Stim_A.csv,Item.csv,Item,A,,,,,,0,Instruct,User,3,"You will now be presented with a new study list. Click next when you are ready to begin.",,NEXT_LIST,3701,,,-1,-1,,,,,1
653913f75c3b77d3bf034279,33kie8hwsc,Ex2A_Prolific,1,149,2024-02-28T22:41:49+00:00,4.7418630123138,5,Stim_A.csv,Item.csv,Item,A,banner,,F1,,,98,JOL,User,1.25,"How likely are you to correctly recall the second item in the pair?|Type your response on a scale from 0-100 and then press Enter.",Flag,F1,4126,,,2992,3180,,,,90,1
653913f75c3b77d3bf034279,33kie8hwsc,Ex2A_Prolific,1,150,2024-02-28T22:41:53+00:00,4.0347890853882,5,Stim_A.csv,Item.csv,Item,A,checkered,,F2,,,99,JOL,User,1.25,"How likely are you to correctly recall the second item in the pair?|Type your response on a scale from 0-100 and then press Enter.",Flag,F2,3477,,,2393,2476,,,,45,1
653913f75c3b77d3bf034279,33kie8hwsc,Ex2A_Prolific,1,151,2024-02-28T22:41:59+00:00,6.0613849163055,5,Stim_A.csv,Item.csv,Item,A,american,,F3,,,100,JOL,User,1.25,"How likely are you to correctly recall the second item in the pair?|Type your response on a scale from 0-100 and then press Enter.",Flag,F3,5485,,,3269,4361,,,,30,1
653913f75c3b77d3bf034279,33kie8hwsc,Ex2A_Prolific,1,152,2024-02-28T22:42:04+00:00,4.5438179969788,5,Stim_A.csv,Item.csv,Item,A,stripes,,F4,,,101,JOL,User,1.25,"How likely are you to correctly recall the second item in the pair?|Type your response on a scale from 0-100 and then press Enter.",Flag,F4,3966,,,2990,3144,,,,40,1
653913f75c3b77d3bf034279,33kie8hwsc,Ex2A_Prolific,1,153,2024-02-28T22:42:08+00:00,4.5164530277252,5,Stim_A.csv,Item.csv,Item,A,pole,,F5,,,102,JOL,User,1.25,"How likely are you to correctly recall the second item in the pair?|Type your response on a scale from 0-100 and then press Enter.",Flag,F5,3973,,,2571,2995,,,,50,1
653913f75c3b77d3bf034279,33kie8hwsc,Ex2A_Prolific,1,154,2024-02-28T22:42:13+00:00,4.8667058944702,5,Stim_A.csv,Item.csv,Item,A,anthem,,F6,,,103,JOL,User,1.25,"How likely are you to correctly recall the second item in the pair?|Type your response on a scale from 0-100 and then press Enter.",Flag,F6,4322,,,2082,3054,,,,30,1
653913f75c3b77d3bf034279,33kie8hwsc,Ex2A_Prolific,1,155,2024-02-28T22:42:18+00:00,4.1972031593323,5,Stim_A.csv,Item.csv,Item,A,emblem,,F7,,,104,JOL,User,1.25,"How likely are you to correctly recall the second item in the pair?|Type your response on a scale from 0-100 and then press Enter.",Flag,F7,3603,,,2405,2705,,,,20,1
653913f75c3b77d3bf034279,33kie8hwsc,Ex2A_Prolific,1,156,2024-02-28T22:42:22+00:00,4.3030529022217,5,Stim_A.csv,Item.csv,Item,A,national,,F8,,,105,JOL,User,1.25,"How likely are you to correctly recall the second item in the pair?|Type your response on a scale from 0-100 and then press Enter.",Flag,F8,3735,,,2513,2708,,,,60,1
653913f75c3b77d3bf034279,33kie8hwsc,Ex2A_Prolific,1,157,2024-02-28T22:42:27+00:00,5.6152329444885,5,Stim_A.csv,Item.csv,Item,A,freedom,,F9,,,106,JOL,User,1.25,"How likely are you to correctly recall the second item in the pair?|Type your response on a scale from 0-100 and then press Enter.",Flag,F9,5056,,,3635,3910,,,,30,1
653913f75c3b77d3bf034279,33kie8hwsc,Ex2A_Prolific,1,158,2024-02-28T22:42:31+00:00,3.4779350757599,5,Stim_A.csv,Item.csv,Item,A,symbol,,F10,,,107,JOL,User,1.25,"How likely are you to correctly recall the second item in the pair?|Type your response on a scale from 0-100 and then press Enter.",Flag,F10,2930,,,2121,2148,,,,40,1
653913f75c3b77d3bf034279,33kie8hwsc,Ex2A_Prolific,1,159,2024-02-28T22:42:36+00:00,4.7019538879395,5,Stim_A.csv,Item.csv,Item,A,wave,,F11,,,108,JOL,User,1.25,"How likely are you to correctly recall the second item in the pair?|Type your response on a scale from 0-100 and then press Enter.",Flag,F11,4116,,,2306,2365,,,,25,1
653913f75c3b77d3bf034279,33kie8hwsc,Ex2A_Prolific,1,160,2024-02-28T22:42:41+00:00,4.9755551815033,5,Stim_A.csv,Item.csv,Item,A,stars,,F12,,,109,JOL,User,1.25,"How likely are you to correctly recall the second item in the pair?|Type your response on a scale from 0-100 and then press Enter.",Flag,F12,4421,,,3300,3424,,,,60,1
653913f75c3b77d3bf034279,33kie8hwsc,Ex2A_Prolific,1,161,2024-02-28T22:42:46+00:00,5.2524058818817,5,Stim_A.csv,Item.csv,Item,A,,,,,,0,Instruct,User,4,"You have completed this section. Please click next.",,Instruct166,4727,,,-1,-1,,,,,1
653913f75c3b77d3bf034279,33kie8hwsc,Ex2A_Prolific,1,162,2024-02-28T22:43:16+00:00,30.564029932022,5,Stim_A.csv,Item.csv,Item,A,,,,,,0,FreeRecall,30,30,"Please type as many words as you can that begin with the letter ""W"". The computer will automatically advance to the next screen in 30 seconds.",,FILLER,30002,"white wave willow whale without whither whence who what whip whereupon winter weep ",0,1651,28278,0,0,,,1
653913f75c3b77d3bf034279,33kie8hwsc,Ex2A_Prolific,1,163,2024-02-28T22:43:20+00:00,3.1401200294495,5,Stim_A.csv,Item.csv,Item,A,,,,,,0,Instruct,User,-,"You have completed this section. Please click next.",,Instruct166,2357,,,-1,-1,,,,,1
653913f75c3b77d3bf034279,33kie8hwsc,Ex2A_Prolific,1,164,2024-02-28T22:43:25+00:00,5.3365149497986,5,Stim_A.csv,Item.csv,Item,A,,,,,,0,Instruct,User,4,"You will now complete a memory test for the words you just studied. Please type as many words from the previous list as you can seperated by a comma. Spelling will not count against you and you can recall the words in any order. This test will be timed for one minute, and the computer will automatically advance once time is up. Click next when you are ready to begin.",,Instruct1666,4703,,,-1,-1,,,,,1
653913f75c3b77d3bf034279,33kie8hwsc,Ex2A_Prolific,1,165,2024-02-28T22:44:27+00:00,61.582587003708,5,Stim_A.csv,Item.csv,Item,A,,,,,,0,FreeRecall,60,60,"Please type as many words as you can from the previous study list in any order. Please separate each word with a comma. Spelling will not count against you. This screen will automatically advance in one minute.",,RECALL_Test,60972,"symbol, emblem, American, banner, pole, wave, anthem, national, stars, stripes, checkered, freedom",0,536,29503,0,0,,,0.954
653913f75c3b77d3bf034279,33kie8hwsc,Ex2A_Prolific,1,166,2024-02-28T22:44:48+00:00,21.603639125824,5,Stim_A.csv,Item.csv,Item,A,,,,,,0,Instruct,User,3,"You will now be presented with a new study list. Click next when you are ready to begin.",,NEXT_LIST,20940,,,-1,-1,,,,,0.185
653913f75c3b77d3bf034279,33kie8hwsc,Ex2A_Prolific,1,167,2024-02-28T22:44:53+00:00,5.337986946106,5,Stim_A.csv,Item.csv,Item,A,blouse,,SS1,,,110,JOL,User,1.25,"How likely are you to correctly recall the second item in the pair?|Type your response on a scale from 0-100 and then press Enter.",Shirt,SS1,4717,,,2115,3851,,,,90,1
653913f75c3b77d3bf034279,33kie8hwsc,Ex2A_Prolific,1,168,2024-02-28T22:44:57+00:00,3.3802289962769,5,Stim_A.csv,Item.csv,Item,A,sleeves,,SS2,,,111,JOL,User,1.25,"How likely are you to correctly recall the second item in the pair?|Type your response on a scale from 0-100 and then press Enter.",Shirt,SS2,2794,,,1728,1816,,,,80,1
653913f75c3b77d3bf034279,33kie8hwsc,Ex2A_Prolific,1,169,2024-02-28T22:45:00+00:00,3.3041830062866,5,Stim_A.csv,Item.csv,Item,A,collar,,SS3,,,112,JOL,User,1.25,"How likely are you to correctly recall the second item in the pair?|Type your response on a scale from 0-100 and then press Enter.",Shirt,SS3,2535,,,1744,1788,,,,80,1
653913f75c3b77d3bf034279,33kie8hwsc,Ex2A_Prolific,1,170,2024-02-28T22:45:04+00:00,3.825798034668,5,Stim_A.csv,Item.csv,Item,A,shorts,,SS4,,,113,JOL,User,1.25,"How likely are you to correctly recall the second item in the pair?|Type your response on a scale from 0-100 and then press Enter.",Shirt,SS4,3251,,,2136,2175,,,,40,1
653913f75c3b77d3bf034279,33kie8hwsc,Ex2A_Prolific,1,171,2024-02-28T22:45:08+00:00,3.5928530693054,5,Stim_A.csv,Item.csv,Item,A,button,,SS5,,,114,JOL,User,1.25,"How likely are you to correctly recall the second item in the pair?|Type your response on a scale from 0-100 and then press Enter.",Shirt,SS5,3043,,,1875,1941,,,,70,1
653913f75c3b77d3bf034279,33kie8hwsc,Ex2A_Prolific,1,172,2024-02-28T22:45:11+00:00,3.7392568588257,5,Stim_A.csv,Item.csv,Item,A,pants,,SS6,,,115,JOL,User,1.25,"How likely are you to correctly recall the second item in the pair?|Type your response on a scale from 0-100 and then press Enter.",Shirt,SS6,3178,,,2343,2387,,,,50,1
653913f75c3b77d3bf034279,33kie8hwsc,Ex2A_Prolific,1,173,2024-02-28T22:45:17+00:00,5.2156841754913,5,Stim_A.csv,Item.csv,Item,A,polo,,SS7,,,116,JOL,User,1.25,"How likely are you to correctly recall the second item in the pair?|Type your response on a scale from 0-100 and then press Enter.",Shirt,SS7,4652,,,3753,3828,,,,40,1
653913f75c3b77d3bf034279,33kie8hwsc,Ex2A_Prolific,1,174,2024-02-28T22:45:20+00:00,3.7769320011139,5,Stim_A.csv,Item.csv,Item,A,jersey,,SS8,,,117,JOL,User,1.25,"How likely are you to correctly recall the second item in the pair?|Type your response on a scale from 0-100 and then press Enter.",Shirt,SS8,3212,,,2078,2102,,,,35,1
653913f75c3b77d3bf034279,33kie8hwsc,Ex2A_Prolific,1,175,2024-02-28T22:45:24+00:00,4.1024007797241,5,Stim_A.csv,Item.csv,Item,A,vest,,SS9,,,118,JOL,User,1.25,"How likely are you to correctly recall the second item in the pair?|Type your response on a scale from 0-100 and then press Enter.",Shirt,SS9,3537,,,2605,2767,,,,55,1
653913f75c3b77d3bf034279,33kie8hwsc,Ex2A_Prolific,1,176,2024-02-28T22:45:29+00:00,4.5671291351318,5,Stim_A.csv,Item.csv,Item,A,cuffs,,SS10,,,119,JOL,User,1.25,"How likely are you to correctly recall the second item in the pair?|Type your response on a scale from 0-100 and then press Enter.",Shirt,SS10,3994,,,3007,3190,,,,60,1
653913f75c3b77d3bf034279,33kie8hwsc,Ex2A_Prolific,1,177,2024-02-28T22:45:32+00:00,2.8976249694824,5,Stim_A.csv,Item.csv,Item,A,tie,,SS11,,,120,JOL,User,1.25,"How likely are you to correctly recall the second item in the pair?|Type your response on a scale from 0-100 and then press Enter.",Shirt,SS11,2330,,,1534,1618,,,,50,1
653913f75c3b77d3bf034279,33kie8hwsc,Ex2A_Prolific,1,178,2024-02-28T22:45:35+00:00,3.1244750022888,5,Stim_A.csv,Item.csv,Item,A,pocket,,SS12,,,121,JOL,User,1.25,"How likely are you to correctly recall the second item in the pair?|Type your response on a scale from 0-100 and then press Enter.",Shirt,SS12,2562,,,1717,1785,,,,40,1
653913f75c3b77d3bf034279,33kie8hwsc,Ex2A_Prolific,1,179,2024-02-28T22:45:37+00:00,1.6832020282745,5,Stim_A.csv,Item.csv,Item,A,,,,,,0,Instruct,User,-,"You have completed this section. Please click next.",,Instruct166,1089,,,-1,-1,,,,,1
653913f75c3b77d3bf034279,33kie8hwsc,Ex2A_Prolific,1,180,2024-02-28T22:46:07+00:00,30.592510938644,5,Stim_A.csv,Item.csv,Item,A,,,,,,0,FreeRecall,30,30,"Please type as many words as you can that begin with the letter ""R"". The computer will automatically advance to the next screen in 30 seconds.",,FILLER,30003,"revenge rabbit remove righteous right rinse render repose rope rhythm rem",0,1313,29852,0,0,,,1
653913f75c3b77d3bf034279,33kie8hwsc,Ex2A_Prolific,1,181,2024-02-28T22:46:12+00:00,5.2262151241302,5,Stim_A.csv,Item.csv,Item,A,,,,,,0,Instruct,User,4,"You have completed this section. Please click next.",,Instruct166,4474,,,-1,-1,,,,,1
653913f75c3b77d3bf034279,33kie8hwsc,Ex2A_Prolific,1,182,2024-02-28T22:46:18+00:00,5.0477750301361,5,Stim_A.csv,Item.csv,Item,A,,,,,,0,Instruct,User,4,"You will now complete a memory test for the words you just studied. Please type as many words from the previous list as you can seperated by a comma. Spelling will not count against you and you can recall the words in any order. This test will be timed for one minute, and the computer will automatically advance once time is up. Click next when you are ready to begin.",,Instruct1666,4462,,,-1,-1,,,,,1
653913f75c3b77d3bf034279,33kie8hwsc,Ex2A_Prolific,1,183,2024-02-28T22:47:19+00:00,60.999125957489,5,Stim_A.csv,Item.csv,Item,A,,,,,,0,FreeRecall,60,60,"Please type as many words as you can from the previous study list in any order. Please separate each word with a comma. Spelling will not count against you. This screen will automatically advance in one minute.",,RECALL_Test,60457,"blouse, sleeve, collar, cuffs, button, pocket, tie, vest, shorts, pants, polo, jersey",0,507,29792,0,0,,,0.864
653913f75c3b77d3bf034279,33kie8hwsc,Ex2A_Prolific,1,184,2024-02-28T22:47:35+00:00,16.861840009689,5,Stim_A.csv,Item.csv,Item,A,,,,,,0,Instruct,User,-,"You have completed this section. Please click next.",,Instruct7,16152,,,-1,-1,,,,,0.19
653913f75c3b77d3bf034279,33kie8hwsc,Ex2A_Prolific,1,185,2024-02-28T22:47:37+00:00,2.0941798686981,5,Stim_A.csv,Item.csv,Item,A,,,,,,0,Instruct,User,-,"The following screen will ask you a few questions abour your experience today. You must complete these questions to receive credit.",,Instruct8,1511,,,-1,-1,,,,,1
