Username,ID,ExperimentName,Session,Trial,Date,TimeDif,"Condition Number","Stimuli File","Order File","Condition Description","Condition Notes",Stimuli*Cue,Stimuli*Answer,Stimuli*Shuffle,"Stimuli*Stimuli Notes",Stimuli*Value,Procedure*Item,"Procedure*Trial Type","Procedure*Max Time","Procedure*Min Time",Procedure*Text,"Procedure*Procedure Notes",Procedure*Shuffle,Response*RT,Response*Response,Response*Accuracy,Response*RTfirst,Response*RTlast,Response*strictAcc,Response*lenientAcc,Response*focus,Response*JOL,Response*Focus
5c324470d071a2000143c82a,bft6oxbgsi,Ex2A_Prolific,1,1,2024-02-28T01:17:20+00:00,6.393697977066,6,Stim_B.csv,Item.csv,Item,B,,,,,,0,Instruct,-,5,"In this section, you will be presented with a series of words. Please study each word carefully. Your memory will be tested!",Initial_Instruct,Instruct1,6187,,,-1,-1,,,,,1
5c324470d071a2000143c82a,bft6oxbgsi,Ex2A_Prolific,1,2,2024-02-28T01:17:45+00:00,24.312972068787,6,Stim_B.csv,Item.csv,Item,B,,,,,,0,Instruct,-,5,"As you study, you will be asked to rate your ability to remember each item on a later memory test using a 0-100 scale. For example, if you study the word DOG, a rating of 0 indicates that you would not remember DOG at test, while a rating of 100 indicates full certainty that you would remember the word DOG at test.",,Instruct13,24029,,,-1,-1,,,,,0.973
5c324470d071a2000143c82a,bft6oxbgsi,Ex2A_Prolific,1,3,2024-02-28T01:17:55+00:00,10.786098957062,6,Stim_B.csv,Item.csv,Item,B,,,,,,0,Instruct,-,10,"When making your ratings, it is criticial that you use the full range of the scale. You will be disqualified for only giving ratings of 0 or 100!",,Instruct15,10506,,,-1,-1,,,,,1
5c324470d071a2000143c82a,bft6oxbgsi,Ex2A_Prolific,1,4,2024-02-28T01:17:58+00:00,2.290787935257,6,Stim_B.csv,Item.csv,Item,B,,,,,,0,Instruct,User,-,"You will now begin the study. Click next when you are ready to begin.",,Instruct16,2023,,,-1,-1,,,,,1
5c324470d071a2000143c82a,bft6oxbgsi,Ex2A_Prolific,1,5,2024-02-28T01:18:05+00:00,7.0847730636597,6,Stim_B.csv,Item.csv,Item,B,aroma,,Win_1,,,2,JOL,User,1.25,"How likely are you to correctly recall the second item in the pair?|Type your response on a scale from 0-100 and then press Enter.",Window,Win_1,6498,,,5435,5787,,,,60,1
5c324470d071a2000143c82a,bft6oxbgsi,Ex2A_Prolific,1,6,2024-02-28T01:18:09+00:00,4.2110719680786,6,Stim_B.csv,Item.csv,Item,B,scent,,Win_2,,,3,JOL,User,1.25,"How likely are you to correctly recall the second item in the pair?|Type your response on a scale from 0-100 and then press Enter.",Window,Win_2,3162,,,1993,2336,,,,50,1
5c324470d071a2000143c82a,bft6oxbgsi,Ex2A_Prolific,1,7,2024-02-28T01:18:16+00:00,7.2832570075989,6,Stim_B.csv,Item.csv,Item,B,whiff,,Win_3,,,4,JOL,User,1.25,"How likely are you to correctly recall the second item in the pair?|Type your response on a scale from 0-100 and then press Enter.",Window,Win_3,6235,,,2440,5432,,,,70,0.844
5c324470d071a2000143c82a,bft6oxbgsi,Ex2A_Prolific,1,8,2024-02-28T01:18:25+00:00,8.8378849029541,6,Stim_B.csv,Item.csv,Item,B,stench,,Win_4,,,5,JOL,User,1.25,"How likely are you to correctly recall the second item in the pair?|Type your response on a scale from 0-100 and then press Enter.",Window,Win_4,7808,,,2444,2771,,,,40,1
5c324470d071a2000143c82a,bft6oxbgsi,Ex2A_Prolific,1,9,2024-02-28T01:18:33+00:00,8.0835430622101,6,Stim_B.csv,Item.csv,Item,B,reek,,Win_5,,,6,JOL,User,1.25,"How likely are you to correctly recall the second item in the pair?|Type your response on a scale from 0-100 and then press Enter.",Window,Win_5,6085,,,1664,5479,,,,60,1
5c324470d071a2000143c82a,bft6oxbgsi,Ex2A_Prolific,1,10,2024-02-28T01:18:39+00:00,5.6175220012665,6,Stim_B.csv,Item.csv,Item,B,sniff,,Win_6,,,7,JOL,User,1.25,"How likely are you to correctly recall the second item in the pair?|Type your response on a scale from 0-100 and then press Enter.",Window,Win_6,4571,,,3796,4131,,,,50,1
5c324470d071a2000143c82a,bft6oxbgsi,Ex2A_Prolific,1,11,2024-02-28T01:18:46+00:00,7.1217300891876,6,Stim_B.csv,Item.csv,Item,B,perfume,,Win_7,,,8,JOL,User,1.25,"How likely are you to correctly recall the second item in the pair?|Type your response on a scale from 0-100 and then press Enter.",Window,Win_7,6093,,,5301,5670,,,,50,1
5c324470d071a2000143c82a,bft6oxbgsi,Ex2A_Prolific,1,12,2024-02-28T01:18:50+00:00,4.1003608703613,6,Stim_B.csv,Item.csv,Item,B,fragrance,,Win_8,,,9,JOL,User,1.25,"How likely are you to correctly recall the second item in the pair?|Type your response on a scale from 0-100 and then press Enter.",Window,Win_8,3054,,,2433,2792,,,,60,1
5c324470d071a2000143c82a,bft6oxbgsi,Ex2A_Prolific,1,13,2024-02-28T01:18:55+00:00,4.6695959568024,6,Stim_B.csv,Item.csv,Item,B,nose,,Win_9,,,10,JOL,User,1.25,"How likely are you to correctly recall the second item in the pair?|Type your response on a scale from 0-100 and then press Enter.",Window,Win_9,3625,,,2918,3246,,,,70,1
5c324470d071a2000143c82a,bft6oxbgsi,Ex2A_Prolific,1,14,2024-02-28T01:19:03+00:00,8.096705198288,6,Stim_B.csv,Item.csv,Item,B,rose,,Win_10,,,11,JOL,User,1.25,"How likely are you to correctly recall the second item in the pair?|Type your response on a scale from 0-100 and then press Enter.",Window,Win_10,7041,,,3295,6670,,,,35,1
5c324470d071a2000143c82a,bft6oxbgsi,Ex2A_Prolific,1,15,2024-02-28T01:19:07+00:00,4.3812549114227,6,Stim_B.csv,Item.csv,Item,B,salts,,Win_11,,,12,JOL,User,1.25,"How likely are you to correctly recall the second item in the pair?|Type your response on a scale from 0-100 and then press Enter.",Window,Win_11,3328,,,2441,3024,,,,30,1
5c324470d071a2000143c82a,bft6oxbgsi,Ex2A_Prolific,1,16,2024-02-28T01:19:18+00:00,10.650870084763,6,Stim_B.csv,Item.csv,Item,B,breathe,,Win_12,,,13,JOL,User,1.25,"How likely are you to correctly recall the second item in the pair?|Type your response on a scale from 0-100 and then press Enter.",Window,Win_12,8809,,,5679,8335,,,,75,1
5c324470d071a2000143c82a,bft6oxbgsi,Ex2A_Prolific,1,17,2024-02-28T01:19:19+00:00,1.6895439624786,6,Stim_B.csv,Item.csv,Item,B,,,,,,0,Instruct,User,-,"You have completed this section. Please click next.",,Instruct166,1403,,,-1,-1,,,,,1
5c324470d071a2000143c82a,bft6oxbgsi,Ex2A_Prolific,1,18,2024-02-28T01:19:50+00:00,30.273682832718,6,Stim_B.csv,Item.csv,Item,B,,,,,,0,FreeRecall,30,30,"Please type as many words as you can that begin with the letter ""M"". The computer will automatically advance to the next screen in 30 seconds.",,FILLER,30001,"Monkey, mother, mistress, mango, master, m",0,10387,26819,0,0,,,1
5c324470d071a2000143c82a,bft6oxbgsi,Ex2A_Prolific,1,19,2024-02-28T01:19:54+00:00,4.6514530181885,6,Stim_B.csv,Item.csv,Item,B,,,,,,0,Instruct,User,4,"You have completed this section. Please click next.",,Instruct166,4374,,,-1,-1,,,,,1
5c324470d071a2000143c82a,bft6oxbgsi,Ex2A_Prolific,1,20,2024-02-28T01:20:03+00:00,8.9506261348724,6,Stim_B.csv,Item.csv,Item,B,,,,,,0,Instruct,User,4,"You will now complete a memory test for the words you just studied. Please type as many words from the previous list as you can seperated by a comma. Spelling will not count against you and you can recall the words in any order. This test will be timed for one minute, and the computer will automatically advance once time is up. Click next when you are ready to begin.",,Instruct1666,8680,,,-1,-1,,,,,1
5c324470d071a2000143c82a,bft6oxbgsi,Ex2A_Prolific,1,21,2024-02-28T01:21:04+00:00,60.281429052353,6,Stim_B.csv,Item.csv,Item,B,,,,,,0,FreeRecall,60,60,"Please type as many words as you can from the previous study list in any order. Please separate each word with a comma. Spelling will not count against you. This screen will automatically advance in one minute.",,RECALL_Test,60001,"aroma,scent,stench,whiff,perfume,fragrance,nose,breathe, ",0,2953,28568,0,0,,,1
5c324470d071a2000143c82a,bft6oxbgsi,Ex2A_Prolific,1,22,2024-02-28T01:21:07+00:00,3.7963089942932,6,Stim_B.csv,Item.csv,Item,B,,,,,,0,Instruct,User,3,"You will now be presented with a new study list. Click next when you are ready to begin.",,NEXT_LIST,3521,,,-1,-1,,,,,1
5c324470d071a2000143c82a,bft6oxbgsi,Ex2A_Prolific,1,23,2024-02-28T01:21:12+00:00,4.6479389667511,6,Stim_B.csv,Item.csv,Item,B,hard,,R1,,,14,JOL,User,1.25,"How likely are you to correctly recall the second item in the pair?|Type your response on a scale from 0-100 and then press Enter.",Rough,R1,4376,,,3479,3919,,,,40,1
5c324470d071a2000143c82a,bft6oxbgsi,Ex2A_Prolific,1,24,2024-02-28T01:21:17+00:00,4.8152258396149,6,Stim_B.csv,Item.csv,Item,B,loud,,R2,,,15,JOL,User,1.25,"How likely are you to correctly recall the second item in the pair?|Type your response on a scale from 0-100 and then press Enter.",Rough,R2,4549,,,1734,4022,,,,50,1
5c324470d071a2000143c82a,bft6oxbgsi,Ex2A_Prolific,1,25,2024-02-28T01:21:22+00:00,4.7671341896057,6,Stim_B.csv,Item.csv,Item,B,tender,,R3,,,16,JOL,User,1.25,"How likely are you to correctly recall the second item in the pair?|Type your response on a scale from 0-100 and then press Enter.",Rough,R3,4505,,,1749,4149,,,,30,1
5c324470d071a2000143c82a,bft6oxbgsi,Ex2A_Prolific,1,26,2024-02-28T01:21:27+00:00,5.3718688488007,6,Stim_B.csv,Item.csv,Item,B,fluffy,,R4,,,17,JOL,User,1.25,"How likely are you to correctly recall the second item in the pair?|Type your response on a scale from 0-100 and then press Enter.",Rough,R4,5088,,,4384,4752,,,,20,1
5c324470d071a2000143c82a,bft6oxbgsi,Ex2A_Prolific,1,27,2024-02-28T01:21:31+00:00,3.535364151001,6,Stim_B.csv,Item.csv,Item,B,pillow,,R5,,,18,JOL,User,1.25,"How likely are you to correctly recall the second item in the pair?|Type your response on a scale from 0-100 and then press Enter.",Rough,R5,3262,,,1365,1789,,,,30,1
5c324470d071a2000143c82a,bft6oxbgsi,Ex2A_Prolific,1,28,2024-02-28T01:21:35+00:00,4.0649819374084,6,Stim_B.csv,Item.csv,Item,B,downy,,R6,,,19,JOL,User,1.25,"How likely are you to correctly recall the second item in the pair?|Type your response on a scale from 0-100 and then press Enter.",Rough,R6,3795,,,3055,3399,,,,70,1
5c324470d071a2000143c82a,bft6oxbgsi,Ex2A_Prolific,1,29,2024-02-28T01:21:38+00:00,3.1809599399567,6,Stim_B.csv,Item.csv,Item,B,plush,,R7,,,20,JOL,User,1.25,"How likely are you to correctly recall the second item in the pair?|Type your response on a scale from 0-100 and then press Enter.",Rough,R7,2908,,,2044,2404,,,,30,1
5c324470d071a2000143c82a,bft6oxbgsi,Ex2A_Prolific,1,30,2024-02-28T01:21:42+00:00,3.8444149494171,6,Stim_B.csv,Item.csv,Item,B,cotton,,R8,,,21,JOL,User,1.25,"How likely are you to correctly recall the second item in the pair?|Type your response on a scale from 0-100 and then press Enter.",Rough,R8,3584,,,2758,3142,,,,65,1
5c324470d071a2000143c82a,bft6oxbgsi,Ex2A_Prolific,1,31,2024-02-28T01:21:44+00:00,2.8296141624451,6,Stim_B.csv,Item.csv,Item,B,skin,,R9,,,22,JOL,User,1.25,"How likely are you to correctly recall the second item in the pair?|Type your response on a scale from 0-100 and then press Enter.",Rough,R9,2550,,,1949,2245,,,,40,1
5c324470d071a2000143c82a,bft6oxbgsi,Ex2A_Prolific,1,32,2024-02-28T01:21:52+00:00,7.9572010040283,6,Stim_B.csv,Item.csv,Item,B,fur,,R10,,,23,JOL,User,1.25,"How likely are you to correctly recall the second item in the pair?|Type your response on a scale from 0-100 and then press Enter.",Rough,R10,7671,,,5986,7066,,,,30,1
5c324470d071a2000143c82a,bft6oxbgsi,Ex2A_Prolific,1,33,2024-02-28T01:21:58+00:00,5.8448660373688,6,Stim_B.csv,Item.csv,Item,B,touch,,R11,,,24,JOL,User,1.25,"How likely are you to correctly recall the second item in the pair?|Type your response on a scale from 0-100 and then press Enter.",Rough,R11,5571,,,4970,5306,,,,35,1
5c324470d071a2000143c82a,bft6oxbgsi,Ex2A_Prolific,1,34,2024-02-28T01:22:02+00:00,3.4030628204346,6,Stim_B.csv,Item.csv,Item,B,furry,,R12,,,25,JOL,User,1.25,"How likely are you to correctly recall the second item in the pair?|Type your response on a scale from 0-100 and then press Enter.",Rough,R12,3129,,,2262,2646,,,,60,1
5c324470d071a2000143c82a,bft6oxbgsi,Ex2A_Prolific,1,35,2024-02-28T01:22:06+00:00,4.5630421638489,6,Stim_B.csv,Item.csv,Item,B,,,,,,0,Instruct,User,4,"You have completed this section. Please click next.",,Instruct166,4294,,,-1,-1,,,,,1
5c324470d071a2000143c82a,bft6oxbgsi,Ex2A_Prolific,1,36,2024-02-28T01:22:36+00:00,30.281587839127,6,Stim_B.csv,Item.csv,Item,B,,,,,,0,FreeRecall,30,30,"Please type as many words as you can that begin with the letter ""N"". The computer will automatically advance to the next screen in 30 seconds.",,FILLER,30000,"Neighbor, noise, never, notion, ",0,4072,24377,0,0,,,1
5c324470d071a2000143c82a,bft6oxbgsi,Ex2A_Prolific,1,37,2024-02-28T01:22:41+00:00,4.6182191371918,6,Stim_B.csv,Item.csv,Item,B,,,,,,0,Instruct,User,4,"You have completed this section. Please click next.",,Instruct166,4317,,,-1,-1,,,,,1
5c324470d071a2000143c82a,bft6oxbgsi,Ex2A_Prolific,1,38,2024-02-28T01:22:48+00:00,6.4264979362488,6,Stim_B.csv,Item.csv,Item,B,,,,,,0,Instruct,User,4,"You will now complete a memory test for the words you just studied. Please type as many words from the previous list as you can seperated by a comma. Spelling will not count against you and you can recall the words in any order. This test will be timed for one minute, and the computer will automatically advance once time is up. Click next when you are ready to begin.",,Instruct1666,6151,,,-1,-1,,,,,1
5c324470d071a2000143c82a,bft6oxbgsi,Ex2A_Prolific,1,39,2024-02-28T01:23:48+00:00,60.586457967758,6,Stim_B.csv,Item.csv,Item,B,,,,,,0,FreeRecall,60,60,"Please type as many words as you can from the previous study list in any order. Please separate each word with a comma. Spelling will not count against you. This screen will automatically advance in one minute.",,RECALL_Test,60320,"skin,touch,tender,loud,furry,pillow,plush,",0,1177,36593,0,0,,,0.963
5c324470d071a2000143c82a,bft6oxbgsi,Ex2A_Prolific,1,40,2024-02-28T01:23:53+00:00,4.9475691318512,6,Stim_B.csv,Item.csv,Item,B,,,,,,0,Instruct,User,3,"You will now be presented with a new study list. Click next when you are ready to begin.",,NEXT_LIST,4284,,,-1,-1,,,,,0.556
5c324470d071a2000143c82a,bft6oxbgsi,Ex2A_Prolific,1,41,2024-02-28T01:23:57+00:00,3.8034977912903,6,Stim_B.csv,Item.csv,Item,B,honey,,A1,,,26,JOL,User,1.25,"How likely are you to correctly recall the second item in the pair?|Type your response on a scale from 0-100 and then press Enter.",Anger,A1,3499,,,2654,3013,,,,60,1
5c324470d071a2000143c82a,bft6oxbgsi,Ex2A_Prolific,1,42,2024-02-28T01:23:59+00:00,2.5188241004944,6,Stim_B.csv,Item.csv,Item,B,bitter,,A2,,,27,JOL,User,1.25,"How likely are you to correctly recall the second item in the pair?|Type your response on a scale from 0-100 and then press Enter.",Anger,A2,2240,,,1460,1900,,,,30,1
5c324470d071a2000143c82a,bft6oxbgsi,Ex2A_Prolific,1,43,2024-02-28T01:24:03+00:00,3.2784268856049,6,Stim_B.csv,Item.csv,Item,B,sugar,,A3,,,28,JOL,User,1.25,"How likely are you to correctly recall the second item in the pair?|Type your response on a scale from 0-100 and then press Enter.",Anger,A3,3003,,,2307,2587,,,,50,1
5c324470d071a2000143c82a,bft6oxbgsi,Ex2A_Prolific,1,44,2024-02-28T01:24:07+00:00,4.4789581298828,6,Stim_B.csv,Item.csv,Item,B,sour,,A4,,,29,JOL,User,1.25,"How likely are you to correctly recall the second item in the pair?|Type your response on a scale from 0-100 and then press Enter.",Anger,A4,4218,,,3367,3735,,,,40,1
5c324470d071a2000143c82a,bft6oxbgsi,Ex2A_Prolific,1,45,2024-02-28T01:24:11+00:00,4.1062860488892,6,Stim_B.csv,Item.csv,Item,B,candy,,A5,,,30,JOL,User,1.25,"How likely are you to correctly recall the second item in the pair?|Type your response on a scale from 0-100 and then press Enter.",Anger,A5,3847,,,2001,2711,,,,60,1
5c324470d071a2000143c82a,bft6oxbgsi,Ex2A_Prolific,1,46,2024-02-28T01:24:14+00:00,2.8965330123901,6,Stim_B.csv,Item.csv,Item,B,tart,,A6,,,31,JOL,User,1.25,"How likely are you to correctly recall the second item in the pair?|Type your response on a scale from 0-100 and then press Enter.",Anger,A6,2634,,,2101,2324,,,,25,1
5c324470d071a2000143c82a,bft6oxbgsi,Ex2A_Prolific,1,47,2024-02-28T01:24:17+00:00,2.7367508411407,6,Stim_B.csv,Item.csv,Item,B,chocolate,,A7,,,32,JOL,User,1.25,"How likely are you to correctly recall the second item in the pair?|Type your response on a scale from 0-100 and then press Enter.",Anger,A7,2464,,,1570,1922,,,,50,1
5c324470d071a2000143c82a,bft6oxbgsi,Ex2A_Prolific,1,48,2024-02-28T01:24:21+00:00,3.8506400585175,6,Stim_B.csv,Item.csv,Item,B,nice,,A8,,,33,JOL,User,1.25,"How likely are you to correctly recall the second item in the pair?|Type your response on a scale from 0-100 and then press Enter.",Anger,A8,3575,,,2718,3054,,,,60,1
5c324470d071a2000143c82a,bft6oxbgsi,Ex2A_Prolific,1,49,2024-02-28T01:24:25+00:00,4.5769910812378,6,Stim_B.csv,Item.csv,Item,B,taste,,A9,,,34,JOL,User,1.25,"How likely are you to correctly recall the second item in the pair?|Type your response on a scale from 0-100 and then press Enter.",Anger,A9,4308,,,3572,3931,,,,50,1
5c324470d071a2000143c82a,bft6oxbgsi,Ex2A_Prolific,1,50,2024-02-28T01:24:28+00:00,2.5664210319519,6,Stim_B.csv,Item.csv,Item,B,cake,,A10,,,35,JOL,User,1.25,"How likely are you to correctly recall the second item in the pair?|Type your response on a scale from 0-100 and then press Enter.",Anger,A10,2298,,,1482,1810,,,,50,1
5c324470d071a2000143c82a,bft6oxbgsi,Ex2A_Prolific,1,51,2024-02-28T01:24:33+00:00,5.2185809612274,6,Stim_B.csv,Item.csv,Item,B,good,,A11,,,36,JOL,User,1.25,"How likely are you to correctly recall the second item in the pair?|Type your response on a scale from 0-100 and then press Enter.",Anger,A11,4950,,,3571,4515,,,,20,1
5c324470d071a2000143c82a,bft6oxbgsi,Ex2A_Prolific,1,52,2024-02-28T01:24:38+00:00,4.4630169868469,6,Stim_B.csv,Item.csv,Item,B,tooth,,A12,,,37,JOL,User,1.25,"How likely are you to correctly recall the second item in the pair?|Type your response on a scale from 0-100 and then press Enter.",Anger,A12,4198,,,2853,3573,,,,20,1
5c324470d071a2000143c82a,bft6oxbgsi,Ex2A_Prolific,1,53,2024-02-28T01:24:39+00:00,1.1417460441589,6,Stim_B.csv,Item.csv,Item,B,,,,,,0,Instruct,User,-,"You have completed this section. Please click next.",,Instruct166,868,,,-1,-1,,,,,1
5c324470d071a2000143c82a,bft6oxbgsi,Ex2A_Prolific,1,54,2024-02-28T01:25:09+00:00,30.269340991974,6,Stim_B.csv,Item.csv,Item,B,,,,,,0,FreeRecall,30,30,"Please type as many words as you can that begin with the letter ""W"". The computer will automatically advance to the next screen in 30 seconds.",,FILLER,30001,"whale,whisker,wander,waver,whine,wine,woven,weave",0,2463,29703,0,0,,,1
5c324470d071a2000143c82a,bft6oxbgsi,Ex2A_Prolific,1,55,2024-02-28T01:25:11+00:00,1.6237099170685,6,Stim_B.csv,Item.csv,Item,B,,,,,,0,Instruct,User,-,"You have completed this section. Please click next.",,Instruct166,1318,,,-1,-1,,,,,1
5c324470d071a2000143c82a,bft6oxbgsi,Ex2A_Prolific,1,56,2024-02-28T01:25:15+00:00,4.5905179977417,6,Stim_B.csv,Item.csv,Item,B,,,,,,0,Instruct,User,4,"You will now complete a memory test for the words you just studied. Please type as many words from the previous list as you can seperated by a comma. Spelling will not count against you and you can recall the words in any order. This test will be timed for one minute, and the computer will automatically advance once time is up. Click next when you are ready to begin.",,Instruct1666,4321,,,-1,-1,,,,,1
5c324470d071a2000143c82a,bft6oxbgsi,Ex2A_Prolific,1,57,2024-02-28T01:26:16+00:00,60.945953130722,6,Stim_B.csv,Item.csv,Item,B,,,,,,0,FreeRecall,60,60,"Please type as many words as you can from the previous study list in any order. Please separate each word with a comma. Spelling will not count against you. This screen will automatically advance in one minute.",,RECALL_Test,60674,"honey,candy,sweet,bitter,tart,good,nice,chocolate,cake,taste,",0,971,52530,0,0,,,0.99
5c324470d071a2000143c82a,bft6oxbgsi,Ex2A_Prolific,1,58,2024-02-28T01:26:31+00:00,14.843513965607,6,Stim_B.csv,Item.csv,Item,B,,,,,,0,Instruct,User,3,"You will now be presented with a new study list. Click next when you are ready to begin.",,NEXT_LIST,14441,,,-1,-1,,,,,0.211
5c324470d071a2000143c82a,bft6oxbgsi,Ex2A_Prolific,1,59,2024-02-28T01:26:35+00:00,3.5470960140228,6,Stim_B.csv,Item.csv,Item,B,table,,T1,,,38,JOL,User,1.25,"How likely are you to correctly recall the second item in the pair?|Type your response on a scale from 0-100 and then press Enter.",Trash,T1,3254,,,2557,2877,,,,50,1
5c324470d071a2000143c82a,bft6oxbgsi,Ex2A_Prolific,1,60,2024-02-28T01:26:38+00:00,3.4741380214691,6,Stim_B.csv,Item.csv,Item,B,swivel,,T2,,,39,JOL,User,1.25,"How likely are you to correctly recall the second item in the pair?|Type your response on a scale from 0-100 and then press Enter.",Trash,T2,3208,,,1996,2388,,,,10,1
5c324470d071a2000143c82a,bft6oxbgsi,Ex2A_Prolific,1,61,2024-02-28T01:26:41+00:00,3.3156278133392,6,Stim_B.csv,Item.csv,Item,B,rocking,,T3,,,40,JOL,User,1.25,"How likely are you to correctly recall the second item in the pair?|Type your response on a scale from 0-100 and then press Enter.",Trash,T3,3049,,,2255,2623,,,,20,1
5c324470d071a2000143c82a,bft6oxbgsi,Ex2A_Prolific,1,62,2024-02-28T01:26:48+00:00,7.1324529647827,6,Stim_B.csv,Item.csv,Item,B,recliner,,T4,,,41,JOL,User,1.25,"How likely are you to correctly recall the second item in the pair?|Type your response on a scale from 0-100 and then press Enter.",Trash,T4,6868,,,5353,6449,,,,45,1
5c324470d071a2000143c82a,bft6oxbgsi,Ex2A_Prolific,1,63,2024-02-28T01:26:53+00:00,4.9629800319672,6,Stim_B.csv,Item.csv,Item,B,seat,,T5,,,42,JOL,User,1.25,"How likely are you to correctly recall the second item in the pair?|Type your response on a scale from 0-100 and then press Enter.",Trash,T5,4700,,,4021,4341,,,,50,1
5c324470d071a2000143c82a,bft6oxbgsi,Ex2A_Prolific,1,64,2024-02-28T01:26:58+00:00,4.8379969596863,6,Stim_B.csv,Item.csv,Item,B,stool,,T6,,,43,JOL,User,1.25,"How likely are you to correctly recall the second item in the pair?|Type your response on a scale from 0-100 and then press Enter.",Trash,T6,4568,,,1415,4383,,,,60,1
5c324470d071a2000143c82a,bft6oxbgsi,Ex2A_Prolific,1,65,2024-02-28T01:27:01+00:00,2.8526701927185,6,Stim_B.csv,Item.csv,Item,B,desk,,T7,,,44,JOL,User,1.25,"How likely are you to correctly recall the second item in the pair?|Type your response on a scale from 0-100 and then press Enter.",Trash,T7,2594,,,1509,2341,,,,60,1
5c324470d071a2000143c82a,bft6oxbgsi,Ex2A_Prolific,1,66,2024-02-28T01:27:03+00:00,2.0856919288635,6,Stim_B.csv,Item.csv,Item,B,couch,,T8,,,45,JOL,User,1.25,"How likely are you to correctly recall the second item in the pair?|Type your response on a scale from 0-100 and then press Enter.",Trash,T8,1814,,,1108,1500,,,,50,1
5c324470d071a2000143c82a,bft6oxbgsi,Ex2A_Prolific,1,67,2024-02-28T01:27:07+00:00,3.6238570213318,6,Stim_B.csv,Item.csv,Item,B,sit,,T9,,,46,JOL,User,1.25,"How likely are you to correctly recall the second item in the pair?|Type your response on a scale from 0-100 and then press Enter.",Trash,T9,3345,,,1946,2546,,,,70,1
5c324470d071a2000143c82a,bft6oxbgsi,Ex2A_Prolific,1,68,2024-02-28T01:27:11+00:00,4.0745570659637,6,Stim_B.csv,Item.csv,Item,B,sofa,,T10,,,47,JOL,User,1.25,"How likely are you to correctly recall the second item in the pair?|Type your response on a scale from 0-100 and then press Enter.",Trash,T10,3805,,,3331,3507,,,,90,1
5c324470d071a2000143c82a,bft6oxbgsi,Ex2A_Prolific,1,69,2024-02-28T01:27:14+00:00,3.588535785675,6,Stim_B.csv,Item.csv,Item,B,bench,,T11,,,48,JOL,User,1.25,"How likely are you to correctly recall the second item in the pair?|Type your response on a scale from 0-100 and then press Enter.",Trash,T11,3319,,,2646,2950,,,,70,1
5c324470d071a2000143c82a,bft6oxbgsi,Ex2A_Prolific,1,70,2024-02-28T01:27:18+00:00,3.563469171524,6,Stim_B.csv,Item.csv,Item,B,sitting,,T12,,,49,JOL,User,1.25,"How likely are you to correctly recall the second item in the pair?|Type your response on a scale from 0-100 and then press Enter.",Trash,T12,3272,,,2660,2940,,,,60,1
5c324470d071a2000143c82a,bft6oxbgsi,Ex2A_Prolific,1,71,2024-02-28T01:27:19+00:00,1.3856089115143,6,Stim_B.csv,Item.csv,Item,B,,,,,,0,Instruct,User,-,"You have completed this section. Please click next.",,Instruct166,1120,,,-1,-1,,,,,1
5c324470d071a2000143c82a,bft6oxbgsi,Ex2A_Prolific,1,72,2024-02-28T01:27:50+00:00,30.266561031342,6,Stim_B.csv,Item.csv,Item,B,,,,,,0,FreeRecall,30,30,"Please type as many words as you can that begin with the letter ""S"". The computer will automatically advance to the next screen in 30 seconds.",,FILLER,30000,"snake, shrivel, shovel, spirit, steal, spin, screen, scan, stop, s",0,1772,29597,0,0,,,1
5c324470d071a2000143c82a,bft6oxbgsi,Ex2A_Prolific,1,73,2024-02-28T01:27:52+00:00,2.0281960964203,6,Stim_B.csv,Item.csv,Item,B,,,,,,0,Instruct,User,-,"You have completed this section. Please click next.",,Instruct166,1731,,,-1,-1,,,,,1
5c324470d071a2000143c82a,bft6oxbgsi,Ex2A_Prolific,1,74,2024-02-28T01:27:56+00:00,4.5860619544983,6,Stim_B.csv,Item.csv,Item,B,,,,,,0,Instruct,User,4,"You will now complete a memory test for the words you just studied. Please type as many words from the previous list as you can seperated by a comma. Spelling will not count against you and you can recall the words in any order. This test will be timed for one minute, and the computer will automatically advance once time is up. Click next when you are ready to begin.",,Instruct1666,4308,,,-1,-1,,,,,1
5c324470d071a2000143c82a,bft6oxbgsi,Ex2A_Prolific,1,75,2024-02-28T01:28:57+00:00,60.823521852493,6,Stim_B.csv,Item.csv,Item,B,,,,,,0,FreeRecall,60,60,"Please type as many words as you can from the previous study list in any order. Please separate each word with a comma. Spelling will not count against you. This screen will automatically advance in one minute.",,RECALL_Test,60547,"couch,table,desk,sit,sitting,stool,recliner,rocking,",0,1003,15083,0,0,,,0.906
5c324470d071a2000143c82a,bft6oxbgsi,Ex2A_Prolific,1,76,2024-02-28T01:29:13+00:00,16.344053030014,6,Stim_B.csv,Item.csv,Item,B,,,,,,0,Instruct,User,3,"You will now be presented with a new study list. Click next when you are ready to begin.",,NEXT_LIST,15627,,,-1,-1,,,,,0.545
5c324470d071a2000143c82a,bft6oxbgsi,Ex2A_Prolific,1,77,2024-02-28T01:29:17+00:00,3.6199190616608,6,Stim_B.csv,Item.csv,Item,B,climber,,D1,,,50,JOL,User,1.25,"How likely are you to correctly recall the second item in the pair?|Type your response on a scale from 0-100 and then press Enter.",Doctor,D1,3306,,,2169,2553,,,,40,1
5c324470d071a2000143c82a,bft6oxbgsi,Ex2A_Prolific,1,78,2024-02-28T01:29:20+00:00,2.6383728981018,6,Stim_B.csv,Item.csv,Item,B,hill,,D2,,,51,JOL,User,1.25,"How likely are you to correctly recall the second item in the pair?|Type your response on a scale from 0-100 and then press Enter.",Doctor,D2,2364,,,1706,2058,,,,50,1
5c324470d071a2000143c82a,bft6oxbgsi,Ex2A_Prolific,1,79,2024-02-28T01:29:22+00:00,2.0842289924622,6,Stim_B.csv,Item.csv,Item,B,climb,,D3,,,52,JOL,User,1.25,"How likely are you to correctly recall the second item in the pair?|Type your response on a scale from 0-100 and then press Enter.",Doctor,D3,1813,,,1210,1570,,,,50,1
5c324470d071a2000143c82a,bft6oxbgsi,Ex2A_Prolific,1,80,2024-02-28T01:29:25+00:00,3.4284520149231,6,Stim_B.csv,Item.csv,Item,B,molehill,,D4,,,53,JOL,User,1.25,"How likely are you to correctly recall the second item in the pair?|Type your response on a scale from 0-100 and then press Enter.",Doctor,D4,3149,,,2479,2863,,,,20,1
5c324470d071a2000143c82a,bft6oxbgsi,Ex2A_Prolific,1,81,2024-02-28T01:29:28+00:00,2.5111010074615,6,Stim_B.csv,Item.csv,Item,B,peak,,D5,,,54,JOL,User,1.25,"How likely are you to correctly recall the second item in the pair?|Type your response on a scale from 0-100 and then press Enter.",Doctor,D5,2241,,,1537,1889,,,,60,1
5c324470d071a2000143c82a,bft6oxbgsi,Ex2A_Prolific,1,82,2024-02-28T01:29:32+00:00,4.404687166214,6,Stim_B.csv,Item.csv,Item,B,valley,,D6,,,55,JOL,User,1.25,"How likely are you to correctly recall the second item in the pair?|Type your response on a scale from 0-100 and then press Enter.",Doctor,D6,4134,,,1393,3809,,,,60,1
5c324470d071a2000143c82a,bft6oxbgsi,Ex2A_Prolific,1,83,2024-02-28T01:29:41+00:00,8.8130829334259,6,Stim_B.csv,Item.csv,Item,B,summit,,D7,,,56,JOL,User,1.25,"How likely are you to correctly recall the second item in the pair?|Type your response on a scale from 0-100 and then press Enter.",Doctor,D7,8544,,,7915,8171,,,,60,1
5c324470d071a2000143c82a,bft6oxbgsi,Ex2A_Prolific,1,84,2024-02-28T01:29:45+00:00,4.0838499069214,6,Stim_B.csv,Item.csv,Item,B,steep,,D8,,,57,JOL,User,1.25,"How likely are you to correctly recall the second item in the pair?|Type your response on a scale from 0-100 and then press Enter.",Doctor,D8,3797,,,1470,3422,,,,40,1
5c324470d071a2000143c82a,bft6oxbgsi,Ex2A_Prolific,1,85,2024-02-28T01:29:47+00:00,2.1878881454468,6,Stim_B.csv,Item.csv,Item,B,ski,,D9,,,58,JOL,User,1.25,"How likely are you to correctly recall the second item in the pair?|Type your response on a scale from 0-100 and then press Enter.",Doctor,D9,1918,,,1325,1581,,,,70,1
5c324470d071a2000143c82a,bft6oxbgsi,Ex2A_Prolific,1,86,2024-02-28T01:29:50+00:00,2.5123748779297,6,Stim_B.csv,Item.csv,Item,B,bike,,D10,,,59,JOL,User,1.25,"How likely are you to correctly recall the second item in the pair?|Type your response on a scale from 0-100 and then press Enter.",Doctor,D10,2230,,,1318,1598,,,,60,1
5c324470d071a2000143c82a,bft6oxbgsi,Ex2A_Prolific,1,87,2024-02-28T01:29:53+00:00,3.1089861392975,6,Stim_B.csv,Item.csv,Item,B,goat,,D11,,,60,JOL,User,1.25,"How likely are you to correctly recall the second item in the pair?|Type your response on a scale from 0-100 and then press Enter.",Doctor,D11,2841,,,2234,2458,,,,60,1
5c324470d071a2000143c82a,bft6oxbgsi,Ex2A_Prolific,1,88,2024-02-28T01:29:56+00:00,3.3714458942413,6,Stim_B.csv,Item.csv,Item,B,glacier,,D12,,,61,JOL,User,1.25,"How likely are you to correctly recall the second item in the pair?|Type your response on a scale from 0-100 and then press Enter.",Doctor,D12,3107,,,2411,2771,,,,40,1
5c324470d071a2000143c82a,bft6oxbgsi,Ex2A_Prolific,1,89,2024-02-28T01:30:01+00:00,4.543154001236,6,Stim_B.csv,Item.csv,Item,B,,,,,,0,Instruct,User,4,"You have completed this section. Please click next.",,Instruct166,4280,,,-1,-1,,,,,1
5c324470d071a2000143c82a,bft6oxbgsi,Ex2A_Prolific,1,90,2024-02-28T01:30:31+00:00,30.268929958344,6,Stim_B.csv,Item.csv,Item,B,,,,,,0,FreeRecall,30,30,"Please type as many words as you can that begin with the letter ""K"". The computer will automatically advance to the next screen in 30 seconds.",,FILLER,30001,"kitchen, kindle, k",0,1941,24653,0,0,,,1
5c324470d071a2000143c82a,bft6oxbgsi,Ex2A_Prolific,1,91,2024-02-28T01:30:36+00:00,4.9102380275726,6,Stim_B.csv,Item.csv,Item,B,,,,,,0,Instruct,User,4,"You have completed this section. Please click next.",,Instruct166,4608,,,-1,-1,,,,,1
5c324470d071a2000143c82a,bft6oxbgsi,Ex2A_Prolific,1,92,2024-02-28T01:30:41+00:00,4.5991399288177,6,Stim_B.csv,Item.csv,Item,B,,,,,,0,Instruct,User,4,"You will now complete a memory test for the words you just studied. Please type as many words from the previous list as you can seperated by a comma. Spelling will not count against you and you can recall the words in any order. This test will be timed for one minute, and the computer will automatically advance once time is up. Click next when you are ready to begin.",,Instruct1666,4327,,,-1,-1,,,,,1
5c324470d071a2000143c82a,bft6oxbgsi,Ex2A_Prolific,1,93,2024-02-28T01:31:41+00:00,60.568521022797,6,Stim_B.csv,Item.csv,Item,B,,,,,,0,FreeRecall,60,60,"Please type as many words as you can from the previous study list in any order. Please separate each word with a comma. Spelling will not count against you. This screen will automatically advance in one minute.",,RECALL_Test,60303,"climber,hill,valley,ski,summit,goat,bike,climb,steep",0,820,43667,0,0,,,0.935
5c324470d071a2000143c82a,bft6oxbgsi,Ex2A_Prolific,1,94,2024-02-28T01:31:49+00:00,7.472146987915,6,Stim_B.csv,Item.csv,Item,B,,,,,,0,Instruct,User,3,"You will now be presented with a new study list. Click next when you are ready to begin.",,NEXT_LIST,6844,,,-1,-1,,,,,0.333
5c324470d071a2000143c82a,bft6oxbgsi,Ex2A_Prolific,1,95,2024-02-28T01:31:52+00:00,3.5860810279846,6,Stim_B.csv,Item.csv,Item,B,band,,S1,,,62,JOL,User,1.25,"How likely are you to correctly recall the second item in the pair?|Type your response on a scale from 0-100 and then press Enter.",Slow,S1,3290,,,2850,2953,,,,60,1
5c324470d071a2000143c82a,bft6oxbgsi,Ex2A_Prolific,1,96,2024-02-28T01:31:54+00:00,2.285786151886,6,Stim_B.csv,Item.csv,Item,B,concert,,S2,,,63,JOL,User,1.25,"How likely are you to correctly recall the second item in the pair?|Type your response on a scale from 0-100 and then press Enter.",Slow,S2,2018,,,1762,1818,,,,60,1
5c324470d071a2000143c82a,bft6oxbgsi,Ex2A_Prolific,1,97,2024-02-28T01:31:56+00:00,1.7764668464661,6,Stim_B.csv,Item.csv,Item,B,jazz,,S3,,,64,JOL,User,1.25,"How likely are you to correctly recall the second item in the pair?|Type your response on a scale from 0-100 and then press Enter.",Slow,S3,1506,,,1242,1297,,,,50,1
5c324470d071a2000143c82a,bft6oxbgsi,Ex2A_Prolific,1,98,2024-02-28T01:31:59+00:00,3.0625150203705,6,Stim_B.csv,Item.csv,Item,B,symphony,,S4,,,65,JOL,User,1.25,"How likely are you to correctly recall the second item in the pair?|Type your response on a scale from 0-100 and then press Enter.",Slow,S4,2785,,,2353,2425,,,,40,1
5c324470d071a2000143c82a,bft6oxbgsi,Ex2A_Prolific,1,99,2024-02-28T01:32:03+00:00,3.4547419548035,6,Stim_B.csv,Item.csv,Item,B,orchestra,,S5,,,66,JOL,User,1.25,"How likely are you to correctly recall the second item in the pair?|Type your response on a scale from 0-100 and then press Enter.",Slow,S5,3188,,,2756,2859,,,,40,1
5c324470d071a2000143c82a,bft6oxbgsi,Ex2A_Prolific,1,100,2024-02-28T01:32:06+00:00,3.6323411464691,6,Stim_B.csv,Item.csv,Item,B,rhythm,,S6,,,67,JOL,User,1.25,"How likely are you to correctly recall the second item in the pair?|Type your response on a scale from 0-100 and then press Enter.",Slow,S6,3367,,,2559,2615,,,,70,1
5c324470d071a2000143c82a,bft6oxbgsi,Ex2A_Prolific,1,101,2024-02-28T01:32:09+00:00,2.2984449863434,6,Stim_B.csv,Item.csv,Item,B,radio,,S7,,,68,JOL,User,1.25,"How likely are you to correctly recall the second item in the pair?|Type your response on a scale from 0-100 and then press Enter.",Slow,S7,2034,,,1106,1625,,,,60,1
5c324470d071a2000143c82a,bft6oxbgsi,Ex2A_Prolific,1,102,2024-02-28T01:32:11+00:00,2.5661890506744,6,Stim_B.csv,Item.csv,Item,B,melody,,S8,,,69,JOL,User,1.25,"How likely are you to correctly recall the second item in the pair?|Type your response on a scale from 0-100 and then press Enter.",Slow,S8,2300,,,1844,1948,,,,80,1
5c324470d071a2000143c82a,bft6oxbgsi,Ex2A_Prolific,1,103,2024-02-28T01:32:14+00:00,3.0408618450165,6,Stim_B.csv,Item.csv,Item,B,piano,,S9,,,70,JOL,User,1.25,"How likely are you to correctly recall the second item in the pair?|Type your response on a scale from 0-100 and then press Enter.",Slow,S9,2771,,,2451,2530,,,,90,1
5c324470d071a2000143c82a,bft6oxbgsi,Ex2A_Prolific,1,104,2024-02-28T01:32:17+00:00,2.9737861156464,6,Stim_B.csv,Item.csv,Item,B,sound,,S10,,,71,JOL,User,1.25,"How likely are you to correctly recall the second item in the pair?|Type your response on a scale from 0-100 and then press Enter.",Slow,S10,2709,,,2421,2484,,,,60,1
5c324470d071a2000143c82a,bft6oxbgsi,Ex2A_Prolific,1,105,2024-02-28T01:32:19+00:00,2.1955318450928,6,Stim_B.csv,Item.csv,Item,B,instrument,,S11,,,72,JOL,User,1.25,"How likely are you to correctly recall the second item in the pair?|Type your response on a scale from 0-100 and then press Enter.",Slow,S11,1929,,,1665,1720,,,,40,1
5c324470d071a2000143c82a,bft6oxbgsi,Ex2A_Prolific,1,106,2024-02-28T01:32:22+00:00,2.6713800430298,6,Stim_B.csv,Item.csv,Item,B,note,,S12,,,73,JOL,User,1.25,"How likely are you to correctly recall the second item in the pair?|Type your response on a scale from 0-100 and then press Enter.",Slow,S12,2402,,,2130,2185,,,,40,1
5c324470d071a2000143c82a,bft6oxbgsi,Ex2A_Prolific,1,107,2024-02-28T01:32:23+00:00,1.0598621368408,6,Stim_B.csv,Item.csv,Item,B,,,,,,0,Instruct,User,-,"You have completed this section. Please click next.",,Instruct166,796,,,-1,-1,,,,,1
5c324470d071a2000143c82a,bft6oxbgsi,Ex2A_Prolific,1,108,2024-02-28T01:32:53+00:00,30.266003847122,6,Stim_B.csv,Item.csv,Item,B,,,,,,0,FreeRecall,30,30,"Please type as many words as you can that begin with the letter ""M"". The computer will automatically advance to the next screen in 30 seconds.",,FILLER,30000,"monkey, mister, magic, mobile, mingle, mop, map, mean, missing, m",0,1765,27660,0,0,,,1
5c324470d071a2000143c82a,bft6oxbgsi,Ex2A_Prolific,1,109,2024-02-28T01:32:55+00:00,1.2554931640625,6,Stim_B.csv,Item.csv,Item,B,,,,,,0,Instruct,User,-,"You have completed this section. Please click next.",,Instruct166,959,,,-1,-1,,,,,1
5c324470d071a2000143c82a,bft6oxbgsi,Ex2A_Prolific,1,110,2024-02-28T01:33:04+00:00,9.5000720024109,6,Stim_B.csv,Item.csv,Item,B,,,,,,0,Instruct,User,4,"You will now complete a memory test for the words you just studied. Please type as many words from the previous list as you can seperated by a comma. Spelling will not count against you and you can recall the words in any order. This test will be timed for one minute, and the computer will automatically advance once time is up. Click next when you are ready to begin.",,Instruct1666,9229,,,-1,-1,,,,,1
5c324470d071a2000143c82a,bft6oxbgsi,Ex2A_Prolific,1,111,2024-02-28T01:34:05+00:00,60.926287889481,6,Stim_B.csv,Item.csv,Item,B,,,,,,0,FreeRecall,60,60,"Please type as many words as you can from the previous study list in any order. Please separate each word with a comma. Spelling will not count against you. This screen will automatically advance in one minute.",,RECALL_Test,60642,"note,symphony,orchestra,jazz,concert,band,piano,",0,1012,19387,0,0,,,0.913
5c324470d071a2000143c82a,bft6oxbgsi,Ex2A_Prolific,1,112,2024-02-28T01:34:18+00:00,12.388067960739,6,Stim_B.csv,Item.csv,Item,B,,,,,,0,Instruct,User,3,"You will now be presented with a new study list. Click next when you are ready to begin.",,NEXT_LIST,11733,,,-1,-1,,,,,0.294
5c324470d071a2000143c82a,bft6oxbgsi,Ex2A_Prolific,1,113,2024-02-28T01:34:20+00:00,2.0577590465546,6,Stim_B.csv,Item.csv,Item,B,foam,,RR1,,,74,JOL,User,1.25,"How likely are you to correctly recall the second item in the pair?|Type your response on a scale from 0-100 and then press Enter.",River,RR1,1767,,,1463,1566,,,,50,1
5c324470d071a2000143c82a,bft6oxbgsi,Ex2A_Prolific,1,114,2024-02-28T01:34:22+00:00,1.9474749565125,6,Stim_B.csv,Item.csv,Item,B,latex,,RR2,,,75,JOL,User,1.25,"How likely are you to correctly recall the second item in the pair?|Type your response on a scale from 0-100 and then press Enter.",River,RR2,1676,,,1228,1291,,,,40,1
5c324470d071a2000143c82a,bft6oxbgsi,Ex2A_Prolific,1,115,2024-02-28T01:34:24+00:00,2.4467811584473,6,Stim_B.csv,Item.csv,Item,B,galoshes,,RR3,,,76,JOL,User,1.25,"How likely are you to correctly recall the second item in the pair?|Type your response on a scale from 0-100 and then press Enter.",River,RR3,2180,,,1908,1955,,,,10,1
5c324470d071a2000143c82a,bft6oxbgsi,Ex2A_Prolific,1,116,2024-02-28T01:34:27+00:00,3.3658638000488,6,Stim_B.csv,Item.csv,Item,B,tire,,RR4,,,77,JOL,User,1.25,"How likely are you to correctly recall the second item in the pair?|Type your response on a scale from 0-100 and then press Enter.",River,RR4,3096,,,1336,2304,,,,60,1
5c324470d071a2000143c82a,bft6oxbgsi,Ex2A_Prolific,1,117,2024-02-28T01:34:30+00:00,2.1798541545868,6,Stim_B.csv,Item.csv,Item,B,flexible,,RR5,,,78,JOL,User,1.25,"How likely are you to correctly recall the second item in the pair?|Type your response on a scale from 0-100 and then press Enter.",River,RR5,1904,,,1648,1695,,,,50,1
5c324470d071a2000143c82a,bft6oxbgsi,Ex2A_Prolific,1,118,2024-02-28T01:34:32+00:00,2.2558879852295,6,Stim_B.csv,Item.csv,Item,B,elastic,,RR6,,,79,JOL,User,1.25,"How likely are you to correctly recall the second item in the pair?|Type your response on a scale from 0-100 and then press Enter.",River,RR6,1985,,,1729,1777,,,,60,1
5c324470d071a2000143c82a,bft6oxbgsi,Ex2A_Prolific,1,119,2024-02-28T01:34:36+00:00,3.7918698787689,6,Stim_B.csv,Item.csv,Item,B,gloves,,RR7,,,80,JOL,User,1.25,"How likely are you to correctly recall the second item in the pair?|Type your response on a scale from 0-100 and then press Enter.",River,RR7,3525,,,3133,3284,,,,70,1
5c324470d071a2000143c82a,bft6oxbgsi,Ex2A_Prolific,1,120,2024-02-28T01:34:38+00:00,2.0878121852875,6,Stim_B.csv,Item.csv,Item,B,eraser,,RR8,,,81,JOL,User,1.25,"How likely are you to correctly recall the second item in the pair?|Type your response on a scale from 0-100 and then press Enter.",River,RR8,1817,,,1545,1592,,,,70,1
5c324470d071a2000143c82a,bft6oxbgsi,Ex2A_Prolific,1,121,2024-02-28T01:34:40+00:00,2.4001588821411,6,Stim_B.csv,Item.csv,Item,B,bounce,,RR9,,,82,JOL,User,1.25,"How likely are you to correctly recall the second item in the pair?|Type your response on a scale from 0-100 and then press Enter.",River,RR9,2135,,,1855,1902,,,,50,1
5c324470d071a2000143c82a,bft6oxbgsi,Ex2A_Prolific,1,122,2024-02-28T01:34:42+00:00,1.9759519100189,6,Stim_B.csv,Item.csv,Item,B,ball,,RR10,,,83,JOL,User,1.25,"How likely are you to correctly recall the second item in the pair?|Type your response on a scale from 0-100 and then press Enter.",River,RR10,1708,,,1372,1475,,,,40,1
5c324470d071a2000143c82a,bft6oxbgsi,Ex2A_Prolific,1,123,2024-02-28T01:34:44+00:00,1.8773441314697,6,Stim_B.csv,Item.csv,Item,B,soles,,RR11,,,84,JOL,User,1.25,"How likely are you to correctly recall the second item in the pair?|Type your response on a scale from 0-100 and then press Enter.",River,RR11,1609,,,1353,1408,,,,30,1
5c324470d071a2000143c82a,bft6oxbgsi,Ex2A_Prolific,1,124,2024-02-28T01:34:47+00:00,3.4562249183655,6,Stim_B.csv,Item.csv,Item,B,springy,,RR12,,,85,JOL,User,1.25,"How likely are you to correctly recall the second item in the pair?|Type your response on a scale from 0-100 and then press Enter.",River,RR12,3178,,,1210,2985,,,,30,1
5c324470d071a2000143c82a,bft6oxbgsi,Ex2A_Prolific,1,125,2024-02-28T01:34:48+00:00,0.85360908508301,6,Stim_B.csv,Item.csv,Item,B,,,,,,0,Instruct,User,-,"You have completed this section. Please click next.",,Instruct166,589,,,-1,-1,,,,,1
5c324470d071a2000143c82a,bft6oxbgsi,Ex2A_Prolific,1,126,2024-02-28T01:35:19+00:00,30.26852107048,6,Stim_B.csv,Item.csv,Item,B,,,,,,0,FreeRecall,30,30,"Please type as many words as you can that begin with the letter ""L"". The computer will automatically advance to the next screen in 30 seconds.",,FILLER,30000,"lake, loser, listen, lump, love, leave, long, learn, live, lean, ",0,1692,29883,0,0,,,1
5c324470d071a2000143c82a,bft6oxbgsi,Ex2A_Prolific,1,127,2024-02-28T01:35:24+00:00,5.1348719596863,6,Stim_B.csv,Item.csv,Item,B,,,,,,0,Instruct,User,4,"You have completed this section. Please click next.",,Instruct166,4841,,,-1,-1,,,,,1
5c324470d071a2000143c82a,bft6oxbgsi,Ex2A_Prolific,1,128,2024-02-28T01:35:28+00:00,4.5645759105682,6,Stim_B.csv,Item.csv,Item,B,,,,,,0,Instruct,User,4,"You will now complete a memory test for the words you just studied. Please type as many words from the previous list as you can seperated by a comma. Spelling will not count against you and you can recall the words in any order. This test will be timed for one minute, and the computer will automatically advance once time is up. Click next when you are ready to begin.",,Instruct1666,4293,,,-1,-1,,,,,1
5c324470d071a2000143c82a,bft6oxbgsi,Ex2A_Prolific,1,129,2024-02-28T01:36:29+00:00,60.926589012146,6,Stim_B.csv,Item.csv,Item,B,,,,,,0,FreeRecall,60,60,"Please type as many words as you can from the previous study list in any order. Please separate each word with a comma. Spelling will not count against you. This screen will automatically advance in one minute.",,RECALL_Test,60652,"elastic,rubber,tire,ball,gloves,bounce,",0,850,32001,0,0,,,0.881
5c324470d071a2000143c82a,bft6oxbgsi,Ex2A_Prolific,1,130,2024-02-28T01:36:36+00:00,6.6090500354767,6,Stim_B.csv,Item.csv,Item,B,,,,,,0,Instruct,User,3,"You will now be presented with a new study list. Click next when you are ready to begin.",,NEXT_LIST,5924,,,-1,-1,,,,,0.4
5c324470d071a2000143c82a,bft6oxbgsi,Ex2A_Prolific,1,131,2024-02-28T01:36:38+00:00,2.4179770946503,6,Stim_B.csv,Item.csv,Item,B,toe,,B1,,,86,JOL,User,1.25,"How likely are you to correctly recall the second item in the pair?|Type your response on a scale from 0-100 and then press Enter.",Bread,B1,2124,,,1868,1907,,,,60,1
5c324470d071a2000143c82a,bft6oxbgsi,Ex2A_Prolific,1,132,2024-02-28T01:36:41+00:00,2.5623660087585,6,Stim_B.csv,Item.csv,Item,B,inch,,B2,,,87,JOL,User,1.25,"How likely are you to correctly recall the second item in the pair?|Type your response on a scale from 0-100 and then press Enter.",Bread,B2,2289,,,2016,2080,,,,60,1
5c324470d071a2000143c82a,bft6oxbgsi,Ex2A_Prolific,1,133,2024-02-28T01:36:43+00:00,2.4738719463348,6,Stim_B.csv,Item.csv,Item,B,ankle,,B3,,,88,JOL,User,1.25,"How likely are you to correctly recall the second item in the pair?|Type your response on a scale from 0-100 and then press Enter.",Bread,B3,2209,,,1881,1969,,,,60,1
5c324470d071a2000143c82a,bft6oxbgsi,Ex2A_Prolific,1,134,2024-02-28T01:36:46+00:00,2.7113449573517,6,Stim_B.csv,Item.csv,Item,B,shoe,,B4,,,89,JOL,User,1.25,"How likely are you to correctly recall the second item in the pair?|Type your response on a scale from 0-100 and then press Enter.",Bread,B4,2436,,,1171,2147,,,,70,1
5c324470d071a2000143c82a,bft6oxbgsi,Ex2A_Prolific,1,135,2024-02-28T01:36:48+00:00,1.7997360229492,6,Stim_B.csv,Item.csv,Item,B,sandals,,B5,,,90,JOL,User,1.25,"How likely are you to correctly recall the second item in the pair?|Type your response on a scale from 0-100 and then press Enter.",Bread,B5,1531,,,1290,1330,,,,40,1
5c324470d071a2000143c82a,bft6oxbgsi,Ex2A_Prolific,1,136,2024-02-28T01:36:49+00:00,1.6638059616089,6,Stim_B.csv,Item.csv,Item,B,sock,,B6,,,91,JOL,User,1.25,"How likely are you to correctly recall the second item in the pair?|Type your response on a scale from 0-100 and then press Enter.",Bread,B6,1399,,,1111,1167,,,,50,1
5c324470d071a2000143c82a,bft6oxbgsi,Ex2A_Prolific,1,137,2024-02-28T01:36:51+00:00,1.6532180309296,6,Stim_B.csv,Item.csv,Item,B,hand,,B7,,,92,JOL,User,1.25,"How likely are you to correctly recall the second item in the pair?|Type your response on a scale from 0-100 and then press Enter.",Bread,B7,1390,,,1133,1189,,,,50,1
5c324470d071a2000143c82a,bft6oxbgsi,Ex2A_Prolific,1,138,2024-02-28T01:36:54+00:00,2.4814820289612,6,Stim_B.csv,Item.csv,Item,B,boot,,B8,,,93,JOL,User,1.25,"How likely are you to correctly recall the second item in the pair?|Type your response on a scale from 0-100 and then press Enter.",Bread,B8,2201,,,1912,1976,,,,50,1
5c324470d071a2000143c82a,bft6oxbgsi,Ex2A_Prolific,1,139,2024-02-28T01:36:56+00:00,2.2803058624268,6,Stim_B.csv,Item.csv,Item,B,yard,,B9,,,94,JOL,User,1.25,"How likely are you to correctly recall the second item in the pair?|Type your response on a scale from 0-100 and then press Enter.",Bread,B9,1920,,,1657,1672,,,,40,1
5c324470d071a2000143c82a,bft6oxbgsi,Ex2A_Prolific,1,140,2024-02-28T01:36:58+00:00,2.1032249927521,6,Stim_B.csv,Item.csv,Item,B,kick,,B10,,,95,JOL,User,1.25,"How likely are you to correctly recall the second item in the pair?|Type your response on a scale from 0-100 and then press Enter.",Bread,B10,1838,,,974,1014,,,,50,1
5c324470d071a2000143c82a,bft6oxbgsi,Ex2A_Prolific,1,141,2024-02-28T01:37:01+00:00,3.1737041473389,6,Stim_B.csv,Item.csv,Item,B,knee,,B11,,,96,JOL,User,1.25,"How likely are you to correctly recall the second item in the pair?|Type your response on a scale from 0-100 and then press Enter.",Bread,B11,2903,,,1726,1830,,,,50,1
5c324470d071a2000143c82a,bft6oxbgsi,Ex2A_Prolific,1,142,2024-02-28T01:37:04+00:00,2.6464469432831,6,Stim_B.csv,Item.csv,Item,B,walk,,B12,,,97,JOL,User,1.25,"How likely are you to correctly recall the second item in the pair?|Type your response on a scale from 0-100 and then press Enter.",Bread,B12,2374,,,2039,2102,,,,60,1
5c324470d071a2000143c82a,bft6oxbgsi,Ex2A_Prolific,1,143,2024-02-28T01:37:08+00:00,4.5445599555969,6,Stim_B.csv,Item.csv,Item,B,,,,,,0,Instruct,User,4,"You have completed this section. Please click next.",,Instruct166,4279,,,-1,-1,,,,,1
5c324470d071a2000143c82a,bft6oxbgsi,Ex2A_Prolific,1,144,2024-02-28T01:37:39+00:00,30.269798994064,6,Stim_B.csv,Item.csv,Item,B,,,,,,0,FreeRecall,30,30,"Please type as many words as you can that begin with the letter ""T"". The computer will automatically advance to the next screen in 30 seconds.",,FILLER,30001,"toe, test, treat, together, tombstone, treason, tiger, testament, trouble, table, tremble, testost",0,1083,29939,0,0,,,1
5c324470d071a2000143c82a,bft6oxbgsi,Ex2A_Prolific,1,145,2024-02-28T01:37:40+00:00,1.8869380950928,6,Stim_B.csv,Item.csv,Item,B,,,,,,0,Instruct,User,-,"You have completed this section. Please click next.",,Instruct166,1587,,,-1,-1,,,,,1
5c324470d071a2000143c82a,bft6oxbgsi,Ex2A_Prolific,1,146,2024-02-28T01:37:45+00:00,4.6141159534454,6,Stim_B.csv,Item.csv,Item,B,,,,,,0,Instruct,User,4,"You will now complete a memory test for the words you just studied. Please type as many words from the previous list as you can seperated by a comma. Spelling will not count against you and you can recall the words in any order. This test will be timed for one minute, and the computer will automatically advance once time is up. Click next when you are ready to begin.",,Instruct1666,4339,,,-1,-1,,,,,1
5c324470d071a2000143c82a,bft6oxbgsi,Ex2A_Prolific,1,147,2024-02-28T01:38:46+00:00,61.117733001709,6,Stim_B.csv,Item.csv,Item,B,,,,,,0,FreeRecall,60,60,"Please type as many words as you can from the previous study list in any order. Please separate each word with a comma. Spelling will not count against you. This screen will automatically advance in one minute.",,RECALL_Test,60837,"toe,shoe,walk,ankle,knee,feet,",0,1406,38782,0,0,,,0.949
5c324470d071a2000143c82a,bft6oxbgsi,Ex2A_Prolific,1,148,2024-02-28T01:38:51+00:00,4.5589570999146,6,Stim_B.csv,Item.csv,Item,B,,,,,,0,Instruct,User,3,"You will now be presented with a new study list. Click next when you are ready to begin.",,NEXT_LIST,3297,,,-1,-1,,,,,0.941
5c324470d071a2000143c82a,bft6oxbgsi,Ex2A_Prolific,1,149,2024-02-28T01:38:54+00:00,3.6597127914429,6,Stim_B.csv,Item.csv,Item,B,boy,,F1,,,98,JOL,User,1.25,"How likely are you to correctly recall the second item in the pair?|Type your response on a scale from 0-100 and then press Enter.",Flag,F1,2637,,,2197,2276,,,,60,1
5c324470d071a2000143c82a,bft6oxbgsi,Ex2A_Prolific,1,150,2024-02-28T01:38:58+00:00,3.2753911018372,6,Stim_B.csv,Item.csv,Item,B,dolls,,F2,,,99,JOL,User,1.25,"How likely are you to correctly recall the second item in the pair?|Type your response on a scale from 0-100 and then press Enter.",Flag,F2,2343,,,2047,2071,,,,40,1
5c324470d071a2000143c82a,bft6oxbgsi,Ex2A_Prolific,1,151,2024-02-28T01:39:03+00:00,4.9854900836945,6,Stim_B.csv,Item.csv,Item,B,pretty,,F3,,,100,JOL,User,1.25,"How likely are you to correctly recall the second item in the pair?|Type your response on a scale from 0-100 and then press Enter.",Flag,F3,4042,,,2770,3794,,,,40,1
5c324470d071a2000143c82a,bft6oxbgsi,Ex2A_Prolific,1,152,2024-02-28T01:39:06+00:00,3.726334810257,6,Stim_B.csv,Item.csv,Item,B,female,,F4,,,101,JOL,User,1.25,"How likely are you to correctly recall the second item in the pair?|Type your response on a scale from 0-100 and then press Enter.",Flag,F4,2920,,,2591,2671,,,,50,1
5c324470d071a2000143c82a,bft6oxbgsi,Ex2A_Prolific,1,153,2024-02-28T01:39:10+00:00,3.272271156311,6,Stim_B.csv,Item.csv,Item,B,dress,,F5,,,102,JOL,User,1.25,"How likely are you to correctly recall the second item in the pair?|Type your response on a scale from 0-100 and then press Enter.",Flag,F5,2220,,,1916,2011,,,,50,1
5c324470d071a2000143c82a,bft6oxbgsi,Ex2A_Prolific,1,154,2024-02-28T01:39:13+00:00,2.8785538673401,6,Stim_B.csv,Item.csv,Item,B,date,,F6,,,103,JOL,User,1.25,"How likely are you to correctly recall the second item in the pair?|Type your response on a scale from 0-100 and then press Enter.",Flag,F6,1948,,,1635,1699,,,,60,1
5c324470d071a2000143c82a,bft6oxbgsi,Ex2A_Prolific,1,155,2024-02-28T01:39:16+00:00,2.9993929862976,6,Stim_B.csv,Item.csv,Item,B,beautiful,,F7,,,104,JOL,User,1.25,"How likely are you to correctly recall the second item in the pair?|Type your response on a scale from 0-100 and then press Enter.",Flag,F7,2214,,,1815,1886,,,,50,1
5c324470d071a2000143c82a,bft6oxbgsi,Ex2A_Prolific,1,156,2024-02-28T01:39:19+00:00,3.5267860889435,6,Stim_B.csv,Item.csv,Item,B,daughter,,F8,,,105,JOL,User,1.25,"How likely are you to correctly recall the second item in the pair?|Type your response on a scale from 0-100 and then press Enter.",Flag,F8,2475,,,2178,2258,,,,60,1
5c324470d071a2000143c82a,bft6oxbgsi,Ex2A_Prolific,1,157,2024-02-28T01:39:22+00:00,2.7048010826111,6,Stim_B.csv,Item.csv,Item,B,sister,,F9,,,106,JOL,User,1.25,"How likely are you to correctly recall the second item in the pair?|Type your response on a scale from 0-100 and then press Enter.",Flag,F9,1667,,,1370,1434,,,,60,1
5c324470d071a2000143c82a,bft6oxbgsi,Ex2A_Prolific,1,158,2024-02-28T01:39:26+00:00,4.0255079269409,6,Stim_B.csv,Item.csv,Item,B,cute,,F10,,,107,JOL,User,1.25,"How likely are you to correctly recall the second item in the pair?|Type your response on a scale from 0-100 and then press Enter.",Flag,F10,3005,,,2741,2796,,,,70,1
5c324470d071a2000143c82a,bft6oxbgsi,Ex2A_Prolific,1,159,2024-02-28T01:39:28+00:00,2.6671390533447,6,Stim_B.csv,Item.csv,Item,B,niece,,F11,,,108,JOL,User,1.25,"How likely are you to correctly recall the second item in the pair?|Type your response on a scale from 0-100 and then press Enter.",Flag,F11,1802,,,1561,1616,,,,40,1
5c324470d071a2000143c82a,bft6oxbgsi,Ex2A_Prolific,1,160,2024-02-28T01:39:34+00:00,5.5497260093689,6,Stim_B.csv,Item.csv,Item,B,young,,F12,,,109,JOL,User,1.25,"How likely are you to correctly recall the second item in the pair?|Type your response on a scale from 0-100 and then press Enter.",Flag,F12,4515,,,1219,4314,,,,40,1
5c324470d071a2000143c82a,bft6oxbgsi,Ex2A_Prolific,1,161,2024-02-28T01:39:36+00:00,1.7814769744873,6,Stim_B.csv,Item.csv,Item,B,,,,,,0,Instruct,User,-,"You have completed this section. Please click next.",,Instruct166,751,,,-1,-1,,,,,1
5c324470d071a2000143c82a,bft6oxbgsi,Ex2A_Prolific,1,162,2024-02-28T01:40:07+00:00,30.970864057541,6,Stim_B.csv,Item.csv,Item,B,,,,,,0,FreeRecall,30,30,"Please type as many words as you can that begin with the letter ""R"". The computer will automatically advance to the next screen in 30 seconds.",,FILLER,30001,"reset, rubber, rope, remember, ramble, rumble, restart, rock, r",0,1826,28001,0,0,,,1
5c324470d071a2000143c82a,bft6oxbgsi,Ex2A_Prolific,1,163,2024-02-28T01:40:14+00:00,6.866231918335,6,Stim_B.csv,Item.csv,Item,B,,,,,,0,Instruct,User,4,"You have completed this section. Please click next.",,Instruct166,6572,,,-1,-1,,,,,1
5c324470d071a2000143c82a,bft6oxbgsi,Ex2A_Prolific,1,164,2024-02-28T01:40:18+00:00,4.8102278709412,6,Stim_B.csv,Item.csv,Item,B,,,,,,0,Instruct,User,4,"You will now complete a memory test for the words you just studied. Please type as many words from the previous list as you can seperated by a comma. Spelling will not count against you and you can recall the words in any order. This test will be timed for one minute, and the computer will automatically advance once time is up. Click next when you are ready to begin.",,Instruct1666,4533,,,-1,-1,,,,,1
5c324470d071a2000143c82a,bft6oxbgsi,Ex2A_Prolific,1,165,2024-02-28T01:41:19+00:00,60.272898197174,6,Stim_B.csv,Item.csv,Item,B,,,,,,0,FreeRecall,60,60,"Please type as many words as you can from the previous study list in any order. Please separate each word with a comma. Spelling will not count against you. This screen will automatically advance in one minute.",,RECALL_Test,60001,"daughter,niece,cute,boy,female,sister,young,",0,773,28556,0,0,,,0.876
5c324470d071a2000143c82a,bft6oxbgsi,Ex2A_Prolific,1,166,2024-02-28T01:41:28+00:00,9.2321519851685,6,Stim_B.csv,Item.csv,Item,B,,,,,,0,Instruct,User,3,"You will now be presented with a new study list. Click next when you are ready to begin.",,NEXT_LIST,8652,,,-1,-1,,,,,0.5
5c324470d071a2000143c82a,bft6oxbgsi,Ex2A_Prolific,1,167,2024-02-28T01:41:53+00:00,25.362968921661,6,Stim_B.csv,Item.csv,Item,B,white,,SS1,,,110,JOL,User,1.25,"How likely are you to correctly recall the second item in the pair?|Type your response on a scale from 0-100 and then press Enter.",Shirt,SS1,25078,,,22767,22846,,,,50,0.684
5c324470d071a2000143c82a,bft6oxbgsi,Ex2A_Prolific,1,168,2024-02-28T01:41:56+00:00,2.7347791194916,6,Stim_B.csv,Item.csv,Item,B,gray,,SS2,,,111,JOL,User,1.25,"How likely are you to correctly recall the second item in the pair?|Type your response on a scale from 0-100 and then press Enter.",Shirt,SS2,2451,,,1931,2011,,,,40,1
5c324470d071a2000143c82a,bft6oxbgsi,Ex2A_Prolific,1,169,2024-02-28T01:41:59+00:00,2.7825028896332,6,Stim_B.csv,Item.csv,Item,B,brown,,SS3,,,112,JOL,User,1.25,"How likely are you to correctly recall the second item in the pair?|Type your response on a scale from 0-100 and then press Enter.",Shirt,SS3,2516,,,2268,2412,,,,50,1
5c324470d071a2000143c82a,bft6oxbgsi,Ex2A_Prolific,1,170,2024-02-28T01:42:02+00:00,3.3007800579071,6,Stim_B.csv,Item.csv,Item,B,coal,,SS4,,,113,JOL,User,1.25,"How likely are you to correctly recall the second item in the pair?|Type your response on a scale from 0-100 and then press Enter.",Shirt,SS4,3034,,,2617,2929,,,,40,1
5c324470d071a2000143c82a,bft6oxbgsi,Ex2A_Prolific,1,171,2024-02-28T01:42:06+00:00,4.0632598400116,6,Stim_B.csv,Item.csv,Item,B,dark,,SS5,,,114,JOL,User,1.25,"How likely are you to correctly recall the second item in the pair?|Type your response on a scale from 0-100 and then press Enter.",Shirt,SS5,3792,,,3392,3632,,,,50,1
5c324470d071a2000143c82a,bft6oxbgsi,Ex2A_Prolific,1,172,2024-02-28T01:42:08+00:00,1.9953241348267,6,Stim_B.csv,Item.csv,Item,B,color,,SS6,,,115,JOL,User,1.25,"How likely are you to correctly recall the second item in the pair?|Type your response on a scale from 0-100 and then press Enter.",Shirt,SS6,1723,,,1323,1603,,,,60,1
5c324470d071a2000143c82a,bft6oxbgsi,Ex2A_Prolific,1,173,2024-02-28T01:42:11+00:00,2.6790950298309,6,Stim_B.csv,Item.csv,Item,B,funeral,,SS7,,,116,JOL,User,1.25,"How likely are you to correctly recall the second item in the pair?|Type your response on a scale from 0-100 and then press Enter.",Shirt,SS7,2409,,,2081,2313,,,,50,1
5c324470d071a2000143c82a,bft6oxbgsi,Ex2A_Prolific,1,174,2024-02-28T01:42:15+00:00,3.999969959259,6,Stim_B.csv,Item.csv,Item,B,blue,,SS8,,,117,JOL,User,1.25,"How likely are you to correctly recall the second item in the pair?|Type your response on a scale from 0-100 and then press Enter.",Shirt,SS8,3731,,,1451,3451,,,,60,1
5c324470d071a2000143c82a,bft6oxbgsi,Ex2A_Prolific,1,175,2024-02-28T01:42:17+00:00,2.6478600502014,6,Stim_B.csv,Item.csv,Item,B,charred,,SS9,,,118,JOL,User,1.25,"How likely are you to correctly recall the second item in the pair?|Type your response on a scale from 0-100 and then press Enter.",Shirt,SS9,2369,,,1753,2202,,,,40,1
5c324470d071a2000143c82a,bft6oxbgsi,Ex2A_Prolific,1,176,2024-02-28T01:42:20+00:00,2.6047949790955,6,Stim_B.csv,Item.csv,Item,B,ink,,SS10,,,119,JOL,User,1.25,"How likely are you to correctly recall the second item in the pair?|Type your response on a scale from 0-100 and then press Enter.",Shirt,SS10,2340,,,1972,2220,,,,60,1
5c324470d071a2000143c82a,bft6oxbgsi,Ex2A_Prolific,1,177,2024-02-28T01:42:23+00:00,2.5197288990021,6,Stim_B.csv,Item.csv,Item,B,death,,SS11,,,120,JOL,User,1.25,"How likely are you to correctly recall the second item in the pair?|Type your response on a scale from 0-100 and then press Enter.",Shirt,SS11,2256,,,1343,2135,,,,40,1
5c324470d071a2000143c82a,bft6oxbgsi,Ex2A_Prolific,1,178,2024-02-28T01:42:25+00:00,2.6493790149689,6,Stim_B.csv,Item.csv,Item,B,cat,,SS12,,,121,JOL,User,1.25,"How likely are you to correctly recall the second item in the pair?|Type your response on a scale from 0-100 and then press Enter.",Shirt,SS12,2381,,,2077,2108,,,,30,1
5c324470d071a2000143c82a,bft6oxbgsi,Ex2A_Prolific,1,179,2024-02-28T01:42:30+00:00,4.6852290630341,6,Stim_B.csv,Item.csv,Item,B,,,,,,0,Instruct,User,4,"You have completed this section. Please click next.",,Instruct166,4424,,,-1,-1,,,,,1
5c324470d071a2000143c82a,bft6oxbgsi,Ex2A_Prolific,1,180,2024-02-28T01:43:00+00:00,30.296045064926,6,Stim_B.csv,Item.csv,Item,B,,,,,,0,FreeRecall,30,30,"Please type as many words as you can that begin with the letter ""C"". The computer will automatically advance to the next screen in 30 seconds.",,FILLER,30001,"cat, crumble, cremate, cubicle, cream, candle, cover, christ",0,1237,29757,0,0,,,1
5c324470d071a2000143c82a,bft6oxbgsi,Ex2A_Prolific,1,181,2024-02-28T01:43:05+00:00,4.7894008159637,6,Stim_B.csv,Item.csv,Item,B,,,,,,0,Instruct,User,4,"You have completed this section. Please click next.",,Instruct166,4476,,,-1,-1,,,,,1
5c324470d071a2000143c82a,bft6oxbgsi,Ex2A_Prolific,1,182,2024-02-28T01:43:18+00:00,13.373153209686,6,Stim_B.csv,Item.csv,Item,B,,,,,,0,Instruct,User,4,"You will now complete a memory test for the words you just studied. Please type as many words from the previous list as you can seperated by a comma. Spelling will not count against you and you can recall the words in any order. This test will be timed for one minute, and the computer will automatically advance once time is up. Click next when you are ready to begin.",,Instruct1666,13078,,,-1,-1,,,,,1
5c324470d071a2000143c82a,bft6oxbgsi,Ex2A_Prolific,1,183,2024-02-28T01:44:19+00:00,60.294096946716,6,Stim_B.csv,Item.csv,Item,B,,,,,,0,FreeRecall,60,60,"Please type as many words as you can from the previous study list in any order. Please separate each word with a comma. Spelling will not count against you. This screen will automatically advance in one minute.",,RECALL_Test,60000,"cat, white, gray, blue, color, funeral, death, ",0,906,17595,0,0,,,1
5c324470d071a2000143c82a,bft6oxbgsi,Ex2A_Prolific,1,184,2024-02-28T01:44:33+00:00,14.464202880859,6,Stim_B.csv,Item.csv,Item,B,,,,,,0,Instruct,User,-,"You have completed this section. Please click next.",,Instruct7,14151,,,-1,-1,,,,,1
5c324470d071a2000143c82a,bft6oxbgsi,Ex2A_Prolific,1,185,2024-02-28T01:44:36+00:00,2.5388450622559,6,Stim_B.csv,Item.csv,Item,B,,,,,,0,Instruct,User,-,"The following screen will ask you a few questions abour your experience today. You must complete these questions to receive credit.",,Instruct8,2097,,,-1,-1,,,,,1
