Username,ID,ExperimentName,Session,Trial,Date,TimeDif,"Condition Number","Stimuli File","Order File","Condition Description","Condition Notes",Stimuli*Cue,Stimuli*Answer,Stimuli*Shuffle,"Stimuli*Stimuli Notes",Stimuli*Value,Procedure*Item,"Procedure*Trial Type","Procedure*Max Time","Procedure*Min Time",Procedure*Text,"Procedure*Procedure Notes",Procedure*Shuffle,Response*RT,Response*Response,Response*Accuracy,Response*RTfirst,Response*RTlast,Response*strictAcc,Response*lenientAcc,Response*focus,Response*JOL,Response*Focus
5e72a539c600fa1efa380fb6,4o6grhyvi0,Ex2A_Prolific,1,1,2024-02-27T22:13:24+00:00,8.411828994751,5,Stim_A.csv,Item.csv,Item,A,,,,,,0,Instruct,-,5,"In this section, you will be presented with a series of words. Please study each word carefully. Your memory will be tested!",Initial_Instruct,Instruct1,8220,,,-1,-1,,,,,1
5e72a539c600fa1efa380fb6,4o6grhyvi0,Ex2A_Prolific,1,2,2024-02-27T22:13:31+00:00,6.4018919467926,5,Stim_A.csv,Item.csv,Item,A,,,,,,0,Instruct,-,5,"As you study, you will be asked to rate your ability to remember each item on a later memory test using a 0-100 scale. For example, if you study the word DOG, a rating of 0 indicates that you would not remember DOG at test, while a rating of 100 indicates full certainty that you would remember the word DOG at test.",,Instruct13,6052,,,-1,-1,,,,,1
5e72a539c600fa1efa380fb6,4o6grhyvi0,Ex2A_Prolific,1,3,2024-02-27T22:14:07+00:00,36.006546974182,5,Stim_A.csv,Item.csv,Item,A,,,,,,0,Instruct,-,10,"When making your ratings, it is criticial that you use the full range of the scale. You will be disqualified for only giving ratings of 0 or 100!",,Instruct15,24092,,,-1,-1,,,,,0.447
5e72a539c600fa1efa380fb6,4o6grhyvi0,Ex2A_Prolific,1,4,2024-02-27T22:14:08+00:00,1.3225800991058,5,Stim_A.csv,Item.csv,Item,A,,,,,,0,Instruct,User,-,"You will now begin the study. Click next when you are ready to begin.",,Instruct16,984,,,-1,-1,,,,,1
5e72a539c600fa1efa380fb6,4o6grhyvi0,Ex2A_Prolific,1,5,2024-02-27T22:14:13+00:00,5.2960028648376,5,Stim_A.csv,Item.csv,Item,A,pane,,Win_1,,,2,JOL,User,1.25,"How likely are you to correctly recall the second item in the pair?|Type your response on a scale from 0-100 and then press Enter.",Window,Win_1,4972,,,2431,3237,,,,79,1
5e72a539c600fa1efa380fb6,4o6grhyvi0,Ex2A_Prolific,1,6,2024-02-27T22:14:18+00:00,4.477331161499,5,Stim_A.csv,Item.csv,Item,A,sill,,Win_2,,,3,JOL,User,1.25,"How likely are you to correctly recall the second item in the pair?|Type your response on a scale from 0-100 and then press Enter.",Window,Win_2,4129,,,2317,2809,,,,78,1
5e72a539c600fa1efa380fb6,4o6grhyvi0,Ex2A_Prolific,1,7,2024-02-27T22:14:21+00:00,3.4116070270538,5,Stim_A.csv,Item.csv,Item,A,shutter,,Win_3,,,4,JOL,User,1.25,"How likely are you to correctly recall the second item in the pair?|Type your response on a scale from 0-100 and then press Enter.",Window,Win_3,3093,,,1483,1673,,,,90,1
5e72a539c600fa1efa380fb6,4o6grhyvi0,Ex2A_Prolific,1,8,2024-02-27T22:14:24+00:00,3.2719478607178,5,Stim_A.csv,Item.csv,Item,A,curtain,,Win_4,,,5,JOL,User,1.25,"How likely are you to correctly recall the second item in the pair?|Type your response on a scale from 0-100 and then press Enter.",Window,Win_4,2935,,,1490,1640,,,,89,1
5e72a539c600fa1efa380fb6,4o6grhyvi0,Ex2A_Prolific,1,9,2024-02-27T22:14:28+00:00,3.5764751434326,5,Stim_A.csv,Item.csv,Item,A,door,,Win_5,,,6,JOL,User,1.25,"How likely are you to correctly recall the second item in the pair?|Type your response on a scale from 0-100 and then press Enter.",Window,Win_5,3240,,,1528,1813,,,,90,1
5e72a539c600fa1efa380fb6,4o6grhyvi0,Ex2A_Prolific,1,10,2024-02-27T22:14:32+00:00,3.8051748275757,5,Stim_A.csv,Item.csv,Item,A,ledge,,Win_6,,,7,JOL,User,1.25,"How likely are you to correctly recall the second item in the pair?|Type your response on a scale from 0-100 and then press Enter.",Window,Win_6,3434,,,1912,2077,,,,90,1
5e72a539c600fa1efa380fb6,4o6grhyvi0,Ex2A_Prolific,1,11,2024-02-27T22:14:36+00:00,4.6182000637054,5,Stim_A.csv,Item.csv,Item,A,glass,,Win_7,,,8,JOL,User,1.25,"How likely are you to correctly recall the second item in the pair?|Type your response on a scale from 0-100 and then press Enter.",Window,Win_7,4283,,,1712,2137,,,,95,1
5e72a539c600fa1efa380fb6,4o6grhyvi0,Ex2A_Prolific,1,12,2024-02-27T22:14:40+00:00,3.8418400287628,5,Stim_A.csv,Item.csv,Item,A,view,,Win_8,,,9,JOL,User,1.25,"How likely are you to correctly recall the second item in the pair?|Type your response on a scale from 0-100 and then press Enter.",Window,Win_8,3502,,,1827,2157,,,,80,1
5e72a539c600fa1efa380fb6,4o6grhyvi0,Ex2A_Prolific,1,13,2024-02-27T22:14:46+00:00,5.7085509300232,5,Stim_A.csv,Item.csv,Item,A,screen,,Win_9,,,10,JOL,User,1.25,"How likely are you to correctly recall the second item in the pair?|Type your response on a scale from 0-100 and then press Enter.",Window,Win_9,5381,,,1755,3522,,,,87,1
5e72a539c600fa1efa380fb6,4o6grhyvi0,Ex2A_Prolific,1,14,2024-02-27T22:14:51+00:00,5.1267421245575,5,Stim_A.csv,Item.csv,Item,A,shade,,Win_10,,,11,JOL,User,1.25,"How likely are you to correctly recall the second item in the pair?|Type your response on a scale from 0-100 and then press Enter.",Window,Win_10,4776,,,2629,2779,,,,90,1
5e72a539c600fa1efa380fb6,4o6grhyvi0,Ex2A_Prolific,1,15,2024-02-27T22:14:54+00:00,3.2363858222961,5,Stim_A.csv,Item.csv,Item,A,open,,Win_11,,,12,JOL,User,1.25,"How likely are you to correctly recall the second item in the pair?|Type your response on a scale from 0-100 and then press Enter.",Window,Win_11,2907,,,1246,1536,,,,80,1
5e72a539c600fa1efa380fb6,4o6grhyvi0,Ex2A_Prolific,1,16,2024-02-27T22:14:58+00:00,3.748015165329,5,Stim_A.csv,Item.csv,Item,A,frame,,Win_12,,,13,JOL,User,1.25,"How likely are you to correctly recall the second item in the pair?|Type your response on a scale from 0-100 and then press Enter.",Window,Win_12,3405,,,1378,1649,,,,80,1
5e72a539c600fa1efa380fb6,4o6grhyvi0,Ex2A_Prolific,1,17,2024-02-27T22:15:19+00:00,20.9485039711,5,Stim_A.csv,Item.csv,Item,A,,,,,,0,Instruct,User,4,"You have completed this section. Please click next.",,Instruct166,20606,,,-1,-1,,,,,0.441
5e72a539c600fa1efa380fb6,4o6grhyvi0,Ex2A_Prolific,1,18,2024-02-27T22:15:49+00:00,30.33966588974,5,Stim_A.csv,Item.csv,Item,A,,,,,,0,FreeRecall,30,30,"Please type as many words as you can that begin with the letter ""M"". The computer will automatically advance to the next screen in 30 seconds.",,FILLER,30001,"mouse monkey machine mail man mallard mandarin mandolin m",0,1574,28881,0,0,,,1
5e72a539c600fa1efa380fb6,4o6grhyvi0,Ex2A_Prolific,1,19,2024-02-27T22:15:51+00:00,2.2138950824738,5,Stim_A.csv,Item.csv,Item,A,,,,,,0,Instruct,User,-,"You have completed this section. Please click next.",,Instruct166,1821,,,-1,-1,,,,,1
5e72a539c600fa1efa380fb6,4o6grhyvi0,Ex2A_Prolific,1,20,2024-02-27T22:15:57+00:00,5.3474199771881,5,Stim_A.csv,Item.csv,Item,A,,,,,,0,Instruct,User,4,"You will now complete a memory test for the words you just studied. Please type as many words from the previous list as you can seperated by a comma. Spelling will not count against you and you can recall the words in any order. This test will be timed for one minute, and the computer will automatically advance once time is up. Click next when you are ready to begin.",,Instruct1666,4717,,,-1,-1,,,,,0.952
5e72a539c600fa1efa380fb6,4o6grhyvi0,Ex2A_Prolific,1,21,2024-02-27T22:16:57+00:00,60.415004968643,5,Stim_A.csv,Item.csv,Item,A,,,,,,0,FreeRecall,60,60,"Please type as many words as you can from the previous study list in any order. Please separate each word with a comma. Spelling will not count against you. This screen will automatically advance in one minute.",,RECALL_Test,60001,"pane, sill, ledge, curtain, window, shutter",0,795,22475,0,0,,,0.944
5e72a539c600fa1efa380fb6,4o6grhyvi0,Ex2A_Prolific,1,22,2024-02-27T22:19:22+00:00,144.63091492653,5,Stim_A.csv,Item.csv,Item,A,,,,,,0,Instruct,User,3,"You will now be presented with a new study list. Click next when you are ready to begin.",,NEXT_LIST,143999,,,-1,-1,,,,,0.193
5e72a539c600fa1efa380fb6,4o6grhyvi0,Ex2A_Prolific,1,23,2024-02-27T22:19:28+00:00,5.6742219924927,5,Stim_A.csv,Item.csv,Item,A,sandpaper,,R1,,,14,JOL,User,1.25,"How likely are you to correctly recall the second item in the pair?|Type your response on a scale from 0-100 and then press Enter.",Rough,R1,5286,,,1727,3639,,,,60,1
5e72a539c600fa1efa380fb6,4o6grhyvi0,Ex2A_Prolific,1,24,2024-02-27T22:19:33+00:00,5.6062831878662,5,Stim_A.csv,Item.csv,Item,A,smooth,,R2,,,15,JOL,User,1.25,"How likely are you to correctly recall the second item in the pair?|Type your response on a scale from 0-100 and then press Enter.",Rough,R2,5251,,,1152,3366,,,,49,1
5e72a539c600fa1efa380fb6,4o6grhyvi0,Ex2A_Prolific,1,25,2024-02-27T22:19:36+00:00,3.3336730003357,5,Stim_A.csv,Item.csv,Item,A,coarse,,R3,,,16,JOL,User,1.25,"How likely are you to correctly recall the second item in the pair?|Type your response on a scale from 0-100 and then press Enter.",Rough,R3,3004,,,1360,1674,,,,50,1
5e72a539c600fa1efa380fb6,4o6grhyvi0,Ex2A_Prolific,1,26,2024-02-27T22:19:41+00:00,4.2436249256134,5,Stim_A.csv,Item.csv,Item,A,tough,,R4,,,17,JOL,User,1.25,"How likely are you to correctly recall the second item in the pair?|Type your response on a scale from 0-100 and then press Enter.",Rough,R4,3909,,,1666,1970,,,,65,1
5e72a539c600fa1efa380fb6,4o6grhyvi0,Ex2A_Prolific,1,27,2024-02-27T22:19:45+00:00,3.938215970993,5,Stim_A.csv,Item.csv,Item,A,rugged,,R5,,,18,JOL,User,1.25,"How likely are you to correctly recall the second item in the pair?|Type your response on a scale from 0-100 and then press Enter.",Rough,R5,3601,,,1552,2237,,,,40,1
5e72a539c600fa1efa380fb6,4o6grhyvi0,Ex2A_Prolific,1,28,2024-02-27T22:19:48+00:00,3.5718860626221,5,Stim_A.csv,Item.csv,Item,A,bumpy,,R6,,,19,JOL,User,1.25,"How likely are you to correctly recall the second item in the pair?|Type your response on a scale from 0-100 and then press Enter.",Rough,R6,3219,,,1511,1906,,,,75,1
5e72a539c600fa1efa380fb6,4o6grhyvi0,Ex2A_Prolific,1,29,2024-02-27T22:19:52+00:00,3.2886030673981,5,Stim_A.csv,Item.csv,Item,A,jagged,,R7,,,20,JOL,User,1.25,"How likely are you to correctly recall the second item in the pair?|Type your response on a scale from 0-100 and then press Enter.",Rough,R7,2949,,,1389,1694,,,,60,1
5e72a539c600fa1efa380fb6,4o6grhyvi0,Ex2A_Prolific,1,30,2024-02-27T22:19:55+00:00,3.512326002121,5,Stim_A.csv,Item.csv,Item,A,riders,,R8,,,21,JOL,User,1.25,"How likely are you to correctly recall the second item in the pair?|Type your response on a scale from 0-100 and then press Enter.",Rough,R8,3179,,,1470,1826,,,,30,1
5e72a539c600fa1efa380fb6,4o6grhyvi0,Ex2A_Prolific,1,31,2024-02-27T22:19:58+00:00,3.0119078159332,5,Stim_A.csv,Item.csv,Item,A,uneven,,R9,,,22,JOL,User,1.25,"How likely are you to correctly recall the second item in the pair?|Type your response on a scale from 0-100 and then press Enter.",Rough,R9,2667,,,1065,1405,,,,60,1
5e72a539c600fa1efa380fb6,4o6grhyvi0,Ex2A_Prolific,1,32,2024-02-27T22:20:01+00:00,2.9321529865265,5,Stim_A.csv,Item.csv,Item,A,road,,R10,,,23,JOL,User,1.25,"How likely are you to correctly recall the second item in the pair?|Type your response on a scale from 0-100 and then press Enter.",Rough,R10,2603,,,989,1320,,,,40,1
5e72a539c600fa1efa380fb6,4o6grhyvi0,Ex2A_Prolific,1,33,2024-02-27T22:20:05+00:00,3.8086361885071,5,Stim_A.csv,Item.csv,Item,A,ready,,R11,,,24,JOL,User,1.25,"How likely are you to correctly recall the second item in the pair?|Type your response on a scale from 0-100 and then press Enter.",Rough,R11,3467,,,1289,1689,,,,40,1
5e72a539c600fa1efa380fb6,4o6grhyvi0,Ex2A_Prolific,1,34,2024-02-27T22:20:09+00:00,3.8047888278961,5,Stim_A.csv,Item.csv,Item,A,sand,,R12,,,25,JOL,User,1.25,"How likely are you to correctly recall the second item in the pair?|Type your response on a scale from 0-100 and then press Enter.",Rough,R12,3468,,,1810,2135,,,,40,1
5e72a539c600fa1efa380fb6,4o6grhyvi0,Ex2A_Prolific,1,35,2024-02-27T22:20:42+00:00,33.280884981155,5,Stim_A.csv,Item.csv,Item,A,,,,,,0,Instruct,User,4,"You have completed this section. Please click next.",,Instruct166,32931,,,-1,-1,,,,,0.34
5e72a539c600fa1efa380fb6,4o6grhyvi0,Ex2A_Prolific,1,36,2024-02-27T22:21:12+00:00,30.355372190475,5,Stim_A.csv,Item.csv,Item,A,,,,,,0,FreeRecall,30,30,"Please type as many words as you can that begin with the letter ""C"". The computer will automatically advance to the next screen in 30 seconds.",,FILLER,30002,"clam cap calm clap crab choir chord child ",0,1377,29301,0,0,,,1
5e72a539c600fa1efa380fb6,4o6grhyvi0,Ex2A_Prolific,1,37,2024-02-27T22:21:15+00:00,2.5226678848267,5,Stim_A.csv,Item.csv,Item,A,,,,,,0,Instruct,User,-,"You have completed this section. Please click next.",,Instruct166,2170,,,-1,-1,,,,,1
5e72a539c600fa1efa380fb6,4o6grhyvi0,Ex2A_Prolific,1,38,2024-02-27T22:21:29+00:00,14.025890111923,5,Stim_A.csv,Item.csv,Item,A,,,,,,0,Instruct,User,4,"You will now complete a memory test for the words you just studied. Please type as many words from the previous list as you can seperated by a comma. Spelling will not count against you and you can recall the words in any order. This test will be timed for one minute, and the computer will automatically advance once time is up. Click next when you are ready to begin.",,Instruct1666,13675,,,-1,-1,,,,,0.556
5e72a539c600fa1efa380fb6,4o6grhyvi0,Ex2A_Prolific,1,39,2024-02-27T22:22:29+00:00,60.38516998291,5,Stim_A.csv,Item.csv,Item,A,,,,,,0,FreeRecall,60,60,"Please type as many words as you can from the previous study list in any order. Please separate each word with a comma. Spelling will not count against you. This screen will automatically advance in one minute.",,RECALL_Test,60019,"sandpaper, smooth, riders, rough, bumpy, jagged, sand",0,1142,18797,0,0,,,0.811
5e72a539c600fa1efa380fb6,4o6grhyvi0,Ex2A_Prolific,1,40,2024-02-27T22:22:36+00:00,6.5282528400421,5,Stim_A.csv,Item.csv,Item,A,,,,,,0,Instruct,User,3,"You will now be presented with a new study list. Click next when you are ready to begin.",,NEXT_LIST,6179,,,-1,-1,,,,,0.538
5e72a539c600fa1efa380fb6,4o6grhyvi0,Ex2A_Prolific,1,41,2024-02-27T22:22:41+00:00,5.6864540576935,5,Stim_A.csv,Item.csv,Item,A,rage,,A1,,,26,JOL,User,1.25,"How likely are you to correctly recall the second item in the pair?|Type your response on a scale from 0-100 and then press Enter.",Anger,A1,5350,,,3689,5037,,,,40,1
5e72a539c600fa1efa380fb6,4o6grhyvi0,Ex2A_Prolific,1,42,2024-02-27T22:22:43+00:00,2.0159709453583,5,Stim_A.csv,Item.csv,Item,A,mad,,A2,,,27,JOL,User,1.25,"How likely are you to correctly recall the second item in the pair?|Type your response on a scale from 0-100 and then press Enter.",Anger,A2,1667,,,1187,1357,,,,45,1
5e72a539c600fa1efa380fb6,4o6grhyvi0,Ex2A_Prolific,1,43,2024-02-27T22:22:46+00:00,2.3260731697083,5,Stim_A.csv,Item.csv,Item,A,enrage,,A3,,,28,JOL,User,1.25,"How likely are you to correctly recall the second item in the pair?|Type your response on a scale from 0-100 and then press Enter.",Anger,A3,2002,,,1372,1712,,,,40,1
5e72a539c600fa1efa380fb6,4o6grhyvi0,Ex2A_Prolific,1,44,2024-02-27T22:22:48+00:00,2.4000689983368,5,Stim_A.csv,Item.csv,Item,A,fury,,A4,,,29,JOL,User,1.25,"How likely are you to correctly recall the second item in the pair?|Type your response on a scale from 0-100 and then press Enter.",Anger,A4,2054,,,1059,1754,,,,40,1
5e72a539c600fa1efa380fb6,4o6grhyvi0,Ex2A_Prolific,1,45,2024-02-27T22:22:50+00:00,2.1865499019623,5,Stim_A.csv,Item.csv,Item,A,temper,,A5,,,30,JOL,User,1.25,"How likely are you to correctly recall the second item in the pair?|Type your response on a scale from 0-100 and then press Enter.",Anger,A5,1475,,,949,1236,,,,60,1
5e72a539c600fa1efa380fb6,4o6grhyvi0,Ex2A_Prolific,1,46,2024-02-27T22:22:52+00:00,1.8617370128632,5,Stim_A.csv,Item.csv,Item,A,ire,,A6,,,31,JOL,User,1.25,"How likely are you to correctly recall the second item in the pair?|Type your response on a scale from 0-100 and then press Enter.",Anger,A6,1514,,,1018,1278,,,,60,1
5e72a539c600fa1efa380fb6,4o6grhyvi0,Ex2A_Prolific,1,47,2024-02-27T22:22:54+00:00,2.1386959552765,5,Stim_A.csv,Item.csv,Item,A,wrath,,A7,,,32,JOL,User,1.25,"How likely are you to correctly recall the second item in the pair?|Type your response on a scale from 0-100 and then press Enter.",Anger,A7,1791,,,1026,1416,,,,40,1
5e72a539c600fa1efa380fb6,4o6grhyvi0,Ex2A_Prolific,1,48,2024-02-27T22:22:56+00:00,1.9121329784393,5,Stim_A.csv,Item.csv,Item,A,mean,,A8,,,33,JOL,User,1.25,"How likely are you to correctly recall the second item in the pair?|Type your response on a scale from 0-100 and then press Enter.",Anger,A8,1567,,,1061,1216,,,,55,1
5e72a539c600fa1efa380fb6,4o6grhyvi0,Ex2A_Prolific,1,49,2024-02-27T22:22:58+00:00,2.1820640563965,5,Stim_A.csv,Item.csv,Item,A,hatred,,A9,,,34,JOL,User,1.25,"How likely are you to correctly recall the second item in the pair?|Type your response on a scale from 0-100 and then press Enter.",Anger,A9,1831,,,1331,1526,,,,55,1
5e72a539c600fa1efa380fb6,4o6grhyvi0,Ex2A_Prolific,1,50,2024-02-27T22:23:02+00:00,3.2802350521088,5,Stim_A.csv,Item.csv,Item,A,fight,,A10,,,35,JOL,User,1.25,"How likely are you to correctly recall the second item in the pair?|Type your response on a scale from 0-100 and then press Enter.",Anger,A10,2941,,,1003,2641,,,,40,1
5e72a539c600fa1efa380fb6,4o6grhyvi0,Ex2A_Prolific,1,51,2024-02-27T22:23:04+00:00,2.0727078914642,5,Stim_A.csv,Item.csv,Item,A,hate,,A11,,,36,JOL,User,1.25,"How likely are you to correctly recall the second item in the pair?|Type your response on a scale from 0-100 and then press Enter.",Anger,A11,1730,,,1050,1375,,,,40,1
5e72a539c600fa1efa380fb6,4o6grhyvi0,Ex2A_Prolific,1,52,2024-02-27T22:23:06+00:00,1.9344880580902,5,Stim_A.csv,Item.csv,Item,A,fear,,A12,,,37,JOL,User,1.25,"How likely are you to correctly recall the second item in the pair?|Type your response on a scale from 0-100 and then press Enter.",Anger,A12,1597,,,835,1216,,,,40,1
5e72a539c600fa1efa380fb6,4o6grhyvi0,Ex2A_Prolific,1,53,2024-02-27T22:23:07+00:00,1.4146440029144,5,Stim_A.csv,Item.csv,Item,A,,,,,,0,Instruct,User,-,"You have completed this section. Please click next.",,Instruct166,1074,,,-1,-1,,,,,1
5e72a539c600fa1efa380fb6,4o6grhyvi0,Ex2A_Prolific,1,54,2024-02-27T22:23:37+00:00,30.342243909836,5,Stim_A.csv,Item.csv,Item,A,,,,,,0,FreeRecall,30,30,"Please type as many words as you can that begin with the letter ""T"". The computer will automatically advance to the next screen in 30 seconds.",,FILLER,30001,"tree tap tarp trouble terror tongue top tip toe tooth t",0,2070,29994,0,0,,,1
5e72a539c600fa1efa380fb6,4o6grhyvi0,Ex2A_Prolific,1,55,2024-02-27T22:23:41+00:00,3.3179140090942,5,Stim_A.csv,Item.csv,Item,A,,,,,,0,Instruct,User,-,"You have completed this section. Please click next.",,Instruct166,2983,,,57,57,,,,,1
5e72a539c600fa1efa380fb6,4o6grhyvi0,Ex2A_Prolific,1,56,2024-02-27T22:23:55+00:00,14.050428152084,5,Stim_A.csv,Item.csv,Item,A,,,,,,0,Instruct,User,4,"You will now complete a memory test for the words you just studied. Please type as many words from the previous list as you can seperated by a comma. Spelling will not count against you and you can recall the words in any order. This test will be timed for one minute, and the computer will automatically advance once time is up. Click next when you are ready to begin.",,Instruct1666,13590,,,-1,-1,,,,,0.556
5e72a539c600fa1efa380fb6,4o6grhyvi0,Ex2A_Prolific,1,57,2024-02-27T22:24:56+00:00,61.32351899147,5,Stim_A.csv,Item.csv,Item,A,,,,,,0,FreeRecall,60,60,"Please type as many words as you can from the previous study list in any order. Please separate each word with a comma. Spelling will not count against you. This screen will automatically advance in one minute.",,RECALL_Test,60983,"rage, enrage, mad, ire",0,895,8508,0,0,,,0.621
5e72a539c600fa1efa380fb6,4o6grhyvi0,Ex2A_Prolific,1,58,2024-02-27T22:25:22+00:00,26.001572847366,5,Stim_A.csv,Item.csv,Item,A,,,,,,0,Instruct,User,3,"You will now be presented with a new study list. Click next when you are ready to begin.",,NEXT_LIST,25641,,,-1,-1,,,,,0.4
5e72a539c600fa1efa380fb6,4o6grhyvi0,Ex2A_Prolific,1,59,2024-02-27T22:25:26+00:00,3.4273722171783,5,Stim_A.csv,Item.csv,Item,A,garbage,,T1,,,38,JOL,User,1.25,"How likely are you to correctly recall the second item in the pair?|Type your response on a scale from 0-100 and then press Enter.",Trash,T1,3083,,,2212,2482,,,,70,1
5e72a539c600fa1efa380fb6,4o6grhyvi0,Ex2A_Prolific,1,60,2024-02-27T22:25:27+00:00,1.7772779464722,5,Stim_A.csv,Item.csv,Item,A,rubbish,,T2,,,39,JOL,User,1.25,"How likely are you to correctly recall the second item in the pair?|Type your response on a scale from 0-100 and then press Enter.",Trash,T2,1443,,,886,1187,,,,70,1
5e72a539c600fa1efa380fb6,4o6grhyvi0,Ex2A_Prolific,1,61,2024-02-27T22:25:29+00:00,2.1266939640045,5,Stim_A.csv,Item.csv,Item,A,debris,,T3,,,40,JOL,User,1.25,"How likely are you to correctly recall the second item in the pair?|Type your response on a scale from 0-100 and then press Enter.",Trash,T3,1771,,,1155,1506,,,,50,1
5e72a539c600fa1efa380fb6,4o6grhyvi0,Ex2A_Prolific,1,62,2024-02-27T22:25:33+00:00,3.4985198974609,5,Stim_A.csv,Item.csv,Item,A,dump,,T4,,,41,JOL,User,1.25,"How likely are you to correctly recall the second item in the pair?|Type your response on a scale from 0-100 and then press Enter.",Trash,T4,3157,,,2326,2666,,,,30,1
5e72a539c600fa1efa380fb6,4o6grhyvi0,Ex2A_Prolific,1,63,2024-02-27T22:25:35+00:00,2.1118640899658,5,Stim_A.csv,Item.csv,Item,A,litter,,T5,,,42,JOL,User,1.25,"How likely are you to correctly recall the second item in the pair?|Type your response on a scale from 0-100 and then press Enter.",Trash,T5,1762,,,1131,1501,,,,40,1
5e72a539c600fa1efa380fb6,4o6grhyvi0,Ex2A_Prolific,1,64,2024-02-27T22:25:38+00:00,2.6843249797821,5,Stim_A.csv,Item.csv,Item,A,landfill,,T6,,,43,JOL,User,1.25,"How likely are you to correctly recall the second item in the pair?|Type your response on a scale from 0-100 and then press Enter.",Trash,T6,2355,,,1720,2055,,,,40,1
5e72a539c600fa1efa380fb6,4o6grhyvi0,Ex2A_Prolific,1,65,2024-02-27T22:25:40+00:00,2.454402923584,5,Stim_A.csv,Item.csv,Item,A,junk,,T7,,,44,JOL,User,1.25,"How likely are you to correctly recall the second item in the pair?|Type your response on a scale from 0-100 and then press Enter.",Trash,T7,2110,,,1495,1825,,,,50,1
5e72a539c600fa1efa380fb6,4o6grhyvi0,Ex2A_Prolific,1,66,2024-02-27T22:25:43+00:00,2.350161075592,5,Stim_A.csv,Item.csv,Item,A,waste,,T8,,,45,JOL,User,1.25,"How likely are you to correctly recall the second item in the pair?|Type your response on a scale from 0-100 and then press Enter.",Trash,T8,1984,,,487,803,,,,60,1
5e72a539c600fa1efa380fb6,4o6grhyvi0,Ex2A_Prolific,1,67,2024-02-27T22:25:44+00:00,1.7876799106598,5,Stim_A.csv,Item.csv,Item,A,sewage,,T9,,,46,JOL,User,1.25,"How likely are you to correctly recall the second item in the pair?|Type your response on a scale from 0-100 and then press Enter.",Trash,T9,1436,,,755,1130,,,,50,1
5e72a539c600fa1efa380fb6,4o6grhyvi0,Ex2A_Prolific,1,68,2024-02-27T22:25:47+00:00,2.252711057663,5,Stim_A.csv,Item.csv,Item,A,pile,,T10,,,47,JOL,User,1.25,"How likely are you to correctly recall the second item in the pair?|Type your response on a scale from 0-100 and then press Enter.",Trash,T10,1906,,,794,1525,,,,70,1
5e72a539c600fa1efa380fb6,4o6grhyvi0,Ex2A_Prolific,1,69,2024-02-27T22:25:49+00:00,2.2123711109161,5,Stim_A.csv,Item.csv,Item,A,scraps,,T11,,,48,JOL,User,1.25,"How likely are you to correctly recall the second item in the pair?|Type your response on a scale from 0-100 and then press Enter.",Trash,T11,1865,,,483,853,,,,50,1
5e72a539c600fa1efa380fb6,4o6grhyvi0,Ex2A_Prolific,1,70,2024-02-27T22:25:50+00:00,1.6152758598328,5,Stim_A.csv,Item.csv,Item,A,refuse,,T12,,,49,JOL,User,1.25,"How likely are you to correctly recall the second item in the pair?|Type your response on a scale from 0-100 and then press Enter.",Trash,T12,1270,,,595,985,,,,60,1
5e72a539c600fa1efa380fb6,4o6grhyvi0,Ex2A_Prolific,1,71,2024-02-27T22:26:05+00:00,14.598289966583,5,Stim_A.csv,Item.csv,Item,A,,,,,,0,Instruct,User,4,"You have completed this section. Please click next.",,Instruct166,14264,,,-1,-1,,,,,0.625
5e72a539c600fa1efa380fb6,4o6grhyvi0,Ex2A_Prolific,1,72,2024-02-27T22:26:35+00:00,30.397119045258,5,Stim_A.csv,Item.csv,Item,A,,,,,,0,FreeRecall,30,30,"Please type as many words as you can that begin with the letter ""K"". The computer will automatically advance to the next screen in 30 seconds.",,FILLER,30001,"king koi kill kick kiss kind ",0,1363,20541,0,0,,,1
5e72a539c600fa1efa380fb6,4o6grhyvi0,Ex2A_Prolific,1,73,2024-02-27T22:26:38+00:00,2.6419730186462,5,Stim_A.csv,Item.csv,Item,A,,,,,,0,Instruct,User,-,"You have completed this section. Please click next.",,Instruct166,2296,,,-1,-1,,,,,1
5e72a539c600fa1efa380fb6,4o6grhyvi0,Ex2A_Prolific,1,74,2024-02-27T22:26:52+00:00,14.181267023087,5,Stim_A.csv,Item.csv,Item,A,,,,,,0,Instruct,User,4,"You will now complete a memory test for the words you just studied. Please type as many words from the previous list as you can seperated by a comma. Spelling will not count against you and you can recall the words in any order. This test will be timed for one minute, and the computer will automatically advance once time is up. Click next when you are ready to begin.",,Instruct1666,13847,,,-1,-1,,,,,0.556
5e72a539c600fa1efa380fb6,4o6grhyvi0,Ex2A_Prolific,1,75,2024-02-27T22:27:53+00:00,60.90335392952,5,Stim_A.csv,Item.csv,Item,A,,,,,,0,FreeRecall,60,60,"Please type as many words as you can from the previous study list in any order. Please separate each word with a comma. Spelling will not count against you. This screen will automatically advance in one minute.",,RECALL_Test,60037,"garbage, debris, waste, dump, rubbish",0,1244,14181,0,0,,,0.698
5e72a539c600fa1efa380fb6,4o6grhyvi0,Ex2A_Prolific,1,76,2024-02-27T22:28:12+00:00,18.97279715538,5,Stim_A.csv,Item.csv,Item,A,,,,,,0,Instruct,User,3,"You will now be presented with a new study list. Click next when you are ready to begin.",,NEXT_LIST,18612,,,-1,-1,,,,,0.333
5e72a539c600fa1efa380fb6,4o6grhyvi0,Ex2A_Prolific,1,77,2024-02-27T22:28:15+00:00,2.7555458545685,5,Stim_A.csv,Item.csv,Item,A,physician,,D1,,,50,JOL,User,1.25,"How likely are you to correctly recall the second item in the pair?|Type your response on a scale from 0-100 and then press Enter.",Doctor,D1,2404,,,1679,2082,,,,70,1
5e72a539c600fa1efa380fb6,4o6grhyvi0,Ex2A_Prolific,1,78,2024-02-27T22:28:17+00:00,2.4814910888672,5,Stim_A.csv,Item.csv,Item,A,nurse,,D2,,,51,JOL,User,1.25,"How likely are you to correctly recall the second item in the pair?|Type your response on a scale from 0-100 and then press Enter.",Doctor,D2,2128,,,525,866,,,,50,1
5e72a539c600fa1efa380fb6,4o6grhyvi0,Ex2A_Prolific,1,79,2024-02-27T22:28:20+00:00,2.3309118747711,5,Stim_A.csv,Item.csv,Item,A,stethoscope,,D3,,,52,JOL,User,1.25,"How likely are you to correctly recall the second item in the pair?|Type your response on a scale from 0-100 and then press Enter.",Doctor,D3,1946,,,1315,1635,,,,60,1
5e72a539c600fa1efa380fb6,4o6grhyvi0,Ex2A_Prolific,1,80,2024-02-27T22:28:22+00:00,1.8332860469818,5,Stim_A.csv,Item.csv,Item,A,surgeon,,D4,,,53,JOL,User,1.25,"How likely are you to correctly recall the second item in the pair?|Type your response on a scale from 0-100 and then press Enter.",Doctor,D4,1477,,,827,1192,,,,60,1
5e72a539c600fa1efa380fb6,4o6grhyvi0,Ex2A_Prolific,1,81,2024-02-27T22:28:24+00:00,2.1606161594391,5,Stim_A.csv,Item.csv,Item,A,patient,,D5,,,54,JOL,User,1.25,"How likely are you to correctly recall the second item in the pair?|Type your response on a scale from 0-100 and then press Enter.",Doctor,D5,1801,,,360,716,,,,60,1
5e72a539c600fa1efa380fb6,4o6grhyvi0,Ex2A_Prolific,1,82,2024-02-27T22:28:26+00:00,2.6930708885193,5,Stim_A.csv,Item.csv,Item,A,clinic,,D6,,,55,JOL,User,1.25,"How likely are you to correctly recall the second item in the pair?|Type your response on a scale from 0-100 and then press Enter.",Doctor,D6,2338,,,1026,1836,,,,40,1
5e72a539c600fa1efa380fb6,4o6grhyvi0,Ex2A_Prolific,1,83,2024-02-27T22:28:28+00:00,1.9691479206085,5,Stim_A.csv,Item.csv,Item,A,dentist,,D7,,,56,JOL,User,1.25,"How likely are you to correctly recall the second item in the pair?|Type your response on a scale from 0-100 and then press Enter.",Doctor,D7,1612,,,1082,1361,,,,70,1
5e72a539c600fa1efa380fb6,4o6grhyvi0,Ex2A_Prolific,1,84,2024-02-27T22:28:30+00:00,1.6506330966949,5,Stim_A.csv,Item.csv,Item,A,medicine,,D8,,,57,JOL,User,1.25,"How likely are you to correctly recall the second item in the pair?|Type your response on a scale from 0-100 and then press Enter.",Doctor,D8,1298,,,818,1078,,,,70,1
5e72a539c600fa1efa380fb6,4o6grhyvi0,Ex2A_Prolific,1,85,2024-02-27T22:28:32+00:00,2.1226360797882,5,Stim_A.csv,Item.csv,Item,A,lawyer,,D9,,,58,JOL,User,1.25,"How likely are you to correctly recall the second item in the pair?|Type your response on a scale from 0-100 and then press Enter.",Doctor,D9,1788,,,1203,1552,,,,40,1
5e72a539c600fa1efa380fb6,4o6grhyvi0,Ex2A_Prolific,1,86,2024-02-27T22:28:34+00:00,2.1620359420776,5,Stim_A.csv,Item.csv,Item,A,health,,D10,,,59,JOL,User,1.25,"How likely are you to correctly recall the second item in the pair?|Type your response on a scale from 0-100 and then press Enter.",Doctor,D10,1821,,,649,964,,,,70,1
5e72a539c600fa1efa380fb6,4o6grhyvi0,Ex2A_Prolific,1,87,2024-02-27T22:28:36+00:00,1.8632090091705,5,Stim_A.csv,Item.csv,Item,A,sick,,D11,,,60,JOL,User,1.25,"How likely are you to correctly recall the second item in the pair?|Type your response on a scale from 0-100 and then press Enter.",Doctor,D11,1517,,,952,1262,,,,70,1
5e72a539c600fa1efa380fb6,4o6grhyvi0,Ex2A_Prolific,1,88,2024-02-27T22:28:38+00:00,1.6783900260925,5,Stim_A.csv,Item.csv,Item,A,cure,,D12,,,61,JOL,User,1.25,"How likely are you to correctly recall the second item in the pair?|Type your response on a scale from 0-100 and then press Enter.",Doctor,D12,1302,,,737,1041,,,,70,1
5e72a539c600fa1efa380fb6,4o6grhyvi0,Ex2A_Prolific,1,89,2024-02-27T22:29:07+00:00,28.939790010452,5,Stim_A.csv,Item.csv,Item,A,,,,,,0,Instruct,User,4,"You have completed this section. Please click next.",,Instruct166,28583,,,-1,-1,,,,,0.419
5e72a539c600fa1efa380fb6,4o6grhyvi0,Ex2A_Prolific,1,90,2024-02-27T22:29:37+00:00,30.39741897583,5,Stim_A.csv,Item.csv,Item,A,,,,,,0,FreeRecall,30,30,"Please type as many words as you can that begin with the letter ""S"". The computer will automatically advance to the next screen in 30 seconds.",,FILLER,30052,"sugar ship stare smile sing song sand sandpaper",0,1789,21083,0,0,,,0.953
5e72a539c600fa1efa380fb6,4o6grhyvi0,Ex2A_Prolific,1,91,2024-02-27T22:29:43+00:00,5.3945958614349,5,Stim_A.csv,Item.csv,Item,A,,,,,,0,Instruct,User,4,"You have completed this section. Please click next.",,Instruct166,5024,,,-1,-1,,,,,0.583
5e72a539c600fa1efa380fb6,4o6grhyvi0,Ex2A_Prolific,1,92,2024-02-27T22:29:52+00:00,9.6659331321716,5,Stim_A.csv,Item.csv,Item,A,,,,,,0,Instruct,User,4,"You will now complete a memory test for the words you just studied. Please type as many words from the previous list as you can seperated by a comma. Spelling will not count against you and you can recall the words in any order. This test will be timed for one minute, and the computer will automatically advance once time is up. Click next when you are ready to begin.",,Instruct1666,9327,,,-1,-1,,,,,1
5e72a539c600fa1efa380fb6,4o6grhyvi0,Ex2A_Prolific,1,93,2024-02-27T22:30:53+00:00,60.336302042007,5,Stim_A.csv,Item.csv,Item,A,,,,,,0,FreeRecall,60,60,"Please type as many words as you can from the previous study list in any order. Please separate each word with a comma. Spelling will not count against you. This screen will automatically advance in one minute.",,RECALL_Test,60001,"medicine, health, physician, nurse, clinic, stethoscope",0,907,21759,0,0,,,0.816
5e72a539c600fa1efa380fb6,4o6grhyvi0,Ex2A_Prolific,1,94,2024-02-27T22:31:05+00:00,12.758674860001,5,Stim_A.csv,Item.csv,Item,A,,,,,,0,Instruct,User,3,"You will now be presented with a new study list. Click next when you are ready to begin.",,NEXT_LIST,12420,,,-1,-1,,,,,1
5e72a539c600fa1efa380fb6,4o6grhyvi0,Ex2A_Prolific,1,95,2024-02-27T22:31:08+00:00,2.9112710952759,5,Stim_A.csv,Item.csv,Item,A,fast,,S1,,,62,JOL,User,1.25,"How likely are you to correctly recall the second item in the pair?|Type your response on a scale from 0-100 and then press Enter.",Slow,S1,2567,,,2062,2273,,,,70,1
5e72a539c600fa1efa380fb6,4o6grhyvi0,Ex2A_Prolific,1,96,2024-02-27T22:31:10+00:00,1.9322118759155,5,Stim_A.csv,Item.csv,Item,A,snail,,S2,,,63,JOL,User,1.25,"How likely are you to correctly recall the second item in the pair?|Type your response on a scale from 0-100 and then press Enter.",Slow,S2,1601,,,1051,1361,,,,50,1
5e72a539c600fa1efa380fb6,4o6grhyvi0,Ex2A_Prolific,1,97,2024-02-27T22:31:12+00:00,2.2394540309906,5,Stim_A.csv,Item.csv,Item,A,turtle,,S3,,,64,JOL,User,1.25,"How likely are you to correctly recall the second item in the pair?|Type your response on a scale from 0-100 and then press Enter.",Slow,S3,1883,,,1058,1638,,,,70,1
5e72a539c600fa1efa380fb6,4o6grhyvi0,Ex2A_Prolific,1,98,2024-02-27T22:31:14+00:00,1.8241209983826,5,Stim_A.csv,Item.csv,Item,A,sluggish,,S4,,,65,JOL,User,1.25,"How likely are you to correctly recall the second item in the pair?|Type your response on a scale from 0-100 and then press Enter.",Slow,S4,1477,,,841,1192,,,,50,1
5e72a539c600fa1efa380fb6,4o6grhyvi0,Ex2A_Prolific,1,99,2024-02-27T22:31:16+00:00,2.1537599563599,5,Stim_A.csv,Item.csv,Item,A,quick,,S5,,,66,JOL,User,1.25,"How likely are you to correctly recall the second item in the pair?|Type your response on a scale from 0-100 and then press Enter.",Slow,S5,1818,,,456,841,,,,60,1
5e72a539c600fa1efa380fb6,4o6grhyvi0,Ex2A_Prolific,1,100,2024-02-27T22:31:19+00:00,2.8166790008545,5,Stim_A.csv,Item.csv,Item,A,molasses,,S6,,,67,JOL,User,1.25,"How likely are you to correctly recall the second item in the pair?|Type your response on a scale from 0-100 and then press Enter.",Slow,S6,2482,,,874,1149,,,,43,1
5e72a539c600fa1efa380fb6,4o6grhyvi0,Ex2A_Prolific,1,101,2024-02-27T22:31:21+00:00,2.0697011947632,5,Stim_A.csv,Item.csv,Item,A,lethargic,,S7,,,68,JOL,User,1.25,"How likely are you to correctly recall the second item in the pair?|Type your response on a scale from 0-100 and then press Enter.",Slow,S7,1717,,,1160,1464,,,,70,1
5e72a539c600fa1efa380fb6,4o6grhyvi0,Ex2A_Prolific,1,102,2024-02-27T22:31:23+00:00,2.2009270191193,5,Stim_A.csv,Item.csv,Item,A,speed,,S8,,,69,JOL,User,1.25,"How likely are you to correctly recall the second item in the pair?|Type your response on a scale from 0-100 and then press Enter.",Slow,S8,1873,,,526,835,,,,60,1
5e72a539c600fa1efa380fb6,4o6grhyvi0,Ex2A_Prolific,1,103,2024-02-27T22:31:27+00:00,3.074236869812,5,Stim_A.csv,Item.csv,Item,A,delay,,S9,,,70,JOL,User,1.25,"How likely are you to correctly recall the second item in the pair?|Type your response on a scale from 0-100 and then press Enter.",Slow,S9,2740,,,2249,2495,,,,70,1
5e72a539c600fa1efa380fb6,4o6grhyvi0,Ex2A_Prolific,1,104,2024-02-27T22:31:29+00:00,2.4373710155487,5,Stim_A.csv,Item.csv,Item,A,hesitant,,S10,,,71,JOL,User,1.25,"How likely are you to correctly recall the second item in the pair?|Type your response on a scale from 0-100 and then press Enter.",Slow,S10,2089,,,1478,1798,,,,50,1
5e72a539c600fa1efa380fb6,4o6grhyvi0,Ex2A_Prolific,1,105,2024-02-27T22:31:31+00:00,2.0960988998413,5,Stim_A.csv,Item.csv,Item,A,cautious,,S11,,,72,JOL,User,1.25,"How likely are you to correctly recall the second item in the pair?|Type your response on a scale from 0-100 and then press Enter.",Slow,S11,1764,,,848,1423,,,,70,1
5e72a539c600fa1efa380fb6,4o6grhyvi0,Ex2A_Prolific,1,106,2024-02-27T22:31:35+00:00,3.7559671401978,5,Stim_A.csv,Item.csv,Item,A,traffic,,S12,,,73,JOL,User,1.25,"How likely are you to correctly recall the second item in the pair?|Type your response on a scale from 0-100 and then press Enter.",Slow,S12,3421,,,2094,2504,,,,60,1
5e72a539c600fa1efa380fb6,4o6grhyvi0,Ex2A_Prolific,1,107,2024-02-27T22:31:36+00:00,1.4600949287415,5,Stim_A.csv,Item.csv,Item,A,,,,,,0,Instruct,User,-,"You have completed this section. Please click next.",,Instruct166,1064,,,-1,-1,,,,,1
5e72a539c600fa1efa380fb6,4o6grhyvi0,Ex2A_Prolific,1,108,2024-02-27T22:32:07+00:00,30.341454982758,5,Stim_A.csv,Item.csv,Item,A,,,,,,0,FreeRecall,30,30,"Please type as many words as you can that begin with the letter ""R"". The computer will automatically advance to the next screen in 30 seconds.",,FILLER,30000,"rat route router rout rip red rod rad rid rude ride raid ramp raft",0,1391,29790,0,0,,,1
5e72a539c600fa1efa380fb6,4o6grhyvi0,Ex2A_Prolific,1,109,2024-02-27T22:32:09+00:00,2.4989819526672,5,Stim_A.csv,Item.csv,Item,A,,,,,,0,Instruct,User,-,"You have completed this section. Please click next.",,Instruct166,2157,,,-1,-1,,,,,1
5e72a539c600fa1efa380fb6,4o6grhyvi0,Ex2A_Prolific,1,110,2024-02-27T22:32:17+00:00,7.9643490314484,5,Stim_A.csv,Item.csv,Item,A,,,,,,0,Instruct,User,4,"You will now complete a memory test for the words you just studied. Please type as many words from the previous list as you can seperated by a comma. Spelling will not count against you and you can recall the words in any order. This test will be timed for one minute, and the computer will automatically advance once time is up. Click next when you are ready to begin.",,Instruct1666,7634,,,-1,-1,,,,,1
5e72a539c600fa1efa380fb6,4o6grhyvi0,Ex2A_Prolific,1,111,2024-02-27T22:33:18+00:00,61.055070161819,5,Stim_A.csv,Item.csv,Item,A,,,,,,0,FreeRecall,60,60,"Please type as many words as you can from the previous study list in any order. Please separate each word with a comma. Spelling will not count against you. This screen will automatically advance in one minute.",,RECALL_Test,60707,"sluggish, fast, speed, molasses, snail, turtle",0,1036,26578,0,0,,,0.822
5e72a539c600fa1efa380fb6,4o6grhyvi0,Ex2A_Prolific,1,112,2024-02-27T22:33:28+00:00,9.5904488563538,5,Stim_A.csv,Item.csv,Item,A,,,,,,0,Instruct,User,3,"You will now be presented with a new study list. Click next when you are ready to begin.",,NEXT_LIST,9215,,,-1,-1,,,,,0.375
5e72a539c600fa1efa380fb6,4o6grhyvi0,Ex2A_Prolific,1,113,2024-02-27T22:33:31+00:00,3.6372931003571,5,Stim_A.csv,Item.csv,Item,A,mississippi,,RR1,,,74,JOL,User,1.25,"How likely are you to correctly recall the second item in the pair?|Type your response on a scale from 0-100 and then press Enter.",River,RR1,3307,,,2655,3031,,,,40,1
5e72a539c600fa1efa380fb6,4o6grhyvi0,Ex2A_Prolific,1,114,2024-02-27T22:33:34+00:00,2.450865983963,5,Stim_A.csv,Item.csv,Item,A,creek,,RR2,,,75,JOL,User,1.25,"How likely are you to correctly recall the second item in the pair?|Type your response on a scale from 0-100 and then press Enter.",River,RR2,2115,,,1339,1735,,,,40,1
5e72a539c600fa1efa380fb6,4o6grhyvi0,Ex2A_Prolific,1,115,2024-02-27T22:33:39+00:00,5.0674419403076,5,Stim_A.csv,Item.csv,Item,A,stream,,RR3,,,76,JOL,User,1.25,"How likely are you to correctly recall the second item in the pair?|Type your response on a scale from 0-100 and then press Enter.",River,RR3,4720,,,4129,4424,,,,60,1
5e72a539c600fa1efa380fb6,4o6grhyvi0,Ex2A_Prolific,1,116,2024-02-27T22:33:42+00:00,2.8193070888519,5,Stim_A.csv,Item.csv,Item,A,flow,,RR4,,,77,JOL,User,1.25,"How likely are you to correctly recall the second item in the pair?|Type your response on a scale from 0-100 and then press Enter.",River,RR4,2476,,,1134,1885,,,,50,1
5e72a539c600fa1efa380fb6,4o6grhyvi0,Ex2A_Prolific,1,117,2024-02-27T22:33:44+00:00,1.933305978775,5,Stim_A.csv,Item.csv,Item,A,bridge,,RR5,,,78,JOL,User,1.25,"How likely are you to correctly recall the second item in the pair?|Type your response on a scale from 0-100 and then press Enter.",River,RR5,1599,,,993,1292,,,,70,1
5e72a539c600fa1efa380fb6,4o6grhyvi0,Ex2A_Prolific,1,118,2024-02-27T22:33:48+00:00,4.3017709255219,5,Stim_A.csv,Item.csv,Item,A,brook,,RR6,,,79,JOL,User,1.25,"How likely are you to correctly recall the second item in the pair?|Type your response on a scale from 0-100 and then press Enter.",River,RR6,3971,,,3261,3705,,,,70,1
5e72a539c600fa1efa380fb6,4o6grhyvi0,Ex2A_Prolific,1,119,2024-02-27T22:33:52+00:00,4.4979641437531,5,Stim_A.csv,Item.csv,Item,A,lake,,RR7,,,80,JOL,User,1.25,"How likely are you to correctly recall the second item in the pair?|Type your response on a scale from 0-100 and then press Enter.",River,RR7,4163,,,3463,3863,,,,80,1
5e72a539c600fa1efa380fb6,4o6grhyvi0,Ex2A_Prolific,1,120,2024-02-27T22:33:54+00:00,1.6985819339752,5,Stim_A.csv,Item.csv,Item,A,barge,,RR8,,,81,JOL,User,1.25,"How likely are you to correctly recall the second item in the pair?|Type your response on a scale from 0-100 and then press Enter.",River,RR8,1348,,,774,1118,,,,60,1
5e72a539c600fa1efa380fb6,4o6grhyvi0,Ex2A_Prolific,1,121,2024-02-27T22:33:56+00:00,2.1522870063782,5,Stim_A.csv,Item.csv,Item,A,water,,RR9,,,82,JOL,User,1.25,"How likely are you to correctly recall the second item in the pair?|Type your response on a scale from 0-100 and then press Enter.",River,RR9,1792,,,273,608,,,,40,1
5e72a539c600fa1efa380fb6,4o6grhyvi0,Ex2A_Prolific,1,122,2024-02-27T22:33:58+00:00,2.0144419670105,5,Stim_A.csv,Item.csv,Item,A,boat,,RR10,,,83,JOL,User,1.25,"How likely are you to correctly recall the second item in the pair?|Type your response on a scale from 0-100 and then press Enter.",River,RR10,1651,,,72,1176,,,,60,1
5e72a539c600fa1efa380fb6,4o6grhyvi0,Ex2A_Prolific,1,123,2024-02-27T22:34:01+00:00,2.8851940631866,5,Stim_A.csv,Item.csv,Item,A,tide,,RR11,,,84,JOL,User,1.25,"How likely are you to correctly recall the second item in the pair?|Type your response on a scale from 0-100 and then press Enter.",River,RR11,2513,,,1824,2215,,,,30,1
5e72a539c600fa1efa380fb6,4o6grhyvi0,Ex2A_Prolific,1,124,2024-02-27T22:34:03+00:00,2.2804789543152,5,Stim_A.csv,Item.csv,Item,A,swim,,RR12,,,85,JOL,User,1.25,"How likely are you to correctly recall the second item in the pair?|Type your response on a scale from 0-100 and then press Enter.",River,RR12,1939,,,943,1664,,,,60,1
5e72a539c600fa1efa380fb6,4o6grhyvi0,Ex2A_Prolific,1,125,2024-02-27T22:34:10+00:00,6.8673460483551,5,Stim_A.csv,Item.csv,Item,A,,,,,,0,Instruct,User,4,"You have completed this section. Please click next.",,Instruct166,6497,,,-1,-1,,,,,1
5e72a539c600fa1efa380fb6,4o6grhyvi0,Ex2A_Prolific,1,126,2024-02-27T22:34:41+00:00,30.35306596756,5,Stim_A.csv,Item.csv,Item,A,,,,,,0,FreeRecall,30,30,"Please type as many words as you can that begin with the letter ""M"". The computer will automatically advance to the next screen in 30 seconds.",,FILLER,30001,"mad mouse middle murder mast master miss mild mint mist;",0,1340,29714,0,0,,,1
5e72a539c600fa1efa380fb6,4o6grhyvi0,Ex2A_Prolific,1,127,2024-02-27T22:34:47+00:00,6.3785629272461,5,Stim_A.csv,Item.csv,Item,A,,,,,,0,Instruct,User,4,"You have completed this section. Please click next.",,Instruct166,6037,,,-1,-1,,,,,1
5e72a539c600fa1efa380fb6,4o6grhyvi0,Ex2A_Prolific,1,128,2024-02-27T22:34:53+00:00,6.3566710948944,5,Stim_A.csv,Item.csv,Item,A,,,,,,0,Instruct,User,4,"You will now complete a memory test for the words you just studied. Please type as many words from the previous list as you can seperated by a comma. Spelling will not count against you and you can recall the words in any order. This test will be timed for one minute, and the computer will automatically advance once time is up. Click next when you are ready to begin.",,Instruct1666,6020,,,-1,-1,,,,,0.864
5e72a539c600fa1efa380fb6,4o6grhyvi0,Ex2A_Prolific,1,129,2024-02-27T22:35:54+00:00,60.725737810135,5,Stim_A.csv,Item.csv,Item,A,,,,,,0,FreeRecall,60,60,"Please type as many words as you can from the previous study list in any order. Please separate each word with a comma. Spelling will not count against you. This screen will automatically advance in one minute.",,RECALL_Test,60392,"mississippi, creek, lake, swim",0,1008,14413,0,0,,,0.799
5e72a539c600fa1efa380fb6,4o6grhyvi0,Ex2A_Prolific,1,130,2024-02-27T22:36:12+00:00,17.908586025238,5,Stim_A.csv,Item.csv,Item,A,,,,,,0,Instruct,User,3,"You will now be presented with a new study list. Click next when you are ready to begin.",,NEXT_LIST,17562,,,-1,-1,,,,,0.308
5e72a539c600fa1efa380fb6,4o6grhyvi0,Ex2A_Prolific,1,131,2024-02-27T22:36:15+00:00,2.535551071167,5,Stim_A.csv,Item.csv,Item,A,rye,,B1,,,86,JOL,User,1.25,"How likely are you to correctly recall the second item in the pair?|Type your response on a scale from 0-100 and then press Enter.",Bread,B1,2174,,,1602,1930,,,,50,1
5e72a539c600fa1efa380fb6,4o6grhyvi0,Ex2A_Prolific,1,132,2024-02-27T22:36:17+00:00,1.9260270595551,5,Stim_A.csv,Item.csv,Item,A,loaf,,B2,,,87,JOL,User,1.25,"How likely are you to correctly recall the second item in the pair?|Type your response on a scale from 0-100 and then press Enter.",Bread,B2,1516,,,1060,1290,,,,60,1
5e72a539c600fa1efa380fb6,4o6grhyvi0,Ex2A_Prolific,1,133,2024-02-27T22:36:18+00:00,1.7667129039764,5,Stim_A.csv,Item.csv,Item,A,butter,,B3,,,88,JOL,User,1.25,"How likely are you to correctly recall the second item in the pair?|Type your response on a scale from 0-100 and then press Enter.",Bread,B3,1405,,,889,1180,,,,60,1
5e72a539c600fa1efa380fb6,4o6grhyvi0,Ex2A_Prolific,1,134,2024-02-27T22:36:21+00:00,2.3628921508789,5,Stim_A.csv,Item.csv,Item,A,toast,,B4,,,89,JOL,User,1.25,"How likely are you to correctly recall the second item in the pair?|Type your response on a scale from 0-100 and then press Enter.",Bread,B4,1997,,,1060,1757,,,,70,1
5e72a539c600fa1efa380fb6,4o6grhyvi0,Ex2A_Prolific,1,135,2024-02-27T22:36:22+00:00,1.6714107990265,5,Stim_A.csv,Item.csv,Item,A,dough,,B5,,,90,JOL,User,1.25,"How likely are you to correctly recall the second item in the pair?|Type your response on a scale from 0-100 and then press Enter.",Bread,B5,1323,,,733,1067,,,,40,1
5e72a539c600fa1efa380fb6,4o6grhyvi0,Ex2A_Prolific,1,136,2024-02-27T22:36:25+00:00,2.3841052055359,5,Stim_A.csv,Item.csv,Item,A,crust,,B6,,,91,JOL,User,1.25,"How likely are you to correctly recall the second item in the pair?|Type your response on a scale from 0-100 and then press Enter.",Bread,B6,2037,,,915,1706,,,,40,1
5e72a539c600fa1efa380fb6,4o6grhyvi0,Ex2A_Prolific,1,137,2024-02-27T22:36:27+00:00,2.4819819927216,5,Stim_A.csv,Item.csv,Item,A,flour,,B7,,,92,JOL,User,1.25,"How likely are you to correctly recall the second item in the pair?|Type your response on a scale from 0-100 and then press Enter.",Bread,B7,2121,,,864,1280,,,,40,1
5e72a539c600fa1efa380fb6,4o6grhyvi0,Ex2A_Prolific,1,138,2024-02-27T22:36:29+00:00,1.629457950592,5,Stim_A.csv,Item.csv,Item,A,sandwich,,B8,,,93,JOL,User,1.25,"How likely are you to correctly recall the second item in the pair?|Type your response on a scale from 0-100 and then press Enter.",Bread,B8,1277,,,603,1026,,,,30,1
5e72a539c600fa1efa380fb6,4o6grhyvi0,Ex2A_Prolific,1,139,2024-02-27T22:36:31+00:00,2.0909829139709,5,Stim_A.csv,Item.csv,Item,A,jam,,B9,,,94,JOL,User,1.25,"How likely are you to correctly recall the second item in the pair?|Type your response on a scale from 0-100 and then press Enter.",Bread,B9,1737,,,1121,1466,,,,50,1
5e72a539c600fa1efa380fb6,4o6grhyvi0,Ex2A_Prolific,1,140,2024-02-27T22:36:33+00:00,2.1665871143341,5,Stim_A.csv,Item.csv,Item,A,jelly,,B10,,,95,JOL,User,1.25,"How likely are you to correctly recall the second item in the pair?|Type your response on a scale from 0-100 and then press Enter.",Bread,B10,1816,,,503,883,,,,40,1
5e72a539c600fa1efa380fb6,4o6grhyvi0,Ex2A_Prolific,1,141,2024-02-27T22:36:35+00:00,1.861044883728,5,Stim_A.csv,Item.csv,Item,A,slice,,B11,,,96,JOL,User,1.25,"How likely are you to correctly recall the second item in the pair?|Type your response on a scale from 0-100 and then press Enter.",Bread,B11,1510,,,875,1260,,,,50,1
5e72a539c600fa1efa380fb6,4o6grhyvi0,Ex2A_Prolific,1,142,2024-02-27T22:36:37+00:00,1.8922049999237,5,Stim_A.csv,Item.csv,Item,A,milk,,B12,,,97,JOL,User,1.25,"How likely are you to correctly recall the second item in the pair?|Type your response on a scale from 0-100 and then press Enter.",Bread,B12,1401,,,765,1146,,,,40,1
5e72a539c600fa1efa380fb6,4o6grhyvi0,Ex2A_Prolific,1,143,2024-02-27T22:36:40+00:00,2.7240540981293,5,Stim_A.csv,Item.csv,Item,A,,,,,,0,Instruct,User,-,"You have completed this section. Please click next.",,Instruct166,2350,,,-1,-1,,,,,1
5e72a539c600fa1efa380fb6,4o6grhyvi0,Ex2A_Prolific,1,144,2024-02-27T22:37:10+00:00,30.362676858902,5,Stim_A.csv,Item.csv,Item,A,,,,,,0,FreeRecall,30,30,"Please type as many words as you can that begin with the letter ""N"". The computer will automatically advance to the next screen in 30 seconds.",,FILLER,30001,"now next never night nit nut not nip nest new n",0,1319,29809,0,0,,,1
5e72a539c600fa1efa380fb6,4o6grhyvi0,Ex2A_Prolific,1,145,2024-02-27T22:37:12+00:00,2.1984810829163,5,Stim_A.csv,Item.csv,Item,A,,,,,,0,Instruct,User,-,"You have completed this section. Please click next.",,Instruct166,1850,,,-1,-1,,,,,1
5e72a539c600fa1efa380fb6,4o6grhyvi0,Ex2A_Prolific,1,146,2024-02-27T22:37:30+00:00,17.912633895874,5,Stim_A.csv,Item.csv,Item,A,,,,,,0,Instruct,User,4,"You will now complete a memory test for the words you just studied. Please type as many words from the previous list as you can seperated by a comma. Spelling will not count against you and you can recall the words in any order. This test will be timed for one minute, and the computer will automatically advance once time is up. Click next when you are ready to begin.",,Instruct1666,17570,,,-1,-1,,,,,1
5e72a539c600fa1efa380fb6,4o6grhyvi0,Ex2A_Prolific,1,147,2024-02-27T22:38:30+00:00,60.370979070663,5,Stim_A.csv,Item.csv,Item,A,,,,,,0,FreeRecall,60,60,"Please type as many words as you can from the previous study list in any order. Please separate each word with a comma. Spelling will not count against you. This screen will automatically advance in one minute.",,RECALL_Test,60001,"milk, rye, toast, jam, jelly, butter",0,1789,15372,0,0,,,0.769
5e72a539c600fa1efa380fb6,4o6grhyvi0,Ex2A_Prolific,1,148,2024-02-27T22:38:47+00:00,16.37109708786,5,Stim_A.csv,Item.csv,Item,A,,,,,,0,Instruct,User,3,"You will now be presented with a new study list. Click next when you are ready to begin.",,NEXT_LIST,16005,,,-1,-1,,,,,0.563
5e72a539c600fa1efa380fb6,4o6grhyvi0,Ex2A_Prolific,1,149,2024-02-27T22:38:49+00:00,1.9881780147552,5,Stim_A.csv,Item.csv,Item,A,banner,,F1,,,98,JOL,User,1.25,"How likely are you to correctly recall the second item in the pair?|Type your response on a scale from 0-100 and then press Enter.",Flag,F1,1638,,,1157,1392,,,,70,1
5e72a539c600fa1efa380fb6,4o6grhyvi0,Ex2A_Prolific,1,150,2024-02-27T22:38:51+00:00,2.0665068626404,5,Stim_A.csv,Item.csv,Item,A,checkered,,F2,,,99,JOL,User,1.25,"How likely are you to correctly recall the second item in the pair?|Type your response on a scale from 0-100 and then press Enter.",Flag,F2,1718,,,1133,1457,,,,50,1
5e72a539c600fa1efa380fb6,4o6grhyvi0,Ex2A_Prolific,1,151,2024-02-27T22:38:52+00:00,1.6061480045319,5,Stim_A.csv,Item.csv,Item,A,american,,F3,,,100,JOL,User,1.25,"How likely are you to correctly recall the second item in the pair?|Type your response on a scale from 0-100 and then press Enter.",Flag,F3,1264,,,840,1063,,,,70,1
5e72a539c600fa1efa380fb6,4o6grhyvi0,Ex2A_Prolific,1,152,2024-02-27T22:38:55+00:00,2.8142821788788,5,Stim_A.csv,Item.csv,Item,A,stripes,,F4,,,101,JOL,User,1.25,"How likely are you to correctly recall the second item in the pair?|Type your response on a scale from 0-100 and then press Enter.",Flag,F4,2440,,,1799,2179,,,,70,1
5e72a539c600fa1efa380fb6,4o6grhyvi0,Ex2A_Prolific,1,153,2024-02-27T22:38:58+00:00,2.2660458087921,5,Stim_A.csv,Item.csv,Item,A,pole,,F5,,,102,JOL,User,1.25,"How likely are you to correctly recall the second item in the pair?|Type your response on a scale from 0-100 and then press Enter.",Flag,F5,1910,,,1124,1129,,,,45,1
5e72a539c600fa1efa380fb6,4o6grhyvi0,Ex2A_Prolific,1,154,2024-02-27T22:38:59+00:00,1.8120319843292,5,Stim_A.csv,Item.csv,Item,A,anthem,,F6,,,103,JOL,User,1.25,"How likely are you to correctly recall the second item in the pair?|Type your response on a scale from 0-100 and then press Enter.",Flag,F6,1463,,,1018,1253,,,,70,1
5e72a539c600fa1efa380fb6,4o6grhyvi0,Ex2A_Prolific,1,155,2024-02-27T22:39:03+00:00,3.2364821434021,5,Stim_A.csv,Item.csv,Item,A,emblem,,F7,,,104,JOL,User,1.25,"How likely are you to correctly recall the second item in the pair?|Type your response on a scale from 0-100 and then press Enter.",Flag,F7,2887,,,1329,2526,,,,50,1
5e72a539c600fa1efa380fb6,4o6grhyvi0,Ex2A_Prolific,1,156,2024-02-27T22:39:08+00:00,5.7791709899902,5,Stim_A.csv,Item.csv,Item,A,national,,F8,,,105,JOL,User,1.25,"How likely are you to correctly recall the second item in the pair?|Type your response on a scale from 0-100 and then press Enter.",Flag,F8,5113,,,4622,4883,,,,60,1
5e72a539c600fa1efa380fb6,4o6grhyvi0,Ex2A_Prolific,1,157,2024-02-27T22:39:11+00:00,2.1350100040436,5,Stim_A.csv,Item.csv,Item,A,freedom,,F9,,,106,JOL,User,1.25,"How likely are you to correctly recall the second item in the pair?|Type your response on a scale from 0-100 and then press Enter.",Flag,F9,1801,,,714,965,,,,70,1
5e72a539c600fa1efa380fb6,4o6grhyvi0,Ex2A_Prolific,1,158,2024-02-27T22:39:12+00:00,1.640725851059,5,Stim_A.csv,Item.csv,Item,A,symbol,,F10,,,107,JOL,User,1.25,"How likely are you to correctly recall the second item in the pair?|Type your response on a scale from 0-100 and then press Enter.",Flag,F10,1284,,,618,964,,,,60,1
5e72a539c600fa1efa380fb6,4o6grhyvi0,Ex2A_Prolific,1,159,2024-02-27T22:39:15+00:00,2.9977490901947,5,Stim_A.csv,Item.csv,Item,A,wave,,F11,,,108,JOL,User,1.25,"How likely are you to correctly recall the second item in the pair?|Type your response on a scale from 0-100 and then press Enter.",Flag,F11,2642,,,755,2236,,,,50,1
5e72a539c600fa1efa380fb6,4o6grhyvi0,Ex2A_Prolific,1,160,2024-02-27T22:39:18+00:00,2.5290589332581,5,Stim_A.csv,Item.csv,Item,A,stars,,F12,,,109,JOL,User,1.25,"How likely are you to correctly recall the second item in the pair?|Type your response on a scale from 0-100 and then press Enter.",Flag,F12,2189,,,1280,1888,,,,70,1
5e72a539c600fa1efa380fb6,4o6grhyvi0,Ex2A_Prolific,1,161,2024-02-27T22:39:19+00:00,1.1369800567627,5,Stim_A.csv,Item.csv,Item,A,,,,,,0,Instruct,User,-,"You have completed this section. Please click next.",,Instruct166,793,,,-1,-1,,,,,1
5e72a539c600fa1efa380fb6,4o6grhyvi0,Ex2A_Prolific,1,162,2024-02-27T22:39:49+00:00,30.376336097717,5,Stim_A.csv,Item.csv,Item,A,,,,,,0,FreeRecall,30,30,"Please type as many words as you can that begin with the letter ""W"". The computer will automatically advance to the next screen in 30 seconds.",,FILLER,30001,"win wig wimp when wife widow went will w",0,1712,29479,0,0,,,1
5e72a539c600fa1efa380fb6,4o6grhyvi0,Ex2A_Prolific,1,163,2024-02-27T22:40:26+00:00,36.785106897354,5,Stim_A.csv,Item.csv,Item,A,,,,,,0,Instruct,User,4,"You have completed this section. Please click next.",,Instruct166,36424,,,-1,-1,,,,,0.389
5e72a539c600fa1efa380fb6,4o6grhyvi0,Ex2A_Prolific,1,164,2024-02-27T22:40:33+00:00,6.5629551410675,5,Stim_A.csv,Item.csv,Item,A,,,,,,0,Instruct,User,4,"You will now complete a memory test for the words you just studied. Please type as many words from the previous list as you can seperated by a comma. Spelling will not count against you and you can recall the words in any order. This test will be timed for one minute, and the computer will automatically advance once time is up. Click next when you are ready to begin.",,Instruct1666,6201,,,-1,-1,,,,,1
5e72a539c600fa1efa380fb6,4o6grhyvi0,Ex2A_Prolific,1,165,2024-02-27T22:41:33+00:00,60.364771842957,5,Stim_A.csv,Item.csv,Item,A,,,,,,0,FreeRecall,60,60,"Please type as many words as you can from the previous study list in any order. Please separate each word with a comma. Spelling will not count against you. This screen will automatically advance in one minute.",,RECALL_Test,60001,"american, stars, stripes, national, anthem, freedom, pole",0,941,20060,0,0,,,0.975
5e72a539c600fa1efa380fb6,4o6grhyvi0,Ex2A_Prolific,1,166,2024-02-27T22:41:50+00:00,17.450276136398,5,Stim_A.csv,Item.csv,Item,A,,,,,,0,Instruct,User,3,"You will now be presented with a new study list. Click next when you are ready to begin.",,NEXT_LIST,17082,,,-1,-1,,,,,0.533
5e72a539c600fa1efa380fb6,4o6grhyvi0,Ex2A_Prolific,1,167,2024-02-27T22:41:53+00:00,3.0259130001068,5,Stim_A.csv,Item.csv,Item,A,blouse,,SS1,,,110,JOL,User,1.25,"How likely are you to correctly recall the second item in the pair?|Type your response on a scale from 0-100 and then press Enter.",Shirt,SS1,2681,,,1911,2145,,,,60,1
5e72a539c600fa1efa380fb6,4o6grhyvi0,Ex2A_Prolific,1,168,2024-02-27T22:41:55+00:00,1.7793040275574,5,Stim_A.csv,Item.csv,Item,A,sleeves,,SS2,,,111,JOL,User,1.25,"How likely are you to correctly recall the second item in the pair?|Type your response on a scale from 0-100 and then press Enter.",Shirt,SS2,1408,,,876,1167,,,,70,1
5e72a539c600fa1efa380fb6,4o6grhyvi0,Ex2A_Prolific,1,169,2024-02-27T22:41:57+00:00,1.6401278972626,5,Stim_A.csv,Item.csv,Item,A,collar,,SS3,,,112,JOL,User,1.25,"How likely are you to correctly recall the second item in the pair?|Type your response on a scale from 0-100 and then press Enter.",Shirt,SS3,1292,,,771,1062,,,,60,1
5e72a539c600fa1efa380fb6,4o6grhyvi0,Ex2A_Prolific,1,170,2024-02-27T22:41:59+00:00,2.0301599502563,5,Stim_A.csv,Item.csv,Item,A,shorts,,SS4,,,113,JOL,User,1.25,"How likely are you to correctly recall the second item in the pair?|Type your response on a scale from 0-100 and then press Enter.",Shirt,SS4,1677,,,474,759,,,,50,1
5e72a539c600fa1efa380fb6,4o6grhyvi0,Ex2A_Prolific,1,171,2024-02-27T22:42:01+00:00,2.1395111083984,5,Stim_A.csv,Item.csv,Item,A,button,,SS5,,,114,JOL,User,1.25,"How likely are you to correctly recall the second item in the pair?|Type your response on a scale from 0-100 and then press Enter.",Shirt,SS5,1777,,,1036,1506,,,,40,1
5e72a539c600fa1efa380fb6,4o6grhyvi0,Ex2A_Prolific,1,172,2024-02-27T22:42:03+00:00,1.9402468204498,5,Stim_A.csv,Item.csv,Item,A,pants,,SS6,,,115,JOL,User,1.25,"How likely are you to correctly recall the second item in the pair?|Type your response on a scale from 0-100 and then press Enter.",Shirt,SS6,1581,,,1001,1331,,,,60,1
5e72a539c600fa1efa380fb6,4o6grhyvi0,Ex2A_Prolific,1,173,2024-02-27T22:42:05+00:00,1.6464002132416,5,Stim_A.csv,Item.csv,Item,A,polo,,SS7,,,116,JOL,User,1.25,"How likely are you to correctly recall the second item in the pair?|Type your response on a scale from 0-100 and then press Enter.",Shirt,SS7,1291,,,735,1056,,,,50,1
5e72a539c600fa1efa380fb6,4o6grhyvi0,Ex2A_Prolific,1,174,2024-02-27T22:42:07+00:00,2.3146638870239,5,Stim_A.csv,Item.csv,Item,A,jersey,,SS8,,,117,JOL,User,1.25,"How likely are you to correctly recall the second item in the pair?|Type your response on a scale from 0-100 and then press Enter.",Shirt,SS8,1970,,,849,1668,,,,60,1
5e72a539c600fa1efa380fb6,4o6grhyvi0,Ex2A_Prolific,1,175,2024-02-27T22:42:09+00:00,1.8451659679413,5,Stim_A.csv,Item.csv,Item,A,vest,,SS9,,,118,JOL,User,1.25,"How likely are you to correctly recall the second item in the pair?|Type your response on a scale from 0-100 and then press Enter.",Shirt,SS9,1496,,,951,951,,,,8,1
5e72a539c600fa1efa380fb6,4o6grhyvi0,Ex2A_Prolific,1,176,2024-02-27T22:42:11+00:00,2.5897400379181,5,Stim_A.csv,Item.csv,Item,A,cuffs,,SS10,,,119,JOL,User,1.25,"How likely are you to correctly recall the second item in the pair?|Type your response on a scale from 0-100 and then press Enter.",Shirt,SS10,2232,,,1252,1555,,,,59,1
5e72a539c600fa1efa380fb6,4o6grhyvi0,Ex2A_Prolific,1,177,2024-02-27T22:42:14+00:00,2.2388060092926,5,Stim_A.csv,Item.csv,Item,A,tie,,SS11,,,120,JOL,User,1.25,"How likely are you to correctly recall the second item in the pair?|Type your response on a scale from 0-100 and then press Enter.",Shirt,SS11,1887,,,1271,1566,,,,60,1
5e72a539c600fa1efa380fb6,4o6grhyvi0,Ex2A_Prolific,1,178,2024-02-27T22:42:16+00:00,2.3048288822174,5,Stim_A.csv,Item.csv,Item,A,pocket,,SS12,,,121,JOL,User,1.25,"How likely are you to correctly recall the second item in the pair?|Type your response on a scale from 0-100 and then press Enter.",Shirt,SS12,1947,,,631,926,,,,60,1
5e72a539c600fa1efa380fb6,4o6grhyvi0,Ex2A_Prolific,1,179,2024-02-27T22:42:32+00:00,15.953630208969,5,Stim_A.csv,Item.csv,Item,A,,,,,,0,Instruct,User,4,"You have completed this section. Please click next.",,Instruct166,15591,,,-1,-1,,,,,0.762
5e72a539c600fa1efa380fb6,4o6grhyvi0,Ex2A_Prolific,1,180,2024-02-27T22:43:02+00:00,30.363786935806,5,Stim_A.csv,Item.csv,Item,A,,,,,,0,FreeRecall,30,30,"Please type as many words as you can that begin with the letter ""L"". The computer will automatically advance to the next screen in 30 seconds.",,FILLER,30000,"lick love labia louse like lint lime lemon lose loose life lake lay loaf lon",0,1636,29920,0,0,,,1
5e72a539c600fa1efa380fb6,4o6grhyvi0,Ex2A_Prolific,1,181,2024-02-27T22:43:15+00:00,12.869309902191,5,Stim_A.csv,Item.csv,Item,A,,,,,,0,Instruct,User,4,"You have completed this section. Please click next.",,Instruct166,12530,,,-1,-1,,,,,0.643
5e72a539c600fa1efa380fb6,4o6grhyvi0,Ex2A_Prolific,1,182,2024-02-27T22:43:23+00:00,7.6216840744019,5,Stim_A.csv,Item.csv,Item,A,,,,,,0,Instruct,User,4,"You will now complete a memory test for the words you just studied. Please type as many words from the previous list as you can seperated by a comma. Spelling will not count against you and you can recall the words in any order. This test will be timed for one minute, and the computer will automatically advance once time is up. Click next when you are ready to begin.",,Instruct1666,7266,,,-1,-1,,,,,0.81
5e72a539c600fa1efa380fb6,4o6grhyvi0,Ex2A_Prolific,1,183,2024-02-27T22:44:23+00:00,60.551711082458,5,Stim_A.csv,Item.csv,Item,A,,,,,,0,FreeRecall,60,60,"Please type as many words as you can from the previous study list in any order. Please separate each word with a comma. Spelling will not count against you. This screen will automatically advance in one minute.",,RECALL_Test,60209,"blouse, collar, cuffs, tie, pants, polo",0,6129,19842,0,0,,,0.798
5e72a539c600fa1efa380fb6,4o6grhyvi0,Ex2A_Prolific,1,184,2024-02-27T22:44:28+00:00,4.3359668254852,5,Stim_A.csv,Item.csv,Item,A,,,,,,0,Instruct,User,-,"You have completed this section. Please click next.",,Instruct7,3986,,,-1,-1,,,,,0.6
5e72a539c600fa1efa380fb6,4o6grhyvi0,Ex2A_Prolific,1,185,2024-02-27T22:44:29+00:00,1.8576021194458,5,Stim_A.csv,Item.csv,Item,A,,,,,,0,Instruct,User,-,"The following screen will ask you a few questions abour your experience today. You must complete these questions to receive credit.",,Instruct8,1498,,,-1,-1,,,,,1
