Username,ID,ExperimentName,Session,Trial,Date,TimeDif,"Condition Number","Stimuli File","Order File","Condition Description","Condition Notes",Stimuli*Cue,Stimuli*Answer,Stimuli*Shuffle,"Stimuli*Stimuli Notes",Stimuli*Value,Procedure*Item,"Procedure*Trial Type","Procedure*Max Time","Procedure*Min Time",Procedure*Text,"Procedure*Procedure Notes",Procedure*Shuffle,Response*RT,Response*Response,Response*Accuracy,Response*RTfirst,Response*RTlast,Response*strictAcc,Response*lenientAcc,Response*focus,Response*JOL,Response*Focus
6578d483e1b823c1a61469a6,2sikjfvj13,Ex2A_Prolific,1,1,2024-02-28T20:05:27+00:00,6.4108529090881,6,Stim_B.csv,Item.csv,Item,B,,,,,,0,Instruct,-,5,"In this section, you will be presented with a series of words. Please study each word carefully. Your memory will be tested!",Initial_Instruct,Instruct1,6250,,,-1,-1,,,,,1
6578d483e1b823c1a61469a6,2sikjfvj13,Ex2A_Prolific,1,2,2024-02-28T20:05:41+00:00,13.81196808815,6,Stim_B.csv,Item.csv,Item,B,,,,,,0,Instruct,-,5,"As you study, you will be asked to rate your ability to remember each item on a later memory test using a 0-100 scale. For example, if you study the word DOG, a rating of 0 indicates that you would not remember DOG at test, while a rating of 100 indicates full certainty that you would remember the word DOG at test.",,Instruct13,13497,,,-1,-1,,,,,1
6578d483e1b823c1a61469a6,2sikjfvj13,Ex2A_Prolific,1,3,2024-02-28T20:05:54+00:00,12.408751010895,6,Stim_B.csv,Item.csv,Item,B,,,,,,0,Instruct,-,10,"When making your ratings, it is criticial that you use the full range of the scale. You will be disqualified for only giving ratings of 0 or 100!",,Instruct15,12123,,,-1,-1,,,,,1
6578d483e1b823c1a61469a6,2sikjfvj13,Ex2A_Prolific,1,4,2024-02-28T20:05:56+00:00,2.4303798675537,6,Stim_B.csv,Item.csv,Item,B,,,,,,0,Instruct,User,-,"You will now begin the study. Click next when you are ready to begin.",,Instruct16,2135,,,-1,-1,,,,,1
6578d483e1b823c1a61469a6,2sikjfvj13,Ex2A_Prolific,1,5,2024-02-28T20:06:19+00:00,23.085827112198,6,Stim_B.csv,Item.csv,Item,B,aroma,,Win_1,,,2,JOL,User,1.25,"How likely are you to correctly recall the second item in the pair?|Type your response on a scale from 0-100 and then press Enter.",Window,Win_1,22786,,,21389,21723,,,,90,1
6578d483e1b823c1a61469a6,2sikjfvj13,Ex2A_Prolific,1,6,2024-02-28T20:06:35+00:00,15.763429880142,6,Stim_B.csv,Item.csv,Item,B,scent,,Win_2,,,3,JOL,User,1.25,"How likely are you to correctly recall the second item in the pair?|Type your response on a scale from 0-100 and then press Enter.",Window,Win_2,15468,,,14460,14812,,,,90,0.843
6578d483e1b823c1a61469a6,2sikjfvj13,Ex2A_Prolific,1,7,2024-02-28T20:06:45+00:00,10.496679067612,6,Stim_B.csv,Item.csv,Item,B,whiff,,Win_3,,,4,JOL,User,1.25,"How likely are you to correctly recall the second item in the pair?|Type your response on a scale from 0-100 and then press Enter.",Window,Win_3,10178,,,9292,9691,,,,90,1
6578d483e1b823c1a61469a6,2sikjfvj13,Ex2A_Prolific,1,8,2024-02-28T20:07:50+00:00,64.187613010406,6,Stim_B.csv,Item.csv,Item,B,stench,,Win_4,,,5,JOL,User,1.25,"How likely are you to correctly recall the second item in the pair?|Type your response on a scale from 0-100 and then press Enter.",Window,Win_4,63511,,,61465,61879,,,,70,0.423
6578d483e1b823c1a61469a6,2sikjfvj13,Ex2A_Prolific,1,9,2024-02-28T20:07:53+00:00,3.0479760169983,6,Stim_B.csv,Item.csv,Item,B,reek,,Win_5,,,6,JOL,User,1.25,"How likely are you to correctly recall the second item in the pair?|Type your response on a scale from 0-100 and then press Enter.",Window,Win_5,2737,,,1419,1786,,,,90,1
6578d483e1b823c1a61469a6,2sikjfvj13,Ex2A_Prolific,1,10,2024-02-28T20:07:55+00:00,2.4430129528046,6,Stim_B.csv,Item.csv,Item,B,sniff,,Win_6,,,7,JOL,User,1.25,"How likely are you to correctly recall the second item in the pair?|Type your response on a scale from 0-100 and then press Enter.",Window,Win_6,2161,,,1315,1682,,,,90,1
6578d483e1b823c1a61469a6,2sikjfvj13,Ex2A_Prolific,1,11,2024-02-28T20:08:00+00:00,5.0740871429443,6,Stim_B.csv,Item.csv,Item,B,perfume,,Win_7,,,8,JOL,User,1.25,"How likely are you to correctly recall the second item in the pair?|Type your response on a scale from 0-100 and then press Enter.",Window,Win_7,4770,,,3019,3483,,,,90,1
6578d483e1b823c1a61469a6,2sikjfvj13,Ex2A_Prolific,1,12,2024-02-28T20:08:03+00:00,2.9581959247589,6,Stim_B.csv,Item.csv,Item,B,fragrance,,Win_8,,,9,JOL,User,1.25,"How likely are you to correctly recall the second item in the pair?|Type your response on a scale from 0-100 and then press Enter.",Window,Win_8,2677,,,1310,2070,,,,100,1
6578d483e1b823c1a61469a6,2sikjfvj13,Ex2A_Prolific,1,13,2024-02-28T20:08:06+00:00,2.6929678916931,6,Stim_B.csv,Item.csv,Item,B,nose,,Win_9,,,10,JOL,User,1.25,"How likely are you to correctly recall the second item in the pair?|Type your response on a scale from 0-100 and then press Enter.",Window,Win_9,2372,,,1254,1908,,,,100,1
6578d483e1b823c1a61469a6,2sikjfvj13,Ex2A_Prolific,1,14,2024-02-28T20:08:09+00:00,3.0124340057373,6,Stim_B.csv,Item.csv,Item,B,rose,,Win_10,,,11,JOL,User,1.25,"How likely are you to correctly recall the second item in the pair?|Type your response on a scale from 0-100 and then press Enter.",Window,Win_10,2694,,,1527,2238,,,,100,1
6578d483e1b823c1a61469a6,2sikjfvj13,Ex2A_Prolific,1,15,2024-02-28T20:08:17+00:00,7.8024950027466,6,Stim_B.csv,Item.csv,Item,B,salts,,Win_11,,,12,JOL,User,1.25,"How likely are you to correctly recall the second item in the pair?|Type your response on a scale from 0-100 and then press Enter.",Window,Win_11,7487,,,1326,2118,,,,100,1
6578d483e1b823c1a61469a6,2sikjfvj13,Ex2A_Prolific,1,16,2024-02-28T20:08:20+00:00,3.8360421657562,6,Stim_B.csv,Item.csv,Item,B,breathe,,Win_12,,,13,JOL,User,1.25,"How likely are you to correctly recall the second item in the pair?|Type your response on a scale from 0-100 and then press Enter.",Window,Win_12,3555,,,2636,3252,,,,100,1
6578d483e1b823c1a61469a6,2sikjfvj13,Ex2A_Prolific,1,17,2024-02-28T20:08:24+00:00,3.5265219211578,6,Stim_B.csv,Item.csv,Item,B,,,,,,0,Instruct,User,-,"You have completed this section. Please click next.",,Instruct166,3206,,,909,909,,,,,1
6578d483e1b823c1a61469a6,2sikjfvj13,Ex2A_Prolific,1,18,2024-02-28T20:08:54+00:00,30.369132041931,6,Stim_B.csv,Item.csv,Item,B,,,,,,0,FreeRecall,30,30,"Please type as many words as you can that begin with the letter ""M"". The computer will automatically advance to the next screen in 30 seconds.",,FILLER,30002,,0,-1,-1,0,0,,,0.896
6578d483e1b823c1a61469a6,2sikjfvj13,Ex2A_Prolific,1,19,2024-02-28T20:09:01+00:00,6.6455528736115,6,Stim_B.csv,Item.csv,Item,B,,,,,,0,Instruct,User,4,"You have completed this section. Please click next.",,Instruct166,6318,,,-1,-1,,,,,1
6578d483e1b823c1a61469a6,2sikjfvj13,Ex2A_Prolific,1,20,2024-02-28T20:10:10+00:00,69.515247106552,6,Stim_B.csv,Item.csv,Item,B,,,,,,0,Instruct,User,4,"You will now complete a memory test for the words you just studied. Please type as many words from the previous list as you can seperated by a comma. Spelling will not count against you and you can recall the words in any order. This test will be timed for one minute, and the computer will automatically advance once time is up. Click next when you are ready to begin.",,Instruct1666,68835,,,-1,-1,,,,,0.593
6578d483e1b823c1a61469a6,2sikjfvj13,Ex2A_Prolific,1,21,2024-02-28T20:11:11+00:00,60.362570047379,6,Stim_B.csv,Item.csv,Item,B,,,,,,0,FreeRecall,60,60,"Please type as many words as you can from the previous study list in any order. Please separate each word with a comma. Spelling will not count against you. This screen will automatically advance in one minute.",,RECALL_Test,60003,"aroma scent sniff fragrance per ",0,11085,59980,0,0,,,0.933
6578d483e1b823c1a61469a6,2sikjfvj13,Ex2A_Prolific,1,22,2024-02-28T20:11:15+00:00,4.3154268264771,6,Stim_B.csv,Item.csv,Item,B,,,,,,0,Instruct,User,3,"You will now be presented with a new study list. Click next when you are ready to begin.",,NEXT_LIST,4025,,,-1,-1,,,,,1
6578d483e1b823c1a61469a6,2sikjfvj13,Ex2A_Prolific,1,23,2024-02-28T20:13:13+00:00,117.58684206009,6,Stim_B.csv,Item.csv,Item,B,hard,,R1,,,14,JOL,User,1.25,"How likely are you to correctly recall the second item in the pair?|Type your response on a scale from 0-100 and then press Enter.",Rough,R1,116892,,,115878,116100,,,,90,0.311
6578d483e1b823c1a61469a6,2sikjfvj13,Ex2A_Prolific,1,24,2024-02-28T20:13:24+00:00,11.472488164902,6,Stim_B.csv,Item.csv,Item,B,loud,,R2,,,15,JOL,User,1.25,"How likely are you to correctly recall the second item in the pair?|Type your response on a scale from 0-100 and then press Enter.",Rough,R2,11171,,,10157,10387,,,,90,0.759
6578d483e1b823c1a61469a6,2sikjfvj13,Ex2A_Prolific,1,25,2024-02-28T20:13:28+00:00,3.5916328430176,6,Stim_B.csv,Item.csv,Item,B,tender,,R3,,,16,JOL,User,1.25,"How likely are you to correctly recall the second item in the pair?|Type your response on a scale from 0-100 and then press Enter.",Rough,R3,3263,,,2678,2879,,,,90,1
6578d483e1b823c1a61469a6,2sikjfvj13,Ex2A_Prolific,1,26,2024-02-28T20:13:48+00:00,19.899270057678,6,Stim_B.csv,Item.csv,Item,B,fluffy,,R4,,,17,JOL,User,1.25,"How likely are you to correctly recall the second item in the pair?|Type your response on a scale from 0-100 and then press Enter.",Rough,R4,19583,,,18721,18968,,,,90,0.708
6578d483e1b823c1a61469a6,2sikjfvj13,Ex2A_Prolific,1,27,2024-02-28T20:14:02+00:00,14.813344955444,6,Stim_B.csv,Item.csv,Item,B,pillow,,R5,,,18,JOL,User,1.25,"How likely are you to correctly recall the second item in the pair?|Type your response on a scale from 0-100 and then press Enter.",Rough,R5,14523,,,13820,14035,,,,90,0.621
6578d483e1b823c1a61469a6,2sikjfvj13,Ex2A_Prolific,1,28,2024-02-28T20:14:05+00:00,2.8482511043549,6,Stim_B.csv,Item.csv,Item,B,downy,,R6,,,19,JOL,User,1.25,"How likely are you to correctly recall the second item in the pair?|Type your response on a scale from 0-100 and then press Enter.",Rough,R6,2520,,,1538,1737,,,,90,1
6578d483e1b823c1a61469a6,2sikjfvj13,Ex2A_Prolific,1,29,2024-02-28T20:14:23+00:00,17.180588960648,6,Stim_B.csv,Item.csv,Item,B,plush,,R7,,,20,JOL,User,1.25,"How likely are you to correctly recall the second item in the pair?|Type your response on a scale from 0-100 and then press Enter.",Rough,R7,16889,,,14731,14881,,,,90,0.676
6578d483e1b823c1a61469a6,2sikjfvj13,Ex2A_Prolific,1,30,2024-02-28T20:14:25+00:00,2.3211829662323,6,Stim_B.csv,Item.csv,Item,B,cotton,,R8,,,21,JOL,User,1.25,"How likely are you to correctly recall the second item in the pair?|Type your response on a scale from 0-100 and then press Enter.",Rough,R8,1988,,,1372,1612,,,,90,1
6578d483e1b823c1a61469a6,2sikjfvj13,Ex2A_Prolific,1,31,2024-02-28T20:14:38+00:00,12.737431049347,6,Stim_B.csv,Item.csv,Item,B,skin,,R9,,,22,JOL,User,1.25,"How likely are you to correctly recall the second item in the pair?|Type your response on a scale from 0-100 and then press Enter.",Rough,R9,12452,,,9580,9812,,,,90,0.811
6578d483e1b823c1a61469a6,2sikjfvj13,Ex2A_Prolific,1,32,2024-02-28T20:15:36+00:00,58.064828872681,6,Stim_B.csv,Item.csv,Item,B,fur,,R10,,,23,JOL,User,1.25,"How likely are you to correctly recall the second item in the pair?|Type your response on a scale from 0-100 and then press Enter.",Rough,R10,57768,,,56842,57161,,,,90,0.422
6578d483e1b823c1a61469a6,2sikjfvj13,Ex2A_Prolific,1,33,2024-02-28T20:15:39+00:00,3.7487180233002,6,Stim_B.csv,Item.csv,Item,B,touch,,R11,,,24,JOL,User,1.25,"How likely are you to correctly recall the second item in the pair?|Type your response on a scale from 0-100 and then press Enter.",Rough,R11,3428,,,1254,1413,,,,90,1
6578d483e1b823c1a61469a6,2sikjfvj13,Ex2A_Prolific,1,34,2024-02-28T20:15:43+00:00,3.5214781761169,6,Stim_B.csv,Item.csv,Item,B,furry,,R12,,,25,JOL,User,1.25,"How likely are you to correctly recall the second item in the pair?|Type your response on a scale from 0-100 and then press Enter.",Rough,R12,3207,,,1393,1616,,,,90,1
6578d483e1b823c1a61469a6,2sikjfvj13,Ex2A_Prolific,1,35,2024-02-28T20:15:46+00:00,3.4534418582916,6,Stim_B.csv,Item.csv,Item,B,,,,,,0,Instruct,User,-,"You have completed this section. Please click next.",,Instruct166,3158,,,-1,-1,,,,,1
6578d483e1b823c1a61469a6,2sikjfvj13,Ex2A_Prolific,1,36,2024-02-28T20:16:17+00:00,30.330054044724,6,Stim_B.csv,Item.csv,Item,B,,,,,,0,FreeRecall,30,30,"Please type as many words as you can that begin with the letter ""N"". The computer will automatically advance to the next screen in 30 seconds.",,FILLER,30001,"NUMBER NONE NUMB",0,20563,29729,0,0,,,1
6578d483e1b823c1a61469a6,2sikjfvj13,Ex2A_Prolific,1,37,2024-02-28T20:16:21+00:00,4.2237079143524,6,Stim_B.csv,Item.csv,Item,B,,,,,,0,Instruct,User,-,"You have completed this section. Please click next.",,Instruct166,3906,,,-1,-1,,,,,1
6578d483e1b823c1a61469a6,2sikjfvj13,Ex2A_Prolific,1,38,2024-02-28T20:16:26+00:00,4.9843289852142,6,Stim_B.csv,Item.csv,Item,B,,,,,,0,Instruct,User,4,"You will now complete a memory test for the words you just studied. Please type as many words from the previous list as you can seperated by a comma. Spelling will not count against you and you can recall the words in any order. This test will be timed for one minute, and the computer will automatically advance once time is up. Click next when you are ready to begin.",,Instruct1666,4672,,,-1,-1,,,,,1
6578d483e1b823c1a61469a6,2sikjfvj13,Ex2A_Prolific,1,39,2024-02-28T20:17:26+00:00,60.369796991348,6,Stim_B.csv,Item.csv,Item,B,,,,,,0,FreeRecall,60,60,"Please type as many words as you can from the previous study list in any order. Please separate each word with a comma. Spelling will not count against you. This screen will automatically advance in one minute.",,RECALL_Test,60002,"HARD ,LOUD ,TENDER, FLUFFY, PILLOW, DOWNY, PLUSH, COTTON ,SKIN, FUR ,TOUCH FURRY ",0,3561,59311,0,0,,,1
6578d483e1b823c1a61469a6,2sikjfvj13,Ex2A_Prolific,1,40,2024-02-28T20:17:30+00:00,4.0851490497589,6,Stim_B.csv,Item.csv,Item,B,,,,,,0,Instruct,User,3,"You will now be presented with a new study list. Click next when you are ready to begin.",,NEXT_LIST,3761,,,-1,-1,,,,,1
6578d483e1b823c1a61469a6,2sikjfvj13,Ex2A_Prolific,1,41,2024-02-28T20:17:42+00:00,11.61893415451,6,Stim_B.csv,Item.csv,Item,B,honey,,A1,,,26,JOL,User,1.25,"How likely are you to correctly recall the second item in the pair?|Type your response on a scale from 0-100 and then press Enter.",Anger,A1,11323,,,4428,4771,,,,90,1
6578d483e1b823c1a61469a6,2sikjfvj13,Ex2A_Prolific,1,42,2024-02-28T20:17:44+00:00,2.0951879024506,6,Stim_B.csv,Item.csv,Item,B,bitter,,A2,,,27,JOL,User,1.25,"How likely are you to correctly recall the second item in the pair?|Type your response on a scale from 0-100 and then press Enter.",Anger,A2,1796,,,446,581,,,,90,1
6578d483e1b823c1a61469a6,2sikjfvj13,Ex2A_Prolific,1,43,2024-02-28T20:17:46+00:00,1.6010608673096,6,Stim_B.csv,Item.csv,Item,B,sugar,,A3,,,28,JOL,User,1.25,"How likely are you to correctly recall the second item in the pair?|Type your response on a scale from 0-100 and then press Enter.",Anger,A3,1283,,,787,914,,,,90,1
6578d483e1b823c1a61469a6,2sikjfvj13,Ex2A_Prolific,1,44,2024-02-28T20:17:52+00:00,6.6219830513,6,Stim_B.csv,Item.csv,Item,B,sour,,A4,,,29,JOL,User,1.25,"How likely are you to correctly recall the second item in the pair?|Type your response on a scale from 0-100 and then press Enter.",Anger,A4,6340,,,3005,3260,,,,90,1
6578d483e1b823c1a61469a6,2sikjfvj13,Ex2A_Prolific,1,45,2024-02-28T20:17:55+00:00,2.8473999500275,6,Stim_B.csv,Item.csv,Item,B,candy,,A5,,,30,JOL,User,1.25,"How likely are you to correctly recall the second item in the pair?|Type your response on a scale from 0-100 and then press Enter.",Anger,A5,2537,,,650,745,,,,90,1
6578d483e1b823c1a61469a6,2sikjfvj13,Ex2A_Prolific,1,46,2024-02-28T20:18:00+00:00,4.6414220333099,6,Stim_B.csv,Item.csv,Item,B,tart,,A6,,,31,JOL,User,1.25,"How likely are you to correctly recall the second item in the pair?|Type your response on a scale from 0-100 and then press Enter.",Anger,A6,4328,,,802,921,,,,90,1
6578d483e1b823c1a61469a6,2sikjfvj13,Ex2A_Prolific,1,47,2024-02-28T20:18:03+00:00,3.7201972007751,6,Stim_B.csv,Item.csv,Item,B,chocolate,,A7,,,32,JOL,User,1.25,"How likely are you to correctly recall the second item in the pair?|Type your response on a scale from 0-100 and then press Enter.",Anger,A7,3433,,,1507,1682,,,,90,1
6578d483e1b823c1a61469a6,2sikjfvj13,Ex2A_Prolific,1,48,2024-02-28T20:18:08+00:00,4.9141387939453,6,Stim_B.csv,Item.csv,Item,B,nice,,A8,,,33,JOL,User,1.25,"How likely are you to correctly recall the second item in the pair?|Type your response on a scale from 0-100 and then press Enter.",Anger,A8,4626,,,805,906,,,,90,1
6578d483e1b823c1a61469a6,2sikjfvj13,Ex2A_Prolific,1,49,2024-02-28T20:18:15+00:00,6.7182359695435,6,Stim_B.csv,Item.csv,Item,B,taste,,A9,,,34,JOL,User,1.25,"How likely are you to correctly recall the second item in the pair?|Type your response on a scale from 0-100 and then press Enter.",Anger,A9,6400,,,3394,3496,,,,90,1
6578d483e1b823c1a61469a6,2sikjfvj13,Ex2A_Prolific,1,50,2024-02-28T20:18:18+00:00,3.167111158371,6,Stim_B.csv,Item.csv,Item,B,cake,,A10,,,35,JOL,User,1.25,"How likely are you to correctly recall the second item in the pair?|Type your response on a scale from 0-100 and then press Enter.",Anger,A10,2883,,,1026,1202,,,,90,1
6578d483e1b823c1a61469a6,2sikjfvj13,Ex2A_Prolific,1,51,2024-02-28T20:18:22+00:00,3.3277628421783,6,Stim_B.csv,Item.csv,Item,B,good,,A11,,,36,JOL,User,1.25,"How likely are you to correctly recall the second item in the pair?|Type your response on a scale from 0-100 and then press Enter.",Anger,A11,3042,,,1651,1762,,,,90,1
6578d483e1b823c1a61469a6,2sikjfvj13,Ex2A_Prolific,1,52,2024-02-28T20:18:25+00:00,2.9837071895599,6,Stim_B.csv,Item.csv,Item,B,tooth,,A12,,,37,JOL,User,1.25,"How likely are you to correctly recall the second item in the pair?|Type your response on a scale from 0-100 and then press Enter.",Anger,A12,2667,,,1883,1994,,,,90,1
6578d483e1b823c1a61469a6,2sikjfvj13,Ex2A_Prolific,1,53,2024-02-28T20:18:30+00:00,5.0121219158173,6,Stim_B.csv,Item.csv,Item,B,,,,,,0,Instruct,User,4,"You have completed this section. Please click next.",,Instruct166,4700,,,-1,-1,,,,,1
6578d483e1b823c1a61469a6,2sikjfvj13,Ex2A_Prolific,1,54,2024-02-28T20:19:00+00:00,30.345799922943,6,Stim_B.csv,Item.csv,Item,B,,,,,,0,FreeRecall,30,30,"Please type as many words as you can that begin with the letter ""W"". The computer will automatically advance to the next screen in 30 seconds.",,FILLER,30003,"WHITE WRING wink wrinkle went woman wellbeing ",0,2920,29358,0,0,,,1
6578d483e1b823c1a61469a6,2sikjfvj13,Ex2A_Prolific,1,55,2024-02-28T20:19:05+00:00,4.7689549922943,6,Stim_B.csv,Item.csv,Item,B,,,,,,0,Instruct,User,4,"You have completed this section. Please click next.",,Instruct166,4441,,,-1,-1,,,,,1
6578d483e1b823c1a61469a6,2sikjfvj13,Ex2A_Prolific,1,56,2024-02-28T20:19:10+00:00,5.685779094696,6,Stim_B.csv,Item.csv,Item,B,,,,,,0,Instruct,User,4,"You will now complete a memory test for the words you just studied. Please type as many words from the previous list as you can seperated by a comma. Spelling will not count against you and you can recall the words in any order. This test will be timed for one minute, and the computer will automatically advance once time is up. Click next when you are ready to begin.",,Instruct1666,5371,,,-1,-1,,,,,1
6578d483e1b823c1a61469a6,2sikjfvj13,Ex2A_Prolific,1,57,2024-02-28T20:20:11+00:00,60.33861207962,6,Stim_B.csv,Item.csv,Item,B,,,,,,0,FreeRecall,60,60,"Please type as many words as you can from the previous study list in any order. Please separate each word with a comma. Spelling will not count against you. This screen will automatically advance in one minute.",,RECALL_Test,60003,"honey,sugar,sour,candy,tart,choclate,nice, ",0,9112,59551,0,0,,,1
6578d483e1b823c1a61469a6,2sikjfvj13,Ex2A_Prolific,1,58,2024-02-28T20:20:17+00:00,6.0791490077972,6,Stim_B.csv,Item.csv,Item,B,,,,,,0,Instruct,User,3,"You will now be presented with a new study list. Click next when you are ready to begin.",,NEXT_LIST,5771,,,-1,-1,,,,,1
6578d483e1b823c1a61469a6,2sikjfvj13,Ex2A_Prolific,1,59,2024-02-28T20:20:25+00:00,8.3778829574585,6,Stim_B.csv,Item.csv,Item,B,table,,T1,,,38,JOL,User,1.25,"How likely are you to correctly recall the second item in the pair?|Type your response on a scale from 0-100 and then press Enter.",Trash,T1,8077,,,4055,4270,,,,90,1
6578d483e1b823c1a61469a6,2sikjfvj13,Ex2A_Prolific,1,60,2024-02-28T20:20:28+00:00,2.3346750736237,6,Stim_B.csv,Item.csv,Item,B,swivel,,T2,,,39,JOL,User,1.25,"How likely are you to correctly recall the second item in the pair?|Type your response on a scale from 0-100 and then press Enter.",Trash,T2,2009,,,1403,1713,,,,90,1
6578d483e1b823c1a61469a6,2sikjfvj13,Ex2A_Prolific,1,61,2024-02-28T20:20:29+00:00,1.6840808391571,6,Stim_B.csv,Item.csv,Item,B,rocking,,T3,,,40,JOL,User,1.25,"How likely are you to correctly recall the second item in the pair?|Type your response on a scale from 0-100 and then press Enter.",Trash,T3,1360,,,593,744,,,,90,1
6578d483e1b823c1a61469a6,2sikjfvj13,Ex2A_Prolific,1,62,2024-02-28T20:20:36+00:00,6.5500731468201,6,Stim_B.csv,Item.csv,Item,B,recliner,,T4,,,41,JOL,User,1.25,"How likely are you to correctly recall the second item in the pair?|Type your response on a scale from 0-100 and then press Enter.",Trash,T4,6222,,,5518,5573,,,,90,1
6578d483e1b823c1a61469a6,2sikjfvj13,Ex2A_Prolific,1,63,2024-02-28T20:20:38+00:00,2.5126187801361,6,Stim_B.csv,Item.csv,Item,B,seat,,T5,,,42,JOL,User,1.25,"How likely are you to correctly recall the second item in the pair?|Type your response on a scale from 0-100 and then press Enter.",Trash,T5,2191,,,384,544,,,,90,1
6578d483e1b823c1a61469a6,2sikjfvj13,Ex2A_Prolific,1,64,2024-02-28T20:20:41+00:00,2.972373008728,6,Stim_B.csv,Item.csv,Item,B,stool,,T6,,,43,JOL,User,1.25,"How likely are you to correctly recall the second item in the pair?|Type your response on a scale from 0-100 and then press Enter.",Trash,T6,2643,,,314,489,,,,90,1
6578d483e1b823c1a61469a6,2sikjfvj13,Ex2A_Prolific,1,65,2024-02-28T20:20:49+00:00,8.1552770137787,6,Stim_B.csv,Item.csv,Item,B,desk,,T7,,,44,JOL,User,1.25,"How likely are you to correctly recall the second item in the pair?|Type your response on a scale from 0-100 and then press Enter.",Trash,T7,7840,,,7423,7528,,,,90,1
6578d483e1b823c1a61469a6,2sikjfvj13,Ex2A_Prolific,1,66,2024-02-28T20:20:52+00:00,2.7849690914154,6,Stim_B.csv,Item.csv,Item,B,couch,,T8,,,45,JOL,User,1.25,"How likely are you to correctly recall the second item in the pair?|Type your response on a scale from 0-100 and then press Enter.",Trash,T8,2466,,,1179,1290,,,,90,1
6578d483e1b823c1a61469a6,2sikjfvj13,Ex2A_Prolific,1,67,2024-02-28T20:20:55+00:00,2.473531961441,6,Stim_B.csv,Item.csv,Item,B,sit,,T9,,,46,JOL,User,1.25,"How likely are you to correctly recall the second item in the pair?|Type your response on a scale from 0-100 and then press Enter.",Trash,T9,2186,,,1125,1202,,,,90,1
6578d483e1b823c1a61469a6,2sikjfvj13,Ex2A_Prolific,1,68,2024-02-28T20:20:57+00:00,2.1159341335297,6,Stim_B.csv,Item.csv,Item,B,sofa,,T10,,,47,JOL,User,1.25,"How likely are you to correctly recall the second item in the pair?|Type your response on a scale from 0-100 and then press Enter.",Trash,T10,1786,,,1292,1426,,,,90,1
6578d483e1b823c1a61469a6,2sikjfvj13,Ex2A_Prolific,1,69,2024-02-28T20:21:00+00:00,2.9524087905884,6,Stim_B.csv,Item.csv,Item,B,bench,,T11,,,48,JOL,User,1.25,"How likely are you to correctly recall the second item in the pair?|Type your response on a scale from 0-100 and then press Enter.",Trash,T11,2642,,,1043,1074,,,,90,1
6578d483e1b823c1a61469a6,2sikjfvj13,Ex2A_Prolific,1,70,2024-02-28T20:21:02+00:00,2.046658039093,6,Stim_B.csv,Item.csv,Item,B,sitting,,T12,,,49,JOL,User,1.25,"How likely are you to correctly recall the second item in the pair?|Type your response on a scale from 0-100 and then press Enter.",Trash,T12,1728,,,657,776,,,,90,1
6578d483e1b823c1a61469a6,2sikjfvj13,Ex2A_Prolific,1,71,2024-02-28T20:21:05+00:00,3.0391201972961,6,Stim_B.csv,Item.csv,Item,B,,,,,,0,Instruct,User,-,"You have completed this section. Please click next.",,Instruct166,2718,,,-1,-1,,,,,1
6578d483e1b823c1a61469a6,2sikjfvj13,Ex2A_Prolific,1,72,2024-02-28T20:21:35+00:00,30.335854768753,6,Stim_B.csv,Item.csv,Item,B,,,,,,0,FreeRecall,30,30,"Please type as many words as you can that begin with the letter ""T"". The computer will automatically advance to the next screen in 30 seconds.",,FILLER,30003,"touch tell turned turn tuna tomatoe telling ",0,2803,28267,0,0,,,1
6578d483e1b823c1a61469a6,2sikjfvj13,Ex2A_Prolific,1,73,2024-02-28T20:21:38+00:00,3.1998670101166,6,Stim_B.csv,Item.csv,Item,B,,,,,,0,Instruct,User,-,"You have completed this section. Please click next.",,Instruct166,2883,,,340,340,,,,,1
6578d483e1b823c1a61469a6,2sikjfvj13,Ex2A_Prolific,1,74,2024-02-28T20:21:43+00:00,4.8046500682831,6,Stim_B.csv,Item.csv,Item,B,,,,,,0,Instruct,User,4,"You will now complete a memory test for the words you just studied. Please type as many words from the previous list as you can seperated by a comma. Spelling will not count against you and you can recall the words in any order. This test will be timed for one minute, and the computer will automatically advance once time is up. Click next when you are ready to begin.",,Instruct1666,4518,,,-1,-1,,,,,1
6578d483e1b823c1a61469a6,2sikjfvj13,Ex2A_Prolific,1,75,2024-02-28T20:22:44+00:00,60.342360019684,6,Stim_B.csv,Item.csv,Item,B,,,,,,0,FreeRecall,60,60,"Please type as many words as you can from the previous study list in any order. Please separate each word with a comma. Spelling will not count against you. This screen will automatically advance in one minute.",,RECALL_Test,60001,"Table,desk,stoll,couch,sit,sofa,bench,",0,5198,50431,0,0,,,1
6578d483e1b823c1a61469a6,2sikjfvj13,Ex2A_Prolific,1,76,2024-02-28T20:22:47+00:00,3.7662029266357,6,Stim_B.csv,Item.csv,Item,B,,,,,,0,Instruct,User,3,"You will now be presented with a new study list. Click next when you are ready to begin.",,NEXT_LIST,3479,,,-1,-1,,,,,1
6578d483e1b823c1a61469a6,2sikjfvj13,Ex2A_Prolific,1,77,2024-02-28T20:22:53+00:00,5.8264820575714,6,Stim_B.csv,Item.csv,Item,B,climber,,D1,,,50,JOL,User,1.25,"How likely are you to correctly recall the second item in the pair?|Type your response on a scale from 0-100 and then press Enter.",Doctor,D1,5501,,,2556,3094,,,,90,1
6578d483e1b823c1a61469a6,2sikjfvj13,Ex2A_Prolific,1,78,2024-02-28T20:22:55+00:00,2.1580510139465,6,Stim_B.csv,Item.csv,Item,B,hill,,D2,,,51,JOL,User,1.25,"How likely are you to correctly recall the second item in the pair?|Type your response on a scale from 0-100 and then press Enter.",Doctor,D2,1851,,,500,755,,,,90,1
6578d483e1b823c1a61469a6,2sikjfvj13,Ex2A_Prolific,1,79,2024-02-28T20:22:59+00:00,3.321093082428,6,Stim_B.csv,Item.csv,Item,B,climb,,D3,,,52,JOL,User,1.25,"How likely are you to correctly recall the second item in the pair?|Type your response on a scale from 0-100 and then press Enter.",Doctor,D3,2996,,,925,1156,,,,90,1
6578d483e1b823c1a61469a6,2sikjfvj13,Ex2A_Prolific,1,80,2024-02-28T20:23:02+00:00,3.0064678192139,6,Stim_B.csv,Item.csv,Item,B,molehill,,D4,,,53,JOL,User,1.25,"How likely are you to correctly recall the second item in the pair?|Type your response on a scale from 0-100 and then press Enter.",Doctor,D4,2676,,,1308,1573,,,,90,1
6578d483e1b823c1a61469a6,2sikjfvj13,Ex2A_Prolific,1,81,2024-02-28T20:23:04+00:00,2.4160170555115,6,Stim_B.csv,Item.csv,Item,B,peak,,D5,,,54,JOL,User,1.25,"How likely are you to correctly recall the second item in the pair?|Type your response on a scale from 0-100 and then press Enter.",Doctor,D5,2089,,,571,985,,,,90,1
6578d483e1b823c1a61469a6,2sikjfvj13,Ex2A_Prolific,1,82,2024-02-28T20:23:07+00:00,2.5767440795898,6,Stim_B.csv,Item.csv,Item,B,valley,,D6,,,55,JOL,User,1.25,"How likely are you to correctly recall the second item in the pair?|Type your response on a scale from 0-100 and then press Enter.",Doctor,D6,2269,,,879,1214,,,,90,1
6578d483e1b823c1a61469a6,2sikjfvj13,Ex2A_Prolific,1,83,2024-02-28T20:23:13+00:00,6.0073149204254,6,Stim_B.csv,Item.csv,Item,B,summit,,D7,,,56,JOL,User,1.25,"How likely are you to correctly recall the second item in the pair?|Type your response on a scale from 0-100 and then press Enter.",Doctor,D7,5693,,,847,1118,,,,90,1
6578d483e1b823c1a61469a6,2sikjfvj13,Ex2A_Prolific,1,84,2024-02-28T20:23:16+00:00,3.8283190727234,6,Stim_B.csv,Item.csv,Item,B,steep,,D8,,,57,JOL,User,1.25,"How likely are you to correctly recall the second item in the pair?|Type your response on a scale from 0-100 and then press Enter.",Doctor,D8,3520,,,1071,1296,,,,90,1
6578d483e1b823c1a61469a6,2sikjfvj13,Ex2A_Prolific,1,85,2024-02-28T20:23:19+00:00,2.25368309021,6,Stim_B.csv,Item.csv,Item,B,ski,,D9,,,58,JOL,User,1.25,"How likely are you to correctly recall the second item in the pair?|Type your response on a scale from 0-100 and then press Enter.",Doctor,D9,1963,,,1157,1412,,,,90,1
6578d483e1b823c1a61469a6,2sikjfvj13,Ex2A_Prolific,1,86,2024-02-28T20:23:22+00:00,3.4699728488922,6,Stim_B.csv,Item.csv,Item,B,bike,,D10,,,59,JOL,User,1.25,"How likely are you to correctly recall the second item in the pair?|Type your response on a scale from 0-100 and then press Enter.",Doctor,D10,3139,,,2565,2708,,,,90,1
6578d483e1b823c1a61469a6,2sikjfvj13,Ex2A_Prolific,1,87,2024-02-28T20:23:26+00:00,4.2832810878754,6,Stim_B.csv,Item.csv,Item,B,goat,,D11,,,60,JOL,User,1.25,"How likely are you to correctly recall the second item in the pair?|Type your response on a scale from 0-100 and then press Enter.",Doctor,D11,3959,,,2697,2895,,,,90,1
6578d483e1b823c1a61469a6,2sikjfvj13,Ex2A_Prolific,1,88,2024-02-28T20:23:29+00:00,2.8730568885803,6,Stim_B.csv,Item.csv,Item,B,glacier,,D12,,,61,JOL,User,1.25,"How likely are you to correctly recall the second item in the pair?|Type your response on a scale from 0-100 and then press Enter.",Doctor,D12,2555,,,1083,1274,,,,90,1
6578d483e1b823c1a61469a6,2sikjfvj13,Ex2A_Prolific,1,89,2024-02-28T20:23:35+00:00,5.6437220573425,6,Stim_B.csv,Item.csv,Item,B,,,,,,0,Instruct,User,4,"You have completed this section. Please click next.",,Instruct166,5349,,,-1,-1,,,,,1
6578d483e1b823c1a61469a6,2sikjfvj13,Ex2A_Prolific,1,90,2024-02-28T20:24:05+00:00,30.357449054718,6,Stim_B.csv,Item.csv,Item,B,,,,,,0,FreeRecall,30,30,"Please type as many words as you can that begin with the letter ""S"". The computer will automatically advance to the next screen in 30 seconds.",,FILLER,30002,"Suger seed salt send salted sun sunset selleing seller",0,3229,29996,0,0,,,1
6578d483e1b823c1a61469a6,2sikjfvj13,Ex2A_Prolific,1,91,2024-02-28T20:24:10+00:00,5.0250868797302,6,Stim_B.csv,Item.csv,Item,B,,,,,,0,Instruct,User,4,"You have completed this section. Please click next.",,Instruct166,4700,,,-1,-1,,,,,1
6578d483e1b823c1a61469a6,2sikjfvj13,Ex2A_Prolific,1,92,2024-02-28T20:24:25+00:00,15.044205188751,6,Stim_B.csv,Item.csv,Item,B,,,,,,0,Instruct,User,4,"You will now complete a memory test for the words you just studied. Please type as many words from the previous list as you can seperated by a comma. Spelling will not count against you and you can recall the words in any order. This test will be timed for one minute, and the computer will automatically advance once time is up. Click next when you are ready to begin.",,Instruct1666,14722,,,-1,-1,,,,,1
6578d483e1b823c1a61469a6,2sikjfvj13,Ex2A_Prolific,1,93,2024-02-28T20:25:26+00:00,60.324880838394,6,Stim_B.csv,Item.csv,Item,B,,,,,,0,FreeRecall,60,60,"Please type as many words as you can from the previous study list in any order. Please separate each word with a comma. Spelling will not count against you. This screen will automatically advance in one minute.",,RECALL_Test,60007,"Climber,molehill,peak,valley,summer,steep,ski,bike,goat,glecier",0,6493,51389,0,0,,,1
6578d483e1b823c1a61469a6,2sikjfvj13,Ex2A_Prolific,1,94,2024-02-28T20:25:32+00:00,6.5265879631042,6,Stim_B.csv,Item.csv,Item,B,,,,,,0,Instruct,User,3,"You will now be presented with a new study list. Click next when you are ready to begin.",,NEXT_LIST,6240,,,-1,-1,,,,,1
6578d483e1b823c1a61469a6,2sikjfvj13,Ex2A_Prolific,1,95,2024-02-28T20:25:38+00:00,5.3548760414124,6,Stim_B.csv,Item.csv,Item,B,band,,S1,,,62,JOL,User,1.25,"How likely are you to correctly recall the second item in the pair?|Type your response on a scale from 0-100 and then press Enter.",Slow,S1,5040,,,3137,3248,,,,90,1
6578d483e1b823c1a61469a6,2sikjfvj13,Ex2A_Prolific,1,96,2024-02-28T20:25:42+00:00,4.7676069736481,6,Stim_B.csv,Item.csv,Item,B,concert,,S2,,,63,JOL,User,1.25,"How likely are you to correctly recall the second item in the pair?|Type your response on a scale from 0-100 and then press Enter.",Slow,S2,4271,,,928,1047,,,,90,1
6578d483e1b823c1a61469a6,2sikjfvj13,Ex2A_Prolific,1,97,2024-02-28T20:25:45+00:00,2.5770621299744,6,Stim_B.csv,Item.csv,Item,B,jazz,,S3,,,64,JOL,User,1.25,"How likely are you to correctly recall the second item in the pair?|Type your response on a scale from 0-100 and then press Enter.",Slow,S3,2024,,,730,913,,,,90,1
6578d483e1b823c1a61469a6,2sikjfvj13,Ex2A_Prolific,1,98,2024-02-28T20:25:48+00:00,3.3453938961029,6,Stim_B.csv,Item.csv,Item,B,symphony,,S4,,,65,JOL,User,1.25,"How likely are you to correctly recall the second item in the pair?|Type your response on a scale from 0-100 and then press Enter.",Slow,S4,2955,,,428,627,,,,90,1
6578d483e1b823c1a61469a6,2sikjfvj13,Ex2A_Prolific,1,99,2024-02-28T20:25:51+00:00,2.4065690040588,6,Stim_B.csv,Item.csv,Item,B,orchestra,,S5,,,66,JOL,User,1.25,"How likely are you to correctly recall the second item in the pair?|Type your response on a scale from 0-100 and then press Enter.",Slow,S5,2092,,,653,804,,,,90,1
6578d483e1b823c1a61469a6,2sikjfvj13,Ex2A_Prolific,1,100,2024-02-28T20:25:53+00:00,2.1981410980225,6,Stim_B.csv,Item.csv,Item,B,rhythm,,S6,,,67,JOL,User,1.25,"How likely are you to correctly recall the second item in the pair?|Type your response on a scale from 0-100 and then press Enter.",Slow,S6,1864,,,793,928,,,,90,1
6578d483e1b823c1a61469a6,2sikjfvj13,Ex2A_Prolific,1,101,2024-02-28T20:25:56+00:00,2.9274489879608,6,Stim_B.csv,Item.csv,Item,B,radio,,S7,,,68,JOL,User,1.25,"How likely are you to correctly recall the second item in the pair?|Type your response on a scale from 0-100 and then press Enter.",Slow,S7,2636,,,1013,1253,,,,90,1
6578d483e1b823c1a61469a6,2sikjfvj13,Ex2A_Prolific,1,102,2024-02-28T20:25:59+00:00,2.9785490036011,6,Stim_B.csv,Item.csv,Item,B,melody,,S8,,,69,JOL,User,1.25,"How likely are you to correctly recall the second item in the pair?|Type your response on a scale from 0-100 and then press Enter.",Slow,S8,2663,,,848,1015,,,,90,1
6578d483e1b823c1a61469a6,2sikjfvj13,Ex2A_Prolific,1,103,2024-02-28T20:26:01+00:00,2.4947259426117,6,Stim_B.csv,Item.csv,Item,B,piano,,S9,,,70,JOL,User,1.25,"How likely are you to correctly recall the second item in the pair?|Type your response on a scale from 0-100 and then press Enter.",Slow,S9,2165,,,743,886,,,,90,1
6578d483e1b823c1a61469a6,2sikjfvj13,Ex2A_Prolific,1,104,2024-02-28T20:26:04+00:00,2.5028331279755,6,Stim_B.csv,Item.csv,Item,B,sound,,S10,,,71,JOL,User,1.25,"How likely are you to correctly recall the second item in the pair?|Type your response on a scale from 0-100 and then press Enter.",Slow,S10,2176,,,1153,1296,,,,90,1
6578d483e1b823c1a61469a6,2sikjfvj13,Ex2A_Prolific,1,105,2024-02-28T20:26:06+00:00,2.3298418521881,6,Stim_B.csv,Item.csv,Item,B,instrument,,S11,,,72,JOL,User,1.25,"How likely are you to correctly recall the second item in the pair?|Type your response on a scale from 0-100 and then press Enter.",Slow,S11,2044,,,933,1060,,,,90,1
6578d483e1b823c1a61469a6,2sikjfvj13,Ex2A_Prolific,1,106,2024-02-28T20:26:09+00:00,2.4467880725861,6,Stim_B.csv,Item.csv,Item,B,note,,S12,,,73,JOL,User,1.25,"How likely are you to correctly recall the second item in the pair?|Type your response on a scale from 0-100 and then press Enter.",Slow,S12,2121,,,1394,1577,,,,90,1
6578d483e1b823c1a61469a6,2sikjfvj13,Ex2A_Prolific,1,107,2024-02-28T20:26:19+00:00,10.133128881454,6,Stim_B.csv,Item.csv,Item,B,,,,,,0,Instruct,User,-,"You have completed this section. Please click next.",,Instruct166,9823,,,-1,-1,,,,,1
6578d483e1b823c1a61469a6,2sikjfvj13,Ex2A_Prolific,1,108,2024-02-28T20:26:49+00:00,30.342751979828,6,Stim_B.csv,Item.csv,Item,B,,,,,,0,FreeRecall,30,30,"Please type as many words as you can that begin with the letter ""M"". The computer will automatically advance to the next screen in 30 seconds.",,FILLER,30002,"mum mother melon mush mute melow man manners manderian",0,1865,29473,0,0,,,1
6578d483e1b823c1a61469a6,2sikjfvj13,Ex2A_Prolific,1,109,2024-02-28T20:27:05+00:00,16.099133014679,6,Stim_B.csv,Item.csv,Item,B,,,,,,0,Instruct,User,4,"You have completed this section. Please click next.",,Instruct166,15780,,,-1,-1,,,,,0.75
6578d483e1b823c1a61469a6,2sikjfvj13,Ex2A_Prolific,1,110,2024-02-28T20:27:52+00:00,47.01335310936,6,Stim_B.csv,Item.csv,Item,B,,,,,,0,Instruct,User,4,"You will now complete a memory test for the words you just studied. Please type as many words from the previous list as you can seperated by a comma. Spelling will not count against you and you can recall the words in any order. This test will be timed for one minute, and the computer will automatically advance once time is up. Click next when you are ready to begin.",,Instruct1666,46724,,,-1,-1,,,,,0.983
6578d483e1b823c1a61469a6,2sikjfvj13,Ex2A_Prolific,1,111,2024-02-28T20:28:53+00:00,60.362828016281,6,Stim_B.csv,Item.csv,Item,B,,,,,,0,FreeRecall,60,60,"Please type as many words as you can from the previous study list in any order. Please separate each word with a comma. Spelling will not count against you. This screen will automatically advance in one minute.",,RECALL_Test,60001,"band,concert,orchactra,synphony,jazz,radio,melod",0,22375,59597,0,0,,,0.986
6578d483e1b823c1a61469a6,2sikjfvj13,Ex2A_Prolific,1,112,2024-02-28T20:28:57+00:00,4.4387519359589,6,Stim_B.csv,Item.csv,Item,B,,,,,,0,Instruct,User,3,"You will now be presented with a new study list. Click next when you are ready to begin.",,NEXT_LIST,4122,,,-1,-1,,,,,1
6578d483e1b823c1a61469a6,2sikjfvj13,Ex2A_Prolific,1,113,2024-02-28T20:29:02+00:00,5.458976984024,6,Stim_B.csv,Item.csv,Item,B,foam,,RR1,,,74,JOL,User,1.25,"How likely are you to correctly recall the second item in the pair?|Type your response on a scale from 0-100 and then press Enter.",River,RR1,5158,,,3392,3534,,,,90,1
6578d483e1b823c1a61469a6,2sikjfvj13,Ex2A_Prolific,1,114,2024-02-28T20:29:05+00:00,2.7746839523315,6,Stim_B.csv,Item.csv,Item,B,latex,,RR2,,,75,JOL,User,1.25,"How likely are you to correctly recall the second item in the pair?|Type your response on a scale from 0-100 and then press Enter.",River,RR2,2452,,,613,733,,,,90,1
6578d483e1b823c1a61469a6,2sikjfvj13,Ex2A_Prolific,1,115,2024-02-28T20:29:19+00:00,13.655179023743,6,Stim_B.csv,Item.csv,Item,B,galoshes,,RR3,,,76,JOL,User,1.25,"How likely are you to correctly recall the second item in the pair?|Type your response on a scale from 0-100 and then press Enter.",River,RR3,13371,,,11562,11715,,,,90,1
6578d483e1b823c1a61469a6,2sikjfvj13,Ex2A_Prolific,1,116,2024-02-28T20:29:22+00:00,3.0102050304413,6,Stim_B.csv,Item.csv,Item,B,tire,,RR4,,,77,JOL,User,1.25,"How likely are you to correctly recall the second item in the pair?|Type your response on a scale from 0-100 and then press Enter.",River,RR4,2716,,,1157,1228,,,,90,1
6578d483e1b823c1a61469a6,2sikjfvj13,Ex2A_Prolific,1,117,2024-02-28T20:29:26+00:00,4.4491300582886,6,Stim_B.csv,Item.csv,Item,B,flexible,,RR5,,,78,JOL,User,1.25,"How likely are you to correctly recall the second item in the pair?|Type your response on a scale from 0-100 and then press Enter.",River,RR5,4128,,,1705,1832,,,,90,1
6578d483e1b823c1a61469a6,2sikjfvj13,Ex2A_Prolific,1,118,2024-02-28T20:29:30+00:00,3.4880719184875,6,Stim_B.csv,Item.csv,Item,B,elastic,,RR6,,,79,JOL,User,1.25,"How likely are you to correctly recall the second item in the pair?|Type your response on a scale from 0-100 and then press Enter.",River,RR6,3137,,,1106,1177,,,,90,1
6578d483e1b823c1a61469a6,2sikjfvj13,Ex2A_Prolific,1,119,2024-02-28T20:29:34+00:00,4.1639051437378,6,Stim_B.csv,Item.csv,Item,B,gloves,,RR7,,,80,JOL,User,1.25,"How likely are you to correctly recall the second item in the pair?|Type your response on a scale from 0-100 and then press Enter.",River,RR7,3822,,,1559,1669,,,,90,1
6578d483e1b823c1a61469a6,2sikjfvj13,Ex2A_Prolific,1,120,2024-02-28T20:29:38+00:00,4.1200668811798,6,Stim_B.csv,Item.csv,Item,B,eraser,,RR8,,,81,JOL,User,1.25,"How likely are you to correctly recall the second item in the pair?|Type your response on a scale from 0-100 and then press Enter.",River,RR8,3809,,,2394,2521,,,,90,1
6578d483e1b823c1a61469a6,2sikjfvj13,Ex2A_Prolific,1,121,2024-02-28T20:29:40+00:00,2.1530020236969,6,Stim_B.csv,Item.csv,Item,B,bounce,,RR9,,,82,JOL,User,1.25,"How likely are you to correctly recall the second item in the pair?|Type your response on a scale from 0-100 and then press Enter.",River,RR9,1841,,,859,1041,,,,90,1
6578d483e1b823c1a61469a6,2sikjfvj13,Ex2A_Prolific,1,122,2024-02-28T20:29:43+00:00,2.3439331054688,6,Stim_B.csv,Item.csv,Item,B,ball,,RR10,,,83,JOL,User,1.25,"How likely are you to correctly recall the second item in the pair?|Type your response on a scale from 0-100 and then press Enter.",River,RR10,2030,,,783,918,,,,90,1
6578d483e1b823c1a61469a6,2sikjfvj13,Ex2A_Prolific,1,123,2024-02-28T20:29:45+00:00,2.0997598171234,6,Stim_B.csv,Item.csv,Item,B,soles,,RR11,,,84,JOL,User,1.25,"How likely are you to correctly recall the second item in the pair?|Type your response on a scale from 0-100 and then press Enter.",River,RR11,1771,,,948,963,,,,90,1
6578d483e1b823c1a61469a6,2sikjfvj13,Ex2A_Prolific,1,124,2024-02-28T20:29:49+00:00,4.7567400932312,6,Stim_B.csv,Item.csv,Item,B,springy,,RR12,,,85,JOL,User,1.25,"How likely are you to correctly recall the second item in the pair?|Type your response on a scale from 0-100 and then press Enter.",River,RR12,4470,,,3229,3390,,,,90,1
6578d483e1b823c1a61469a6,2sikjfvj13,Ex2A_Prolific,1,125,2024-02-28T20:29:56+00:00,6.7505340576172,6,Stim_B.csv,Item.csv,Item,B,,,,,,0,Instruct,User,4,"You have completed this section. Please click next.",,Instruct166,6429,,,-1,-1,,,,,1
6578d483e1b823c1a61469a6,2sikjfvj13,Ex2A_Prolific,1,126,2024-02-28T20:30:27+00:00,30.349118947983,6,Stim_B.csv,Item.csv,Item,B,,,,,,0,FreeRecall,30,30,"Please type as many words as you can that begin with the letter ""K"". The computer will automatically advance to the next screen in 30 seconds.",,FILLER,30006,"kelo kevin kelly keep keeper kept kne",0,2367,29725,0,0,,,1
6578d483e1b823c1a61469a6,2sikjfvj13,Ex2A_Prolific,1,127,2024-02-28T20:30:29+00:00,2.898736000061,6,Stim_B.csv,Item.csv,Item,B,,,,,,0,Instruct,User,-,"You have completed this section. Please click next.",,Instruct166,2576,,,-1,-1,,,,,1
6578d483e1b823c1a61469a6,2sikjfvj13,Ex2A_Prolific,1,128,2024-02-28T20:30:34+00:00,4.8957500457764,6,Stim_B.csv,Item.csv,Item,B,,,,,,0,Instruct,User,4,"You will now complete a memory test for the words you just studied. Please type as many words from the previous list as you can seperated by a comma. Spelling will not count against you and you can recall the words in any order. This test will be timed for one minute, and the computer will automatically advance once time is up. Click next when you are ready to begin.",,Instruct1666,4542,,,-1,-1,,,,,1
6578d483e1b823c1a61469a6,2sikjfvj13,Ex2A_Prolific,1,129,2024-02-28T20:31:35+00:00,60.325443983078,6,Stim_B.csv,Item.csv,Item,B,,,,,,0,FreeRecall,60,60,"Please type as many words as you can from the previous study list in any order. Please separate each word with a comma. Spelling will not count against you. This screen will automatically advance in one minute.",,RECALL_Test,60002,"Foam,latex,tyre,flexible,elastic,gloves,erser,ball,springy",0,6026,59305,0,0,,,1
6578d483e1b823c1a61469a6,2sikjfvj13,Ex2A_Prolific,1,130,2024-02-28T20:31:38+00:00,3.7948789596558,6,Stim_B.csv,Item.csv,Item,B,,,,,,0,Instruct,User,3,"You will now be presented with a new study list. Click next when you are ready to begin.",,NEXT_LIST,3464,,,-1,-1,,,,,1
6578d483e1b823c1a61469a6,2sikjfvj13,Ex2A_Prolific,1,131,2024-02-28T20:31:51+00:00,12.561271905899,6,Stim_B.csv,Item.csv,Item,B,toe,,B1,,,86,JOL,User,1.25,"How likely are you to correctly recall the second item in the pair?|Type your response on a scale from 0-100 and then press Enter.",Bread,B1,12276,,,7061,7228,,,,90,1
6578d483e1b823c1a61469a6,2sikjfvj13,Ex2A_Prolific,1,132,2024-02-28T20:31:55+00:00,3.6741089820862,6,Stim_B.csv,Item.csv,Item,B,inch,,B2,,,87,JOL,User,1.25,"How likely are you to correctly recall the second item in the pair?|Type your response on a scale from 0-100 and then press Enter.",Bread,B2,3355,,,2611,2691,,,,90,1
6578d483e1b823c1a61469a6,2sikjfvj13,Ex2A_Prolific,1,133,2024-02-28T20:31:58+00:00,2.9741070270538,6,Stim_B.csv,Item.csv,Item,B,ankle,,B3,,,88,JOL,User,1.25,"How likely are you to correctly recall the second item in the pair?|Type your response on a scale from 0-100 and then press Enter.",Bread,B3,2687,,,1495,1599,,,,90,1
6578d483e1b823c1a61469a6,2sikjfvj13,Ex2A_Prolific,1,134,2024-02-28T20:32:01+00:00,3.0600910186768,6,Stim_B.csv,Item.csv,Item,B,shoe,,B4,,,89,JOL,User,1.25,"How likely are you to correctly recall the second item in the pair?|Type your response on a scale from 0-100 and then press Enter.",Bread,B4,2768,,,1728,1744,,,,90,1
6578d483e1b823c1a61469a6,2sikjfvj13,Ex2A_Prolific,1,135,2024-02-28T20:32:04+00:00,2.8549590110779,6,Stim_B.csv,Item.csv,Item,B,sandals,,B5,,,90,JOL,User,1.25,"How likely are you to correctly recall the second item in the pair?|Type your response on a scale from 0-100 and then press Enter.",Bread,B5,2562,,,716,859,,,,90,1
6578d483e1b823c1a61469a6,2sikjfvj13,Ex2A_Prolific,1,136,2024-02-28T20:32:07+00:00,3.4550659656525,6,Stim_B.csv,Item.csv,Item,B,sock,,B6,,,91,JOL,User,1.25,"How likely are you to correctly recall the second item in the pair?|Type your response on a scale from 0-100 and then press Enter.",Bread,B6,3164,,,2148,2212,,,,90,1
6578d483e1b823c1a61469a6,2sikjfvj13,Ex2A_Prolific,1,137,2024-02-28T20:32:09+00:00,2.4405031204224,6,Stim_B.csv,Item.csv,Item,B,hand,,B7,,,92,JOL,User,1.25,"How likely are you to correctly recall the second item in the pair?|Type your response on a scale from 0-100 and then press Enter.",Bread,B7,2142,,,639,782,,,,90,1
6578d483e1b823c1a61469a6,2sikjfvj13,Ex2A_Prolific,1,138,2024-02-28T20:32:13+00:00,3.4125199317932,6,Stim_B.csv,Item.csv,Item,B,boot,,B8,,,93,JOL,User,1.25,"How likely are you to correctly recall the second item in the pair?|Type your response on a scale from 0-100 and then press Enter.",Bread,B8,3127,,,840,983,,,,90,1
6578d483e1b823c1a61469a6,2sikjfvj13,Ex2A_Prolific,1,139,2024-02-28T20:32:15+00:00,2.1136329174042,6,Stim_B.csv,Item.csv,Item,B,yard,,B9,,,94,JOL,User,1.25,"How likely are you to correctly recall the second item in the pair?|Type your response on a scale from 0-100 and then press Enter.",Bread,B9,1799,,,536,711,,,,90,1
6578d483e1b823c1a61469a6,2sikjfvj13,Ex2A_Prolific,1,140,2024-02-28T20:32:18+00:00,2.7609791755676,6,Stim_B.csv,Item.csv,Item,B,kick,,B10,,,95,JOL,User,1.25,"How likely are you to correctly recall the second item in the pair?|Type your response on a scale from 0-100 and then press Enter.",Bread,B10,2430,,,911,997,,,,90,1
6578d483e1b823c1a61469a6,2sikjfvj13,Ex2A_Prolific,1,141,2024-02-28T20:32:20+00:00,2.0868809223175,6,Stim_B.csv,Item.csv,Item,B,knee,,B11,,,96,JOL,User,1.25,"How likely are you to correctly recall the second item in the pair?|Type your response on a scale from 0-100 and then press Enter.",Bread,B11,1770,,,571,674,,,,90,1
6578d483e1b823c1a61469a6,2sikjfvj13,Ex2A_Prolific,1,142,2024-02-28T20:32:22+00:00,2.080402135849,6,Stim_B.csv,Item.csv,Item,B,walk,,B12,,,97,JOL,User,1.25,"How likely are you to correctly recall the second item in the pair?|Type your response on a scale from 0-100 and then press Enter.",Bread,B12,1761,,,658,769,,,,90,1
6578d483e1b823c1a61469a6,2sikjfvj13,Ex2A_Prolific,1,143,2024-02-28T20:32:25+00:00,3.2367839813232,6,Stim_B.csv,Item.csv,Item,B,,,,,,0,Instruct,User,-,"You have completed this section. Please click next.",,Instruct166,2912,,,-1,-1,,,,,1
6578d483e1b823c1a61469a6,2sikjfvj13,Ex2A_Prolific,1,144,2024-02-28T20:32:56+00:00,30.358578920364,6,Stim_B.csv,Item.csv,Item,B,,,,,,0,FreeRecall,30,30,"Please type as many words as you can that begin with the letter ""L"". The computer will automatically advance to the next screen in 30 seconds.",,FILLER,30004,"love letters licks llog",0,2253,26716,0,0,,,1
6578d483e1b823c1a61469a6,2sikjfvj13,Ex2A_Prolific,1,145,2024-02-28T20:33:08+00:00,12.114759922028,6,Stim_B.csv,Item.csv,Item,B,,,,,,0,Instruct,User,4,"You have completed this section. Please click next.",,Instruct166,11789,,,-1,-1,,,,,1
6578d483e1b823c1a61469a6,2sikjfvj13,Ex2A_Prolific,1,146,2024-02-28T20:33:13+00:00,5.3050560951233,6,Stim_B.csv,Item.csv,Item,B,,,,,,0,Instruct,User,4,"You will now complete a memory test for the words you just studied. Please type as many words from the previous list as you can seperated by a comma. Spelling will not count against you and you can recall the words in any order. This test will be timed for one minute, and the computer will automatically advance once time is up. Click next when you are ready to begin.",,Instruct1666,4995,,,-1,-1,,,,,1
6578d483e1b823c1a61469a6,2sikjfvj13,Ex2A_Prolific,1,147,2024-02-28T20:34:13+00:00,60.349766969681,6,Stim_B.csv,Item.csv,Item,B,,,,,,0,FreeRecall,60,60,"Please type as many words as you can from the previous study list in any order. Please separate each word with a comma. Spelling will not count against you. This screen will automatically advance in one minute.",,RECALL_Test,60002,"Toe,inch,ankle,sandles,shoe,sock,hand,boot,yard,kick,knee,walk",0,7836,50731,0,0,,,1
6578d483e1b823c1a61469a6,2sikjfvj13,Ex2A_Prolific,1,148,2024-02-28T20:34:17+00:00,4.0417859554291,6,Stim_B.csv,Item.csv,Item,B,,,,,,0,Instruct,User,3,"You will now be presented with a new study list. Click next when you are ready to begin.",,NEXT_LIST,3719,,,-1,-1,,,,,1
6578d483e1b823c1a61469a6,2sikjfvj13,Ex2A_Prolific,1,149,2024-02-28T20:34:22+00:00,4.2050969600677,6,Stim_B.csv,Item.csv,Item,B,boy,,F1,,,98,JOL,User,1.25,"How likely are you to correctly recall the second item in the pair?|Type your response on a scale from 0-100 and then press Enter.",Flag,F1,3913,,,2715,2961,,,,90,1
6578d483e1b823c1a61469a6,2sikjfvj13,Ex2A_Prolific,1,150,2024-02-28T20:34:24+00:00,2.330913066864,6,Stim_B.csv,Item.csv,Item,B,dolls,,F2,,,99,JOL,User,1.25,"How likely are you to correctly recall the second item in the pair?|Type your response on a scale from 0-100 and then press Enter.",Flag,F2,2045,,,1062,1357,,,,90,1
6578d483e1b823c1a61469a6,2sikjfvj13,Ex2A_Prolific,1,151,2024-02-28T20:34:28+00:00,4.0247321128845,6,Stim_B.csv,Item.csv,Item,B,pretty,,F3,,,100,JOL,User,1.25,"How likely are you to correctly recall the second item in the pair?|Type your response on a scale from 0-100 and then press Enter.",Flag,F3,3694,,,2279,2422,,,,90,1
6578d483e1b823c1a61469a6,2sikjfvj13,Ex2A_Prolific,1,152,2024-02-28T20:34:31+00:00,3.0074918270111,6,Stim_B.csv,Item.csv,Item,B,female,,F4,,,101,JOL,User,1.25,"How likely are you to correctly recall the second item in the pair?|Type your response on a scale from 0-100 and then press Enter.",Flag,F4,2719,,,768,952,,,,90,1
6578d483e1b823c1a61469a6,2sikjfvj13,Ex2A_Prolific,1,153,2024-02-28T20:34:33+00:00,2.3762509822845,6,Stim_B.csv,Item.csv,Item,B,dress,,F5,,,102,JOL,User,1.25,"How likely are you to correctly recall the second item in the pair?|Type your response on a scale from 0-100 and then press Enter.",Flag,F5,2069,,,462,637,,,,90,1
6578d483e1b823c1a61469a6,2sikjfvj13,Ex2A_Prolific,1,154,2024-02-28T20:34:35+00:00,2.0393211841583,6,Stim_B.csv,Item.csv,Item,B,date,,F6,,,103,JOL,User,1.25,"How likely are you to correctly recall the second item in the pair?|Type your response on a scale from 0-100 and then press Enter.",Flag,F6,1739,,,381,507,,,,90,1
6578d483e1b823c1a61469a6,2sikjfvj13,Ex2A_Prolific,1,155,2024-02-28T20:34:44+00:00,8.4117770195007,6,Stim_B.csv,Item.csv,Item,B,beautiful,,F7,,,104,JOL,User,1.25,"How likely are you to correctly recall the second item in the pair?|Type your response on a scale from 0-100 and then press Enter.",Flag,F7,8087,,,6208,6360,,,,90,1
6578d483e1b823c1a61469a6,2sikjfvj13,Ex2A_Prolific,1,156,2024-02-28T20:34:48+00:00,4.0840599536896,6,Stim_B.csv,Item.csv,Item,B,daughter,,F8,,,105,JOL,User,1.25,"How likely are you to correctly recall the second item in the pair?|Type your response on a scale from 0-100 and then press Enter.",Flag,F8,3798,,,1359,1382,,,,90,1
6578d483e1b823c1a61469a6,2sikjfvj13,Ex2A_Prolific,1,157,2024-02-28T20:34:52+00:00,4.0650198459625,6,Stim_B.csv,Item.csv,Item,B,sister,,F9,,,106,JOL,User,1.25,"How likely are you to correctly recall the second item in the pair?|Type your response on a scale from 0-100 and then press Enter.",Flag,F9,3747,,,717,820,,,,90,1
6578d483e1b823c1a61469a6,2sikjfvj13,Ex2A_Prolific,1,158,2024-02-28T20:34:56+00:00,3.7248861789703,6,Stim_B.csv,Item.csv,Item,B,cute,,F10,,,107,JOL,User,1.25,"How likely are you to correctly recall the second item in the pair?|Type your response on a scale from 0-100 and then press Enter.",Flag,F10,3415,,,2024,2272,,,,90,1
6578d483e1b823c1a61469a6,2sikjfvj13,Ex2A_Prolific,1,159,2024-02-28T20:35:00+00:00,4.556275844574,6,Stim_B.csv,Item.csv,Item,B,niece,,F11,,,108,JOL,User,1.25,"How likely are you to correctly recall the second item in the pair?|Type your response on a scale from 0-100 and then press Enter.",Flag,F11,4237,,,415,541,,,,90,1
6578d483e1b823c1a61469a6,2sikjfvj13,Ex2A_Prolific,1,160,2024-02-28T20:35:06+00:00,6.1365330219269,6,Stim_B.csv,Item.csv,Item,B,young,,F12,,,109,JOL,User,1.25,"How likely are you to correctly recall the second item in the pair?|Type your response on a scale from 0-100 and then press Enter.",Flag,F12,5822,,,3614,3718,,,,90,1
6578d483e1b823c1a61469a6,2sikjfvj13,Ex2A_Prolific,1,161,2024-02-28T20:35:11+00:00,4.9243950843811,6,Stim_B.csv,Item.csv,Item,B,,,,,,0,Instruct,User,-,"You have completed this section. Please click next.",,Instruct166,4607,,,-1,-1,,,,,1
6578d483e1b823c1a61469a6,2sikjfvj13,Ex2A_Prolific,1,162,2024-02-28T20:35:42+00:00,30.361165046692,6,Stim_B.csv,Item.csv,Item,B,,,,,,0,FreeRecall,30,30,"Please type as many words as you can that begin with the letter ""C"". The computer will automatically advance to the next screen in 30 seconds.",,FILLER,30002,"cat collar cottage caggbage cheese cow called claire c",0,2093,29867,0,0,,,1
6578d483e1b823c1a61469a6,2sikjfvj13,Ex2A_Prolific,1,163,2024-02-28T20:35:48+00:00,6.7980079650879,6,Stim_B.csv,Item.csv,Item,B,,,,,,0,Instruct,User,4,"You have completed this section. Please click next.",,Instruct166,6475,,,-1,-1,,,,,1
6578d483e1b823c1a61469a6,2sikjfvj13,Ex2A_Prolific,1,164,2024-02-28T20:35:56+00:00,7.7291259765625,6,Stim_B.csv,Item.csv,Item,B,,,,,,0,Instruct,User,4,"You will now complete a memory test for the words you just studied. Please type as many words from the previous list as you can seperated by a comma. Spelling will not count against you and you can recall the words in any order. This test will be timed for one minute, and the computer will automatically advance once time is up. Click next when you are ready to begin.",,Instruct1666,7443,,,-1,-1,,,,,0.76
6578d483e1b823c1a61469a6,2sikjfvj13,Ex2A_Prolific,1,165,2024-02-28T20:36:56+00:00,60.303488016129,6,Stim_B.csv,Item.csv,Item,B,,,,,,0,FreeRecall,60,60,"Please type as many words as you can from the previous study list in any order. Please separate each word with a comma. Spelling will not count against you. This screen will automatically advance in one minute.",,RECALL_Test,60001,"boy,dolls,pretty,female,dress,date,beautifal,daughter,sister,cute,niece,young,",0,8984,53111,0,0,,,0.986
6578d483e1b823c1a61469a6,2sikjfvj13,Ex2A_Prolific,1,166,2024-02-28T20:37:11+00:00,14.407878875732,6,Stim_B.csv,Item.csv,Item,B,,,,,,0,Instruct,User,3,"You will now be presented with a new study list. Click next when you are ready to begin.",,NEXT_LIST,14119,,,-1,-1,,,,,1
6578d483e1b823c1a61469a6,2sikjfvj13,Ex2A_Prolific,1,167,2024-02-28T20:37:19+00:00,8.16206407547,6,Stim_B.csv,Item.csv,Item,B,white,,SS1,,,110,JOL,User,1.25,"How likely are you to correctly recall the second item in the pair?|Type your response on a scale from 0-100 and then press Enter.",Shirt,SS1,7876,,,6141,6229,,,,90,1
6578d483e1b823c1a61469a6,2sikjfvj13,Ex2A_Prolific,1,168,2024-02-28T20:37:22+00:00,2.5506238937378,6,Stim_B.csv,Item.csv,Item,B,gray,,SS2,,,111,JOL,User,1.25,"How likely are you to correctly recall the second item in the pair?|Type your response on a scale from 0-100 and then press Enter.",Shirt,SS2,2258,,,770,922,,,,90,1
6578d483e1b823c1a61469a6,2sikjfvj13,Ex2A_Prolific,1,169,2024-02-28T20:37:24+00:00,2.8523600101471,6,Stim_B.csv,Item.csv,Item,B,brown,,SS3,,,112,JOL,User,1.25,"How likely are you to correctly recall the second item in the pair?|Type your response on a scale from 0-100 and then press Enter.",Shirt,SS3,2541,,,717,869,,,,90,1
6578d483e1b823c1a61469a6,2sikjfvj13,Ex2A_Prolific,1,170,2024-02-28T20:37:27+00:00,2.2611830234528,6,Stim_B.csv,Item.csv,Item,B,coal,,SS4,,,113,JOL,User,1.25,"How likely are you to correctly recall the second item in the pair?|Type your response on a scale from 0-100 and then press Enter.",Shirt,SS4,1973,,,623,774,,,,90,1
6578d483e1b823c1a61469a6,2sikjfvj13,Ex2A_Prolific,1,171,2024-02-28T20:37:32+00:00,5.1344079971313,6,Stim_B.csv,Item.csv,Item,B,dark,,SS5,,,114,JOL,User,1.25,"How likely are you to correctly recall the second item in the pair?|Type your response on a scale from 0-100 and then press Enter.",Shirt,SS5,4816,,,385,560,,,,90,1
6578d483e1b823c1a61469a6,2sikjfvj13,Ex2A_Prolific,1,172,2024-02-28T20:37:34+00:00,2.5823450088501,6,Stim_B.csv,Item.csv,Item,B,color,,SS6,,,115,JOL,User,1.25,"How likely are you to correctly recall the second item in the pair?|Type your response on a scale from 0-100 and then press Enter.",Shirt,SS6,2251,,,509,692,,,,90,1
6578d483e1b823c1a61469a6,2sikjfvj13,Ex2A_Prolific,1,173,2024-02-28T20:37:43+00:00,8.1941950321198,6,Stim_B.csv,Item.csv,Item,B,funeral,,SS7,,,116,JOL,User,1.25,"How likely are you to correctly recall the second item in the pair?|Type your response on a scale from 0-100 and then press Enter.",Shirt,SS7,7892,,,5838,5965,,,,90,1
6578d483e1b823c1a61469a6,2sikjfvj13,Ex2A_Prolific,1,174,2024-02-28T20:37:46+00:00,3.264867067337,6,Stim_B.csv,Item.csv,Item,B,blue,,SS8,,,117,JOL,User,1.25,"How likely are you to correctly recall the second item in the pair?|Type your response on a scale from 0-100 and then press Enter.",Shirt,SS8,2929,,,979,1170,,,,90,1
6578d483e1b823c1a61469a6,2sikjfvj13,Ex2A_Prolific,1,175,2024-02-28T20:37:49+00:00,3.6627700328827,6,Stim_B.csv,Item.csv,Item,B,charred,,SS9,,,118,JOL,User,1.25,"How likely are you to correctly recall the second item in the pair?|Type your response on a scale from 0-100 and then press Enter.",Shirt,SS9,3374,,,1696,1863,,,,90,1
6578d483e1b823c1a61469a6,2sikjfvj13,Ex2A_Prolific,1,176,2024-02-28T20:37:52+00:00,2.9533829689026,6,Stim_B.csv,Item.csv,Item,B,ink,,SS10,,,119,JOL,User,1.25,"How likely are you to correctly recall the second item in the pair?|Type your response on a scale from 0-100 and then press Enter.",Shirt,SS10,2634,,,1379,1594,,,,90,1
6578d483e1b823c1a61469a6,2sikjfvj13,Ex2A_Prolific,1,177,2024-02-28T20:37:57+00:00,4.4906270503998,6,Stim_B.csv,Item.csv,Item,B,death,,SS11,,,120,JOL,User,1.25,"How likely are you to correctly recall the second item in the pair?|Type your response on a scale from 0-100 and then press Enter.",Shirt,SS11,4161,,,2867,3009,,,,90,1
6578d483e1b823c1a61469a6,2sikjfvj13,Ex2A_Prolific,1,178,2024-02-28T20:38:00+00:00,2.8051738739014,6,Stim_B.csv,Item.csv,Item,B,cat,,SS12,,,121,JOL,User,1.25,"How likely are you to correctly recall the second item in the pair?|Type your response on a scale from 0-100 and then press Enter.",Shirt,SS12,2497,,,1547,1665,,,,90,1
6578d483e1b823c1a61469a6,2sikjfvj13,Ex2A_Prolific,1,179,2024-02-28T20:38:03+00:00,3.5169520378113,6,Stim_B.csv,Item.csv,Item,B,,,,,,0,Instruct,User,-,"You have completed this section. Please click next.",,Instruct166,3207,,,-1,-1,,,,,1
6578d483e1b823c1a61469a6,2sikjfvj13,Ex2A_Prolific,1,180,2024-02-28T20:38:34+00:00,30.340382099152,6,Stim_B.csv,Item.csv,Item,B,,,,,,0,FreeRecall,30,30,"Please type as many words as you can that begin with the letter ""R"". The computer will automatically advance to the next screen in 30 seconds.",,FILLER,30003,"red rocket ",0,5628,28779,0,0,,,1
6578d483e1b823c1a61469a6,2sikjfvj13,Ex2A_Prolific,1,181,2024-02-28T20:38:39+00:00,5.2375118732452,6,Stim_B.csv,Item.csv,Item,B,,,,,,0,Instruct,User,4,"You have completed this section. Please click next.",,Instruct166,4908,,,-1,-1,,,,,1
6578d483e1b823c1a61469a6,2sikjfvj13,Ex2A_Prolific,1,182,2024-02-28T20:38:44+00:00,4.7765691280365,6,Stim_B.csv,Item.csv,Item,B,,,,,,0,Instruct,User,4,"You will now complete a memory test for the words you just studied. Please type as many words from the previous list as you can seperated by a comma. Spelling will not count against you and you can recall the words in any order. This test will be timed for one minute, and the computer will automatically advance once time is up. Click next when you are ready to begin.",,Instruct1666,4466,,,-1,-1,,,,,1
6578d483e1b823c1a61469a6,2sikjfvj13,Ex2A_Prolific,1,183,2024-02-28T20:39:44+00:00,60.349841833115,6,Stim_B.csv,Item.csv,Item,B,,,,,,0,FreeRecall,60,60,"Please type as many words as you can from the previous study list in any order. Please separate each word with a comma. Spelling will not count against you. This screen will automatically advance in one minute.",,RECALL_Test,60001,"gray brown cold dark color blue chard ink funeral ",0,5085,57628,0,0,,,1
6578d483e1b823c1a61469a6,2sikjfvj13,Ex2A_Prolific,1,184,2024-02-28T20:39:45+00:00,1.2159531116486,6,Stim_B.csv,Item.csv,Item,B,,,,,,0,Instruct,User,-,"You have completed this section. Please click next.",,Instruct7,899,,,-1,-1,,,,,1
6578d483e1b823c1a61469a6,2sikjfvj13,Ex2A_Prolific,1,185,2024-02-28T20:39:47+00:00,1.5379459857941,6,Stim_B.csv,Item.csv,Item,B,,,,,,0,Instruct,User,-,"The following screen will ask you a few questions abour your experience today. You must complete these questions to receive credit.",,Instruct8,1230,,,-1,-1,,,,,1
