Username,ID,ExperimentName,Session,Trial,Date,TimeDif,"Condition Number","Stimuli File","Order File","Condition Description","Condition Notes",Stimuli*Cue,Stimuli*Answer,Stimuli*Shuffle,"Stimuli*Stimuli Notes",Stimuli*Value,Procedure*Item,"Procedure*Trial Type","Procedure*Max Time","Procedure*Min Time",Procedure*Text,"Procedure*Procedure Notes",Procedure*Shuffle,Response*RT,Response*Response,Response*Accuracy,Response*RTfirst,Response*RTlast,Response*strictAcc,Response*lenientAcc,Response*focus,Response*JOL,Response*Focus
5ea039beec66bd000ada5ad2,wddkiowz65,Ex2A_Prolific,1,1,2024-02-27T21:39:06+00:00,6.6667940616608,6,Stim_B.csv,Item.csv,Item,B,,,,,,0,Instruct,-,5,"In this section, you will be presented with a series of words. Please study each word carefully. Your memory will be tested!",Initial_Instruct,Instruct1,6383,,,-1,-1,,,,,1
5ea039beec66bd000ada5ad2,wddkiowz65,Ex2A_Prolific,1,2,2024-02-27T21:39:19+00:00,12.764878034592,6,Stim_B.csv,Item.csv,Item,B,,,,,,0,Instruct,-,5,"As you study, you will be asked to rate your ability to remember each item on a later memory test using a 0-100 scale. For example, if you study the word DOG, a rating of 0 indicates that you would not remember DOG at test, while a rating of 100 indicates full certainty that you would remember the word DOG at test.",,Instruct13,12342,,,-1,-1,,,,,1
5ea039beec66bd000ada5ad2,wddkiowz65,Ex2A_Prolific,1,3,2024-02-27T21:39:30+00:00,10.832537889481,6,Stim_B.csv,Item.csv,Item,B,,,,,,0,Instruct,-,10,"When making your ratings, it is criticial that you use the full range of the scale. You will be disqualified for only giving ratings of 0 or 100!",,Instruct15,10420,,,-1,-1,,,,,1
5ea039beec66bd000ada5ad2,wddkiowz65,Ex2A_Prolific,1,4,2024-02-27T21:39:31+00:00,1.4974691867828,6,Stim_B.csv,Item.csv,Item,B,,,,,,0,Instruct,User,-,"You will now begin the study. Click next when you are ready to begin.",,Instruct16,1185,,,-1,-1,,,,,1
5ea039beec66bd000ada5ad2,wddkiowz65,Ex2A_Prolific,1,5,2024-02-27T21:39:40+00:00,9.3252508640289,6,Stim_B.csv,Item.csv,Item,B,aroma,,Win_1,,,2,JOL,User,1.25,"How likely are you to correctly recall the second item in the pair?|Type your response on a scale from 0-100 and then press Enter.",Window,Win_1,8891,,,5572,6072,,,,50,1
5ea039beec66bd000ada5ad2,wddkiowz65,Ex2A_Prolific,1,6,2024-02-27T21:39:46+00:00,5.5574059486389,6,Stim_B.csv,Item.csv,Item,B,scent,,Win_2,,,3,JOL,User,1.25,"How likely are you to correctly recall the second item in the pair?|Type your response on a scale from 0-100 and then press Enter.",Window,Win_2,5136,,,4137,4199,,,,60,1
5ea039beec66bd000ada5ad2,wddkiowz65,Ex2A_Prolific,1,7,2024-02-27T21:39:50+00:00,4.3767969608307,6,Stim_B.csv,Item.csv,Item,B,whiff,,Win_3,,,4,JOL,User,1.25,"How likely are you to correctly recall the second item in the pair?|Type your response on a scale from 0-100 and then press Enter.",Window,Win_3,3962,,,2888,2947,,,,40,1
5ea039beec66bd000ada5ad2,wddkiowz65,Ex2A_Prolific,1,8,2024-02-27T21:39:57+00:00,7.0501310825348,6,Stim_B.csv,Item.csv,Item,B,stench,,Win_4,,,5,JOL,User,1.25,"How likely are you to correctly recall the second item in the pair?|Type your response on a scale from 0-100 and then press Enter.",Window,Win_4,6648,,,3141,3184,,,,30,1
5ea039beec66bd000ada5ad2,wddkiowz65,Ex2A_Prolific,1,9,2024-02-27T21:40:00+00:00,2.5033240318298,6,Stim_B.csv,Item.csv,Item,B,reek,,Win_5,,,6,JOL,User,1.25,"How likely are you to correctly recall the second item in the pair?|Type your response on a scale from 0-100 and then press Enter.",Window,Win_5,2218,,,1830,1951,,,,50,1
5ea039beec66bd000ada5ad2,wddkiowz65,Ex2A_Prolific,1,10,2024-02-27T21:40:05+00:00,5.3030610084534,6,Stim_B.csv,Item.csv,Item,B,sniff,,Win_6,,,7,JOL,User,1.25,"How likely are you to correctly recall the second item in the pair?|Type your response on a scale from 0-100 and then press Enter.",Window,Win_6,4885,,,3183,3275,,,,60,1
5ea039beec66bd000ada5ad2,wddkiowz65,Ex2A_Prolific,1,11,2024-02-27T21:40:13+00:00,7.2987899780273,6,Stim_B.csv,Item.csv,Item,B,perfume,,Win_7,,,8,JOL,User,1.25,"How likely are you to correctly recall the second item in the pair?|Type your response on a scale from 0-100 and then press Enter.",Window,Win_7,6848,,,4258,4313,,,,30,1
5ea039beec66bd000ada5ad2,wddkiowz65,Ex2A_Prolific,1,12,2024-02-27T21:40:21+00:00,8.9515209197998,6,Stim_B.csv,Item.csv,Item,B,fragrance,,Win_8,,,9,JOL,User,1.25,"How likely are you to correctly recall the second item in the pair?|Type your response on a scale from 0-100 and then press Enter.",Window,Win_8,8525,,,6897,6943,,,,20,1
5ea039beec66bd000ada5ad2,wddkiowz65,Ex2A_Prolific,1,13,2024-02-27T21:40:26+00:00,4.1120431423187,6,Stim_B.csv,Item.csv,Item,B,nose,,Win_9,,,10,JOL,User,1.25,"How likely are you to correctly recall the second item in the pair?|Type your response on a scale from 0-100 and then press Enter.",Window,Win_9,3817,,,2752,2858,,,,20,1
5ea039beec66bd000ada5ad2,wddkiowz65,Ex2A_Prolific,1,14,2024-02-27T21:40:29+00:00,3.6240220069885,6,Stim_B.csv,Item.csv,Item,B,rose,,Win_10,,,11,JOL,User,1.25,"How likely are you to correctly recall the second item in the pair?|Type your response on a scale from 0-100 and then press Enter.",Window,Win_10,3332,,,2462,2532,,,,40,1
5ea039beec66bd000ada5ad2,wddkiowz65,Ex2A_Prolific,1,15,2024-02-27T21:40:35+00:00,5.9323220252991,6,Stim_B.csv,Item.csv,Item,B,salts,,Win_11,,,12,JOL,User,1.25,"How likely are you to correctly recall the second item in the pair?|Type your response on a scale from 0-100 and then press Enter.",Window,Win_11,5536,,,1603,4545,,,,40,1
5ea039beec66bd000ada5ad2,wddkiowz65,Ex2A_Prolific,1,16,2024-02-27T21:40:39+00:00,3.7600569725037,6,Stim_B.csv,Item.csv,Item,B,breathe,,Win_12,,,13,JOL,User,1.25,"How likely are you to correctly recall the second item in the pair?|Type your response on a scale from 0-100 and then press Enter.",Window,Win_12,3475,,,2541,2624,,,,70,1
5ea039beec66bd000ada5ad2,wddkiowz65,Ex2A_Prolific,1,17,2024-02-27T21:40:44+00:00,5.0223779678345,6,Stim_B.csv,Item.csv,Item,B,,,,,,0,Instruct,User,4,"You have completed this section. Please click next.",,Instruct166,4617,,,-1,-1,,,,,1
5ea039beec66bd000ada5ad2,wddkiowz65,Ex2A_Prolific,1,18,2024-02-27T21:41:14+00:00,30.433930873871,6,Stim_B.csv,Item.csv,Item,B,,,,,,0,FreeRecall,30,30,"Please type as many words as you can that begin with the letter ""S"". The computer will automatically advance to the next screen in 30 seconds.",,FILLER,30002,"start stop stay stage stagger strike slow slap slander stray",0,5564,29762,0,0,,,1
5ea039beec66bd000ada5ad2,wddkiowz65,Ex2A_Prolific,1,19,2024-02-27T21:41:20+00:00,5.4029901027679,6,Stim_B.csv,Item.csv,Item,B,,,,,,0,Instruct,User,4,"You have completed this section. Please click next.",,Instruct166,4988,,,-1,-1,,,,,1
5ea039beec66bd000ada5ad2,wddkiowz65,Ex2A_Prolific,1,20,2024-02-27T21:41:25+00:00,5.0682880878448,6,Stim_B.csv,Item.csv,Item,B,,,,,,0,Instruct,User,4,"You will now complete a memory test for the words you just studied. Please type as many words from the previous list as you can seperated by a comma. Spelling will not count against you and you can recall the words in any order. This test will be timed for one minute, and the computer will automatically advance once time is up. Click next when you are ready to begin.",,Instruct1666,4640,,,-1,-1,,,,,1
5ea039beec66bd000ada5ad2,wddkiowz65,Ex2A_Prolific,1,21,2024-02-27T21:42:25+00:00,60.409487009048,6,Stim_B.csv,Item.csv,Item,B,,,,,,0,FreeRecall,60,60,"Please type as many words as you can from the previous study list in any order. Please separate each word with a comma. Spelling will not count against you. This screen will automatically advance in one minute.",,RECALL_Test,60002,"breathe, aroma, scent, nose, perfume, fragrance, salts, rose, sniff, stench, whiff",0,5777,28497,0,0,,,1
5ea039beec66bd000ada5ad2,wddkiowz65,Ex2A_Prolific,1,22,2024-02-27T21:42:29+00:00,4.1467089653015,6,Stim_B.csv,Item.csv,Item,B,,,,,,0,Instruct,User,3,"You will now be presented with a new study list. Click next when you are ready to begin.",,NEXT_LIST,3849,,,-1,-1,,,,,1
5ea039beec66bd000ada5ad2,wddkiowz65,Ex2A_Prolific,1,23,2024-02-27T21:42:34+00:00,4.9817159175873,6,Stim_B.csv,Item.csv,Item,B,hard,,R1,,,14,JOL,User,1.25,"How likely are you to correctly recall the second item in the pair?|Type your response on a scale from 0-100 and then press Enter.",Rough,R1,4573,,,3357,4010,,,,50,1
5ea039beec66bd000ada5ad2,wddkiowz65,Ex2A_Prolific,1,24,2024-02-27T21:42:40+00:00,5.8661839962006,6,Stim_B.csv,Item.csv,Item,B,loud,,R2,,,15,JOL,User,1.25,"How likely are you to correctly recall the second item in the pair?|Type your response on a scale from 0-100 and then press Enter.",Rough,R2,5449,,,4358,4406,,,,40,1
5ea039beec66bd000ada5ad2,wddkiowz65,Ex2A_Prolific,1,25,2024-02-27T21:42:44+00:00,3.9691689014435,6,Stim_B.csv,Item.csv,Item,B,tender,,R3,,,16,JOL,User,1.25,"How likely are you to correctly recall the second item in the pair?|Type your response on a scale from 0-100 and then press Enter.",Rough,R3,3654,,,2734,2789,,,,60,1
5ea039beec66bd000ada5ad2,wddkiowz65,Ex2A_Prolific,1,26,2024-02-27T21:42:49+00:00,4.9413402080536,6,Stim_B.csv,Item.csv,Item,B,fluffy,,R4,,,17,JOL,User,1.25,"How likely are you to correctly recall the second item in the pair?|Type your response on a scale from 0-100 and then press Enter.",Rough,R4,4516,,,2364,2971,,,,70,1
5ea039beec66bd000ada5ad2,wddkiowz65,Ex2A_Prolific,1,27,2024-02-27T21:42:55+00:00,5.3994588851929,6,Stim_B.csv,Item.csv,Item,B,pillow,,R5,,,18,JOL,User,1.25,"How likely are you to correctly recall the second item in the pair?|Type your response on a scale from 0-100 and then press Enter.",Rough,R5,4978,,,2788,3720,,,,60,1
5ea039beec66bd000ada5ad2,wddkiowz65,Ex2A_Prolific,1,28,2024-02-27T21:42:59+00:00,4.1033480167389,6,Stim_B.csv,Item.csv,Item,B,downy,,R6,,,19,JOL,User,1.25,"How likely are you to correctly recall the second item in the pair?|Type your response on a scale from 0-100 and then press Enter.",Rough,R6,3794,,,2801,2860,,,,20,1
5ea039beec66bd000ada5ad2,wddkiowz65,Ex2A_Prolific,1,29,2024-02-27T21:43:03+00:00,4.4059700965881,6,Stim_B.csv,Item.csv,Item,B,plush,,R7,,,20,JOL,User,1.25,"How likely are you to correctly recall the second item in the pair?|Type your response on a scale from 0-100 and then press Enter.",Rough,R7,3969,,,2383,2449,,,,60,1
5ea039beec66bd000ada5ad2,wddkiowz65,Ex2A_Prolific,1,30,2024-02-27T21:43:06+00:00,3.4430170059204,6,Stim_B.csv,Item.csv,Item,B,cotton,,R8,,,21,JOL,User,1.25,"How likely are you to correctly recall the second item in the pair?|Type your response on a scale from 0-100 and then press Enter.",Rough,R8,3129,,,1967,2021,,,,70,1
5ea039beec66bd000ada5ad2,wddkiowz65,Ex2A_Prolific,1,31,2024-02-27T21:43:10+00:00,3.7592709064484,6,Stim_B.csv,Item.csv,Item,B,skin,,R9,,,22,JOL,User,1.25,"How likely are you to correctly recall the second item in the pair?|Type your response on a scale from 0-100 and then press Enter.",Rough,R9,3444,,,2291,2373,,,,40,1
5ea039beec66bd000ada5ad2,wddkiowz65,Ex2A_Prolific,1,32,2024-02-27T21:43:18+00:00,7.2987489700317,6,Stim_B.csv,Item.csv,Item,B,fur,,R10,,,23,JOL,User,1.25,"How likely are you to correctly recall the second item in the pair?|Type your response on a scale from 0-100 and then press Enter.",Rough,R10,6864,,,2813,5912,,,,60,1
5ea039beec66bd000ada5ad2,wddkiowz65,Ex2A_Prolific,1,33,2024-02-27T21:43:21+00:00,3.5386199951172,6,Stim_B.csv,Item.csv,Item,B,touch,,R11,,,24,JOL,User,1.25,"How likely are you to correctly recall the second item in the pair?|Type your response on a scale from 0-100 and then press Enter.",Rough,R11,3245,,,2379,2451,,,,40,1
5ea039beec66bd000ada5ad2,wddkiowz65,Ex2A_Prolific,1,34,2024-02-27T21:43:26+00:00,4.5917720794678,6,Stim_B.csv,Item.csv,Item,B,furry,,R12,,,25,JOL,User,1.25,"How likely are you to correctly recall the second item in the pair?|Type your response on a scale from 0-100 and then press Enter.",Rough,R12,4113,,,2893,3346,,,,60,1
5ea039beec66bd000ada5ad2,wddkiowz65,Ex2A_Prolific,1,35,2024-02-27T21:43:28+00:00,1.8217279911041,6,Stim_B.csv,Item.csv,Item,B,,,,,,0,Instruct,User,-,"You have completed this section. Please click next.",,Instruct166,1506,,,-1,-1,,,,,1
5ea039beec66bd000ada5ad2,wddkiowz65,Ex2A_Prolific,1,36,2024-02-27T21:43:58+00:00,30.426470994949,6,Stim_B.csv,Item.csv,Item,B,,,,,,0,FreeRecall,30,30,"Please type as many words as you can that begin with the letter ""W"". The computer will automatically advance to the next screen in 30 seconds.",,FILLER,30001,"wake watch waffle walk wander what where when why weep wheel wrench write ",0,3268,29232,0,0,,,1
5ea039beec66bd000ada5ad2,wddkiowz65,Ex2A_Prolific,1,37,2024-02-27T21:44:01+00:00,3.1743440628052,6,Stim_B.csv,Item.csv,Item,B,,,,,,0,Instruct,User,-,"You have completed this section. Please click next.",,Instruct166,2880,,,1035,1771,,,,,1
5ea039beec66bd000ada5ad2,wddkiowz65,Ex2A_Prolific,1,38,2024-02-27T21:44:06+00:00,4.9828639030457,6,Stim_B.csv,Item.csv,Item,B,,,,,,0,Instruct,User,4,"You will now complete a memory test for the words you just studied. Please type as many words from the previous list as you can seperated by a comma. Spelling will not count against you and you can recall the words in any order. This test will be timed for one minute, and the computer will automatically advance once time is up. Click next when you are ready to begin.",,Instruct1666,4575,,,-1,-1,,,,,1
5ea039beec66bd000ada5ad2,wddkiowz65,Ex2A_Prolific,1,39,2024-02-27T21:45:07+00:00,60.431569099426,6,Stim_B.csv,Item.csv,Item,B,,,,,,0,FreeRecall,60,60,"Please type as many words as you can from the previous study list in any order. Please separate each word with a comma. Spelling will not count against you. This screen will automatically advance in one minute.",,RECALL_Test,60001,"fur, furry, fluffy, pillow, plush, hard, loud, cotton, skin, touch, downy",0,3507,35490,0,0,,,1
5ea039beec66bd000ada5ad2,wddkiowz65,Ex2A_Prolific,1,40,2024-02-27T21:45:11+00:00,4.7339968681335,6,Stim_B.csv,Item.csv,Item,B,,,,,,0,Instruct,User,3,"You will now be presented with a new study list. Click next when you are ready to begin.",,NEXT_LIST,4301,,,-1,-1,,,,,1
5ea039beec66bd000ada5ad2,wddkiowz65,Ex2A_Prolific,1,41,2024-02-27T21:45:16+00:00,4.4426469802856,6,Stim_B.csv,Item.csv,Item,B,honey,,A1,,,26,JOL,User,1.25,"How likely are you to correctly recall the second item in the pair?|Type your response on a scale from 0-100 and then press Enter.",Anger,A1,4008,,,2827,2898,,,,60,1
5ea039beec66bd000ada5ad2,wddkiowz65,Ex2A_Prolific,1,42,2024-02-27T21:45:19+00:00,3.1701350212097,6,Stim_B.csv,Item.csv,Item,B,bitter,,A2,,,27,JOL,User,1.25,"How likely are you to correctly recall the second item in the pair?|Type your response on a scale from 0-100 and then press Enter.",Anger,A2,2856,,,2077,2646,,,,60,1
5ea039beec66bd000ada5ad2,wddkiowz65,Ex2A_Prolific,1,43,2024-02-27T21:45:25+00:00,6.0889389514923,6,Stim_B.csv,Item.csv,Item,B,sugar,,A3,,,28,JOL,User,1.25,"How likely are you to correctly recall the second item in the pair?|Type your response on a scale from 0-100 and then press Enter.",Anger,A3,5651,,,2750,4590,,,,80,1
5ea039beec66bd000ada5ad2,wddkiowz65,Ex2A_Prolific,1,44,2024-02-27T21:45:30+00:00,5.4256231784821,6,Stim_B.csv,Item.csv,Item,B,sour,,A4,,,29,JOL,User,1.25,"How likely are you to correctly recall the second item in the pair?|Type your response on a scale from 0-100 and then press Enter.",Anger,A4,4996,,,4030,4086,,,,60,1
5ea039beec66bd000ada5ad2,wddkiowz65,Ex2A_Prolific,1,45,2024-02-27T21:45:33+00:00,2.764093875885,6,Stim_B.csv,Item.csv,Item,B,candy,,A5,,,30,JOL,User,1.25,"How likely are you to correctly recall the second item in the pair?|Type your response on a scale from 0-100 and then press Enter.",Anger,A5,2467,,,1559,1618,,,,70,1
5ea039beec66bd000ada5ad2,wddkiowz65,Ex2A_Prolific,1,46,2024-02-27T21:45:37+00:00,3.7505631446838,6,Stim_B.csv,Item.csv,Item,B,tart,,A6,,,31,JOL,User,1.25,"How likely are you to correctly recall the second item in the pair?|Type your response on a scale from 0-100 and then press Enter.",Anger,A6,3449,,,2020,2336,,,,40,1
5ea039beec66bd000ada5ad2,wddkiowz65,Ex2A_Prolific,1,47,2024-02-27T21:45:40+00:00,2.9098708629608,6,Stim_B.csv,Item.csv,Item,B,chocolate,,A7,,,32,JOL,User,1.25,"How likely are you to correctly recall the second item in the pair?|Type your response on a scale from 0-100 and then press Enter.",Anger,A7,2610,,,1753,1799,,,,80,1
5ea039beec66bd000ada5ad2,wddkiowz65,Ex2A_Prolific,1,48,2024-02-27T21:45:44+00:00,4.0381879806519,6,Stim_B.csv,Item.csv,Item,B,nice,,A8,,,33,JOL,User,1.25,"How likely are you to correctly recall the second item in the pair?|Type your response on a scale from 0-100 and then press Enter.",Anger,A8,3739,,,2157,2215,,,,50,1
5ea039beec66bd000ada5ad2,wddkiowz65,Ex2A_Prolific,1,49,2024-02-27T21:45:46+00:00,2.5962040424347,6,Stim_B.csv,Item.csv,Item,B,taste,,A9,,,34,JOL,User,1.25,"How likely are you to correctly recall the second item in the pair?|Type your response on a scale from 0-100 and then press Enter.",Anger,A9,2302,,,1447,1506,,,,80,1
5ea039beec66bd000ada5ad2,wddkiowz65,Ex2A_Prolific,1,50,2024-02-27T21:45:49+00:00,2.7990710735321,6,Stim_B.csv,Item.csv,Item,B,cake,,A10,,,35,JOL,User,1.25,"How likely are you to correctly recall the second item in the pair?|Type your response on a scale from 0-100 and then press Enter.",Anger,A10,2446,,,1493,1542,,,,70,1
5ea039beec66bd000ada5ad2,wddkiowz65,Ex2A_Prolific,1,51,2024-02-27T21:45:53+00:00,3.7839078903198,6,Stim_B.csv,Item.csv,Item,B,good,,A11,,,36,JOL,User,1.25,"How likely are you to correctly recall the second item in the pair?|Type your response on a scale from 0-100 and then press Enter.",Anger,A11,3480,,,2747,2800,,,,50,1
5ea039beec66bd000ada5ad2,wddkiowz65,Ex2A_Prolific,1,52,2024-02-27T21:45:55+00:00,2.0697810649872,6,Stim_B.csv,Item.csv,Item,B,tooth,,A12,,,37,JOL,User,1.25,"How likely are you to correctly recall the second item in the pair?|Type your response on a scale from 0-100 and then press Enter.",Anger,A12,1773,,,1453,1514,,,,60,1
5ea039beec66bd000ada5ad2,wddkiowz65,Ex2A_Prolific,1,53,2024-02-27T21:45:57+00:00,1.5205190181732,6,Stim_B.csv,Item.csv,Item,B,,,,,,0,Instruct,User,-,"You have completed this section. Please click next.",,Instruct166,1235,,,-1,-1,,,,,1
5ea039beec66bd000ada5ad2,wddkiowz65,Ex2A_Prolific,1,54,2024-02-27T21:46:27+00:00,30.424955844879,6,Stim_B.csv,Item.csv,Item,B,,,,,,0,FreeRecall,30,30,"Please type as many words as you can that begin with the letter ""M"". The computer will automatically advance to the next screen in 30 seconds.",,FILLER,30002,"make match mope meet meek male mail might mauve ",0,1465,27913,0,0,,,1
5ea039beec66bd000ada5ad2,wddkiowz65,Ex2A_Prolific,1,55,2024-02-27T21:46:31+00:00,3.9832050800323,6,Stim_B.csv,Item.csv,Item,B,,,,,,0,Instruct,User,-,"You have completed this section. Please click next.",,Instruct166,3677,,,-1,-1,,,,,1
5ea039beec66bd000ada5ad2,wddkiowz65,Ex2A_Prolific,1,56,2024-02-27T21:46:36+00:00,4.9507429599762,6,Stim_B.csv,Item.csv,Item,B,,,,,,0,Instruct,User,4,"You will now complete a memory test for the words you just studied. Please type as many words from the previous list as you can seperated by a comma. Spelling will not count against you and you can recall the words in any order. This test will be timed for one minute, and the computer will automatically advance once time is up. Click next when you are ready to begin.",,Instruct1666,4512,,,-1,-1,,,,,1
5ea039beec66bd000ada5ad2,wddkiowz65,Ex2A_Prolific,1,57,2024-02-27T21:47:36+00:00,60.447999954224,6,Stim_B.csv,Item.csv,Item,B,,,,,,0,FreeRecall,60,60,"Please type as many words as you can from the previous study list in any order. Please separate each word with a comma. Spelling will not count against you. This screen will automatically advance in one minute.",,RECALL_Test,60002,"honey, sugar, cake, chocolate, taste, sour, bitter, nice, good",0,2346,13714,0,0,,,1
5ea039beec66bd000ada5ad2,wddkiowz65,Ex2A_Prolific,1,58,2024-02-27T21:47:40+00:00,3.8015811443329,6,Stim_B.csv,Item.csv,Item,B,,,,,,0,Instruct,User,3,"You will now be presented with a new study list. Click next when you are ready to begin.",,NEXT_LIST,3511,,,-1,-1,,,,,1
5ea039beec66bd000ada5ad2,wddkiowz65,Ex2A_Prolific,1,59,2024-02-27T21:47:43+00:00,2.6556549072266,6,Stim_B.csv,Item.csv,Item,B,table,,T1,,,38,JOL,User,1.25,"How likely are you to correctly recall the second item in the pair?|Type your response on a scale from 0-100 and then press Enter.",Trash,T1,2356,,,2022,2109,,,,50,1
5ea039beec66bd000ada5ad2,wddkiowz65,Ex2A_Prolific,1,60,2024-02-27T21:47:45+00:00,2.150199174881,6,Stim_B.csv,Item.csv,Item,B,swivel,,T2,,,39,JOL,User,1.25,"How likely are you to correctly recall the second item in the pair?|Type your response on a scale from 0-100 and then press Enter.",Trash,T2,1837,,,1426,1493,,,,40,1
5ea039beec66bd000ada5ad2,wddkiowz65,Ex2A_Prolific,1,61,2024-02-27T21:47:51+00:00,5.7223038673401,6,Stim_B.csv,Item.csv,Item,B,rocking,,T3,,,40,JOL,User,1.25,"How likely are you to correctly recall the second item in the pair?|Type your response on a scale from 0-100 and then press Enter.",Trash,T3,5299,,,4806,4924,,,,60,1
5ea039beec66bd000ada5ad2,wddkiowz65,Ex2A_Prolific,1,62,2024-02-27T21:47:55+00:00,4.6002299785614,6,Stim_B.csv,Item.csv,Item,B,recliner,,T4,,,41,JOL,User,1.25,"How likely are you to correctly recall the second item in the pair?|Type your response on a scale from 0-100 and then press Enter.",Trash,T4,4161,,,3467,3521,,,,60,1
5ea039beec66bd000ada5ad2,wddkiowz65,Ex2A_Prolific,1,63,2024-02-27T21:47:58+00:00,2.184632062912,6,Stim_B.csv,Item.csv,Item,B,seat,,T5,,,42,JOL,User,1.25,"How likely are you to correctly recall the second item in the pair?|Type your response on a scale from 0-100 and then press Enter.",Trash,T5,1866,,,1429,1504,,,,60,1
5ea039beec66bd000ada5ad2,wddkiowz65,Ex2A_Prolific,1,64,2024-02-27T21:48:03+00:00,5.3042070865631,6,Stim_B.csv,Item.csv,Item,B,stool,,T6,,,43,JOL,User,1.25,"How likely are you to correctly recall the second item in the pair?|Type your response on a scale from 0-100 and then press Enter.",Trash,T6,4868,,,2181,4001,,,,70,1
5ea039beec66bd000ada5ad2,wddkiowz65,Ex2A_Prolific,1,65,2024-02-27T21:48:13+00:00,9.7104709148407,6,Stim_B.csv,Item.csv,Item,B,desk,,T7,,,44,JOL,User,1.25,"How likely are you to correctly recall the second item in the pair?|Type your response on a scale from 0-100 and then press Enter.",Trash,T7,9281,,,7873,9024,,,,60,1
5ea039beec66bd000ada5ad2,wddkiowz65,Ex2A_Prolific,1,66,2024-02-27T21:48:15+00:00,2.0166230201721,6,Stim_B.csv,Item.csv,Item,B,couch,,T8,,,45,JOL,User,1.25,"How likely are you to correctly recall the second item in the pair?|Type your response on a scale from 0-100 and then press Enter.",Trash,T8,1717,,,1243,1392,,,,60,1
5ea039beec66bd000ada5ad2,wddkiowz65,Ex2A_Prolific,1,67,2024-02-27T21:48:18+00:00,3.8469069004059,6,Stim_B.csv,Item.csv,Item,B,sit,,T9,,,46,JOL,User,1.25,"How likely are you to correctly recall the second item in the pair?|Type your response on a scale from 0-100 and then press Enter.",Trash,T9,3550,,,1965,3065,,,,80,1
5ea039beec66bd000ada5ad2,wddkiowz65,Ex2A_Prolific,1,68,2024-02-27T21:48:21+00:00,3.0734241008759,6,Stim_B.csv,Item.csv,Item,B,sofa,,T10,,,47,JOL,User,1.25,"How likely are you to correctly recall the second item in the pair?|Type your response on a scale from 0-100 and then press Enter.",Trash,T10,2785,,,1316,2373,,,,70,1
5ea039beec66bd000ada5ad2,wddkiowz65,Ex2A_Prolific,1,69,2024-02-27T21:48:24+00:00,2.3272750377655,6,Stim_B.csv,Item.csv,Item,B,bench,,T11,,,48,JOL,User,1.25,"How likely are you to correctly recall the second item in the pair?|Type your response on a scale from 0-100 and then press Enter.",Trash,T11,2031,,,1245,1715,,,,50,1
5ea039beec66bd000ada5ad2,wddkiowz65,Ex2A_Prolific,1,70,2024-02-27T21:48:28+00:00,3.8729310035706,6,Stim_B.csv,Item.csv,Item,B,sitting,,T12,,,49,JOL,User,1.25,"How likely are you to correctly recall the second item in the pair?|Type your response on a scale from 0-100 and then press Enter.",Trash,T12,3579,,,2848,3274,,,,70,1
5ea039beec66bd000ada5ad2,wddkiowz65,Ex2A_Prolific,1,71,2024-02-27T21:48:33+00:00,4.8605649471283,6,Stim_B.csv,Item.csv,Item,B,,,,,,0,Instruct,User,4,"You have completed this section. Please click next.",,Instruct166,4439,,,640,641,,,,,1
5ea039beec66bd000ada5ad2,wddkiowz65,Ex2A_Prolific,1,72,2024-02-27T21:49:03+00:00,30.435955047607,6,Stim_B.csv,Item.csv,Item,B,,,,,,0,FreeRecall,30,30,"Please type as many words as you can that begin with the letter ""M"". The computer will automatically advance to the next screen in 30 seconds.",,FILLER,30002,"mire meet make misty meek male mail most majority many much mope m",0,1560,29258,0,0,,,1
5ea039beec66bd000ada5ad2,wddkiowz65,Ex2A_Prolific,1,73,2024-02-27T21:49:08+00:00,4.7338039875031,6,Stim_B.csv,Item.csv,Item,B,,,,,,0,Instruct,User,4,"You have completed this section. Please click next.",,Instruct166,4329,,,826,1075,,,,,1
5ea039beec66bd000ada5ad2,wddkiowz65,Ex2A_Prolific,1,74,2024-02-27T21:49:13+00:00,4.9045479297638,6,Stim_B.csv,Item.csv,Item,B,,,,,,0,Instruct,User,4,"You will now complete a memory test for the words you just studied. Please type as many words from the previous list as you can seperated by a comma. Spelling will not count against you and you can recall the words in any order. This test will be timed for one minute, and the computer will automatically advance once time is up. Click next when you are ready to begin.",,Instruct1666,4498,,,-1,-1,,,,,1
5ea039beec66bd000ada5ad2,wddkiowz65,Ex2A_Prolific,1,75,2024-02-27T21:50:13+00:00,60.427426099777,6,Stim_B.csv,Item.csv,Item,B,,,,,,0,FreeRecall,60,60,"Please type as many words as you can from the previous study list in any order. Please separate each word with a comma. Spelling will not count against you. This screen will automatically advance in one minute.",,RECALL_Test,60002,"sit, sitting, sofa, couch, table, desk, recliner, swivel, rocking, bench, stool, seat",0,464,27732,0,0,,,0.945
5ea039beec66bd000ada5ad2,wddkiowz65,Ex2A_Prolific,1,76,2024-02-27T21:50:20+00:00,7.0031249523163,6,Stim_B.csv,Item.csv,Item,B,,,,,,0,Instruct,User,3,"You will now be presented with a new study list. Click next when you are ready to begin.",,NEXT_LIST,6564,,,-1,-1,,,,,0.926
5ea039beec66bd000ada5ad2,wddkiowz65,Ex2A_Prolific,1,77,2024-02-27T21:50:29+00:00,8.5700788497925,6,Stim_B.csv,Item.csv,Item,B,climber,,D1,,,50,JOL,User,1.25,"How likely are you to correctly recall the second item in the pair?|Type your response on a scale from 0-100 and then press Enter.",Doctor,D1,8138,,,7436,7491,,,,50,0.906
5ea039beec66bd000ada5ad2,wddkiowz65,Ex2A_Prolific,1,78,2024-02-27T21:50:31+00:00,2.6860082149506,6,Stim_B.csv,Item.csv,Item,B,hill,,D2,,,51,JOL,User,1.25,"How likely are you to correctly recall the second item in the pair?|Type your response on a scale from 0-100 and then press Enter.",Doctor,D2,2391,,,2109,2184,,,,70,1
5ea039beec66bd000ada5ad2,wddkiowz65,Ex2A_Prolific,1,79,2024-02-27T21:50:34+00:00,2.7144658565521,6,Stim_B.csv,Item.csv,Item,B,climb,,D3,,,52,JOL,User,1.25,"How likely are you to correctly recall the second item in the pair?|Type your response on a scale from 0-100 and then press Enter.",Doctor,D3,2427,,,2129,2208,,,,70,1
5ea039beec66bd000ada5ad2,wddkiowz65,Ex2A_Prolific,1,80,2024-02-27T21:50:37+00:00,3.3456890583038,6,Stim_B.csv,Item.csv,Item,B,molehill,,D4,,,53,JOL,User,1.25,"How likely are you to correctly recall the second item in the pair?|Type your response on a scale from 0-100 and then press Enter.",Doctor,D4,3051,,,2739,2814,,,,20,1
5ea039beec66bd000ada5ad2,wddkiowz65,Ex2A_Prolific,1,81,2024-02-27T21:50:40+00:00,2.8601999282837,6,Stim_B.csv,Item.csv,Item,B,peak,,D5,,,54,JOL,User,1.25,"How likely are you to correctly recall the second item in the pair?|Type your response on a scale from 0-100 and then press Enter.",Doctor,D5,2564,,,2263,2342,,,,70,1
5ea039beec66bd000ada5ad2,wddkiowz65,Ex2A_Prolific,1,82,2024-02-27T21:50:43+00:00,2.4746870994568,6,Stim_B.csv,Item.csv,Item,B,valley,,D6,,,55,JOL,User,1.25,"How likely are you to correctly recall the second item in the pair?|Type your response on a scale from 0-100 and then press Enter.",Doctor,D6,2181,,,1908,1978,,,,40,1
5ea039beec66bd000ada5ad2,wddkiowz65,Ex2A_Prolific,1,83,2024-02-27T21:50:45+00:00,2.0159819126129,6,Stim_B.csv,Item.csv,Item,B,summit,,D7,,,56,JOL,User,1.25,"How likely are you to correctly recall the second item in the pair?|Type your response on a scale from 0-100 and then press Enter.",Doctor,D7,1722,,,1389,1482,,,,70,1
5ea039beec66bd000ada5ad2,wddkiowz65,Ex2A_Prolific,1,84,2024-02-27T21:50:47+00:00,2.0528509616852,6,Stim_B.csv,Item.csv,Item,B,steep,,D8,,,57,JOL,User,1.25,"How likely are you to correctly recall the second item in the pair?|Type your response on a scale from 0-100 and then press Enter.",Doctor,D8,1758,,,1463,1561,,,,60,1
5ea039beec66bd000ada5ad2,wddkiowz65,Ex2A_Prolific,1,85,2024-02-27T21:50:49+00:00,2.1599111557007,6,Stim_B.csv,Item.csv,Item,B,ski,,D9,,,58,JOL,User,1.25,"How likely are you to correctly recall the second item in the pair?|Type your response on a scale from 0-100 and then press Enter.",Doctor,D9,1863,,,1591,1665,,,,60,1
5ea039beec66bd000ada5ad2,wddkiowz65,Ex2A_Prolific,1,86,2024-02-27T21:50:51+00:00,2.1128799915314,6,Stim_B.csv,Item.csv,Item,B,bike,,D10,,,59,JOL,User,1.25,"How likely are you to correctly recall the second item in the pair?|Type your response on a scale from 0-100 and then press Enter.",Doctor,D10,1819,,,1585,1655,,,,40,1
5ea039beec66bd000ada5ad2,wddkiowz65,Ex2A_Prolific,1,87,2024-02-27T21:50:53+00:00,1.8664848804474,6,Stim_B.csv,Item.csv,Item,B,goat,,D11,,,60,JOL,User,1.25,"How likely are you to correctly recall the second item in the pair?|Type your response on a scale from 0-100 and then press Enter.",Doctor,D11,1574,,,1326,1389,,,,30,1
5ea039beec66bd000ada5ad2,wddkiowz65,Ex2A_Prolific,1,88,2024-02-27T21:50:56+00:00,2.8730709552765,6,Stim_B.csv,Item.csv,Item,B,glacier,,D12,,,61,JOL,User,1.25,"How likely are you to correctly recall the second item in the pair?|Type your response on a scale from 0-100 and then press Enter.",Doctor,D12,2580,,,2317,2364,,,,60,1
5ea039beec66bd000ada5ad2,wddkiowz65,Ex2A_Prolific,1,89,2024-02-27T21:51:01+00:00,5.5034701824188,6,Stim_B.csv,Item.csv,Item,B,,,,,,0,Instruct,User,4,"You have completed this section. Please click next.",,Instruct166,5098,,,4703,4703,,,,,1
5ea039beec66bd000ada5ad2,wddkiowz65,Ex2A_Prolific,1,90,2024-02-27T21:51:32+00:00,30.448115825653,6,Stim_B.csv,Item.csv,Item,B,,,,,,0,FreeRecall,30,30,"Please type as many words as you can that begin with the letter ""N"". The computer will automatically advance to the next screen in 30 seconds.",,FILLER,30003,"now nest neat nice novelty new notation note narrate n",0,1758,29864,0,0,,,1
5ea039beec66bd000ada5ad2,wddkiowz65,Ex2A_Prolific,1,91,2024-02-27T21:51:33+00:00,0.98506617546082,6,Stim_B.csv,Item.csv,Item,B,,,,,,0,Instruct,User,-,"You have completed this section. Please click next.",,Instruct166,679,,,-1,-1,,,,,1
5ea039beec66bd000ada5ad2,wddkiowz65,Ex2A_Prolific,1,92,2024-02-27T21:51:38+00:00,5.326287984848,6,Stim_B.csv,Item.csv,Item,B,,,,,,0,Instruct,User,4,"You will now complete a memory test for the words you just studied. Please type as many words from the previous list as you can seperated by a comma. Spelling will not count against you and you can recall the words in any order. This test will be timed for one minute, and the computer will automatically advance once time is up. Click next when you are ready to begin.",,Instruct1666,4797,,,-1,-1,,,,,1
5ea039beec66bd000ada5ad2,wddkiowz65,Ex2A_Prolific,1,93,2024-02-27T21:52:39+00:00,60.669013977051,6,Stim_B.csv,Item.csv,Item,B,,,,,,0,FreeRecall,60,60,"Please type as many words as you can from the previous study list in any order. Please separate each word with a comma. Spelling will not count against you. This screen will automatically advance in one minute.",,RECALL_Test,60003,"ski, glacier, valley, peak, summit, hill, climber, climb, goat, molehill, bike",0,2834,50696,0,0,,,1
5ea039beec66bd000ada5ad2,wddkiowz65,Ex2A_Prolific,1,94,2024-02-27T21:53:03+00:00,23.87801194191,6,Stim_B.csv,Item.csv,Item,B,,,,,,0,Instruct,User,3,"You will now be presented with a new study list. Click next when you are ready to begin.",,NEXT_LIST,23438,,,-1,-1,,,,,1
5ea039beec66bd000ada5ad2,wddkiowz65,Ex2A_Prolific,1,95,2024-02-27T21:53:22+00:00,19.636403083801,6,Stim_B.csv,Item.csv,Item,B,band,,S1,,,62,JOL,User,1.25,"How likely are you to correctly recall the second item in the pair?|Type your response on a scale from 0-100 and then press Enter.",Slow,S1,19192,,,18336,18996,,,,50,1
5ea039beec66bd000ada5ad2,wddkiowz65,Ex2A_Prolific,1,96,2024-02-27T21:53:25+00:00,2.4769439697266,6,Stim_B.csv,Item.csv,Item,B,concert,,S2,,,63,JOL,User,1.25,"How likely are you to correctly recall the second item in the pair?|Type your response on a scale from 0-100 and then press Enter.",Slow,S2,2019,,,1161,1838,,,,70,1
5ea039beec66bd000ada5ad2,wddkiowz65,Ex2A_Prolific,1,97,2024-02-27T21:53:26+00:00,1.6756858825684,6,Stim_B.csv,Item.csv,Item,B,jazz,,S3,,,64,JOL,User,1.25,"How likely are you to correctly recall the second item in the pair?|Type your response on a scale from 0-100 and then press Enter.",Slow,S3,1285,,,997,1074,,,,60,1
5ea039beec66bd000ada5ad2,wddkiowz65,Ex2A_Prolific,1,98,2024-02-27T21:53:29+00:00,2.1556670665741,6,Stim_B.csv,Item.csv,Item,B,symphony,,S4,,,65,JOL,User,1.25,"How likely are you to correctly recall the second item in the pair?|Type your response on a scale from 0-100 and then press Enter.",Slow,S4,1836,,,1090,1178,,,,50,1
5ea039beec66bd000ada5ad2,wddkiowz65,Ex2A_Prolific,1,99,2024-02-27T21:53:30+00:00,1.687980890274,6,Stim_B.csv,Item.csv,Item,B,orchestra,,S5,,,66,JOL,User,1.25,"How likely are you to correctly recall the second item in the pair?|Type your response on a scale from 0-100 and then press Enter.",Slow,S5,1378,,,1141,1196,,,,60,1
5ea039beec66bd000ada5ad2,wddkiowz65,Ex2A_Prolific,1,100,2024-02-27T21:53:32+00:00,2.0221331119537,6,Stim_B.csv,Item.csv,Item,B,rhythm,,S6,,,67,JOL,User,1.25,"How likely are you to correctly recall the second item in the pair?|Type your response on a scale from 0-100 and then press Enter.",Slow,S6,1710,,,1410,1492,,,,40,1
5ea039beec66bd000ada5ad2,wddkiowz65,Ex2A_Prolific,1,101,2024-02-27T21:53:34+00:00,1.9600520133972,6,Stim_B.csv,Item.csv,Item,B,radio,,S7,,,68,JOL,User,1.25,"How likely are you to correctly recall the second item in the pair?|Type your response on a scale from 0-100 and then press Enter.",Slow,S7,1483,,,1206,1285,,,,50,1
5ea039beec66bd000ada5ad2,wddkiowz65,Ex2A_Prolific,1,102,2024-02-27T21:53:39+00:00,4.4923219680786,6,Stim_B.csv,Item.csv,Item,B,melody,,S8,,,69,JOL,User,1.25,"How likely are you to correctly recall the second item in the pair?|Type your response on a scale from 0-100 and then press Enter.",Slow,S8,4039,,,1439,3787,,,,60,1
5ea039beec66bd000ada5ad2,wddkiowz65,Ex2A_Prolific,1,103,2024-02-27T21:53:40+00:00,1.7665441036224,6,Stim_B.csv,Item.csv,Item,B,piano,,S9,,,70,JOL,User,1.25,"How likely are you to correctly recall the second item in the pair?|Type your response on a scale from 0-100 and then press Enter.",Slow,S9,1458,,,1207,1263,,,,50,1
5ea039beec66bd000ada5ad2,wddkiowz65,Ex2A_Prolific,1,104,2024-02-27T21:53:43+00:00,2.1386959552765,6,Stim_B.csv,Item.csv,Item,B,sound,,S10,,,71,JOL,User,1.25,"How likely are you to correctly recall the second item in the pair?|Type your response on a scale from 0-100 and then press Enter.",Slow,S10,1827,,,1544,1643,,,,70,1
5ea039beec66bd000ada5ad2,wddkiowz65,Ex2A_Prolific,1,105,2024-02-27T21:53:45+00:00,2.4692130088806,6,Stim_B.csv,Item.csv,Item,B,instrument,,S11,,,72,JOL,User,1.25,"How likely are you to correctly recall the second item in the pair?|Type your response on a scale from 0-100 and then press Enter.",Slow,S11,2147,,,1339,1398,,,,60,1
5ea039beec66bd000ada5ad2,wddkiowz65,Ex2A_Prolific,1,106,2024-02-27T21:53:47+00:00,1.6864469051361,6,Stim_B.csv,Item.csv,Item,B,note,,S12,,,73,JOL,User,1.25,"How likely are you to correctly recall the second item in the pair?|Type your response on a scale from 0-100 and then press Enter.",Slow,S12,1377,,,1154,1197,,,,50,1
5ea039beec66bd000ada5ad2,wddkiowz65,Ex2A_Prolific,1,107,2024-02-27T21:53:48+00:00,0.91132712364197,6,Stim_B.csv,Item.csv,Item,B,,,,,,0,Instruct,User,-,"You have completed this section. Please click next.",,Instruct166,595,,,-1,-1,,,,,1
5ea039beec66bd000ada5ad2,wddkiowz65,Ex2A_Prolific,1,108,2024-02-27T21:54:18+00:00,30.444581031799,6,Stim_B.csv,Item.csv,Item,B,,,,,,0,FreeRecall,30,30,"Please type as many words as you can that begin with the letter ""R"". The computer will automatically advance to the next screen in 30 seconds.",,FILLER,30001,"right rote rotary risk rinse rap rail regard reach real reality render ",0,2192,28792,0,0,,,1
5ea039beec66bd000ada5ad2,wddkiowz65,Ex2A_Prolific,1,109,2024-02-27T21:54:19+00:00,1.1920499801636,6,Stim_B.csv,Item.csv,Item,B,,,,,,0,Instruct,User,-,"You have completed this section. Please click next.",,Instruct166,885,,,465,465,,,,,1
5ea039beec66bd000ada5ad2,wddkiowz65,Ex2A_Prolific,1,110,2024-02-27T21:54:24+00:00,5.029590845108,6,Stim_B.csv,Item.csv,Item,B,,,,,,0,Instruct,User,4,"You will now complete a memory test for the words you just studied. Please type as many words from the previous list as you can seperated by a comma. Spelling will not count against you and you can recall the words in any order. This test will be timed for one minute, and the computer will automatically advance once time is up. Click next when you are ready to begin.",,Instruct1666,4609,,,-1,-1,,,,,1
5ea039beec66bd000ada5ad2,wddkiowz65,Ex2A_Prolific,1,111,2024-02-27T21:55:28+00:00,63.745613098145,6,Stim_B.csv,Item.csv,Item,B,,,,,,0,FreeRecall,60,60,"Please type as many words as you can from the previous study list in any order. Please separate each word with a comma. Spelling will not count against you. This screen will automatically advance in one minute.",,RECALL_Test,61339,"concert, band, sound, melody, symphony, orchestra, jazz, piano, note, rhythm",0,497,16811,0,0,,,0.945
5ea039beec66bd000ada5ad2,wddkiowz65,Ex2A_Prolific,1,112,2024-02-27T21:56:13+00:00,45.034837007523,6,Stim_B.csv,Item.csv,Item,B,,,,,,0,Instruct,User,3,"You will now be presented with a new study list. Click next when you are ready to begin.",,NEXT_LIST,44619,,,-1,-1,,,,,0.724
5ea039beec66bd000ada5ad2,wddkiowz65,Ex2A_Prolific,1,113,2024-02-27T21:56:16+00:00,2.8440399169922,6,Stim_B.csv,Item.csv,Item,B,foam,,RR1,,,74,JOL,User,1.25,"How likely are you to correctly recall the second item in the pair?|Type your response on a scale from 0-100 and then press Enter.",River,RR1,2536,,,2261,2303,,,,40,1
5ea039beec66bd000ada5ad2,wddkiowz65,Ex2A_Prolific,1,114,2024-02-27T21:56:19+00:00,3.5108439922333,6,Stim_B.csv,Item.csv,Item,B,latex,,RR2,,,75,JOL,User,1.25,"How likely are you to correctly recall the second item in the pair?|Type your response on a scale from 0-100 and then press Enter.",River,RR2,3217,,,2925,2963,,,,40,1
5ea039beec66bd000ada5ad2,wddkiowz65,Ex2A_Prolific,1,115,2024-02-27T21:56:22+00:00,2.6235160827637,6,Stim_B.csv,Item.csv,Item,B,galoshes,,RR3,,,76,JOL,User,1.25,"How likely are you to correctly recall the second item in the pair?|Type your response on a scale from 0-100 and then press Enter.",River,RR3,2327,,,2014,2158,,,,20,1
5ea039beec66bd000ada5ad2,wddkiowz65,Ex2A_Prolific,1,116,2024-02-27T21:56:25+00:00,3.365138053894,6,Stim_B.csv,Item.csv,Item,B,tire,,RR4,,,77,JOL,User,1.25,"How likely are you to correctly recall the second item in the pair?|Type your response on a scale from 0-100 and then press Enter.",River,RR4,3077,,,1929,2004,,,,40,1
5ea039beec66bd000ada5ad2,wddkiowz65,Ex2A_Prolific,1,117,2024-02-27T21:56:29+00:00,3.4655559062958,6,Stim_B.csv,Item.csv,Item,B,flexible,,RR5,,,78,JOL,User,1.25,"How likely are you to correctly recall the second item in the pair?|Type your response on a scale from 0-100 and then press Enter.",River,RR5,3169,,,1230,2750,,,,50,1
5ea039beec66bd000ada5ad2,wddkiowz65,Ex2A_Prolific,1,118,2024-02-27T21:56:31+00:00,2.1806600093842,6,Stim_B.csv,Item.csv,Item,B,elastic,,RR6,,,79,JOL,User,1.25,"How likely are you to correctly recall the second item in the pair?|Type your response on a scale from 0-100 and then press Enter.",River,RR6,1881,,,1551,1637,,,,70,1
5ea039beec66bd000ada5ad2,wddkiowz65,Ex2A_Prolific,1,119,2024-02-27T21:56:34+00:00,3.3209691047668,6,Stim_B.csv,Item.csv,Item,B,gloves,,RR7,,,80,JOL,User,1.25,"How likely are you to correctly recall the second item in the pair?|Type your response on a scale from 0-100 and then press Enter.",River,RR7,3029,,,1304,2744,,,,40,1
5ea039beec66bd000ada5ad2,wddkiowz65,Ex2A_Prolific,1,120,2024-02-27T21:56:37+00:00,2.8113977909088,6,Stim_B.csv,Item.csv,Item,B,eraser,,RR8,,,81,JOL,User,1.25,"How likely are you to correctly recall the second item in the pair?|Type your response on a scale from 0-100 and then press Enter.",River,RR8,2521,,,1876,1952,,,,60,1
5ea039beec66bd000ada5ad2,wddkiowz65,Ex2A_Prolific,1,121,2024-02-27T21:56:39+00:00,2.1027581691742,6,Stim_B.csv,Item.csv,Item,B,bounce,,RR9,,,82,JOL,User,1.25,"How likely are you to correctly recall the second item in the pair?|Type your response on a scale from 0-100 and then press Enter.",River,RR9,1810,,,1574,1633,,,,60,1
5ea039beec66bd000ada5ad2,wddkiowz65,Ex2A_Prolific,1,122,2024-02-27T21:56:41+00:00,1.9764249324799,6,Stim_B.csv,Item.csv,Item,B,ball,,RR10,,,83,JOL,User,1.25,"How likely are you to correctly recall the second item in the pair?|Type your response on a scale from 0-100 and then press Enter.",River,RR10,1641,,,1354,1437,,,,70,1
5ea039beec66bd000ada5ad2,wddkiowz65,Ex2A_Prolific,1,123,2024-02-27T21:56:43+00:00,2.0376069545746,6,Stim_B.csv,Item.csv,Item,B,soles,,RR11,,,84,JOL,User,1.25,"How likely are you to correctly recall the second item in the pair?|Type your response on a scale from 0-100 and then press Enter.",River,RR11,1750,,,1474,1536,,,,40,1
5ea039beec66bd000ada5ad2,wddkiowz65,Ex2A_Prolific,1,124,2024-02-27T21:56:45+00:00,2.0462789535522,6,Stim_B.csv,Item.csv,Item,B,springy,,RR12,,,85,JOL,User,1.25,"How likely are you to correctly recall the second item in the pair?|Type your response on a scale from 0-100 and then press Enter.",River,RR12,1750,,,1445,1488,,,,60,1
5ea039beec66bd000ada5ad2,wddkiowz65,Ex2A_Prolific,1,125,2024-02-27T21:56:47+00:00,1.1253280639648,6,Stim_B.csv,Item.csv,Item,B,,,,,,0,Instruct,User,-,"You have completed this section. Please click next.",,Instruct166,830,,,-1,-1,,,,,1
5ea039beec66bd000ada5ad2,wddkiowz65,Ex2A_Prolific,1,126,2024-02-27T21:57:17+00:00,30.486582040787,6,Stim_B.csv,Item.csv,Item,B,,,,,,0,FreeRecall,30,30,"Please type as many words as you can that begin with the letter ""L"". The computer will automatically advance to the next screen in 30 seconds.",,FILLER,30002,"life late last leer linger lost lopsided lazy loud likely ",0,491,29631,0,0,,,1
5ea039beec66bd000ada5ad2,wddkiowz65,Ex2A_Prolific,1,127,2024-02-27T21:57:19+00:00,1.9873108863831,6,Stim_B.csv,Item.csv,Item,B,,,,,,0,Instruct,User,-,"You have completed this section. Please click next.",,Instruct166,1693,,,-1,-1,,,,,1
5ea039beec66bd000ada5ad2,wddkiowz65,Ex2A_Prolific,1,128,2024-02-27T21:57:24+00:00,4.8623161315918,6,Stim_B.csv,Item.csv,Item,B,,,,,,0,Instruct,User,4,"You will now complete a memory test for the words you just studied. Please type as many words from the previous list as you can seperated by a comma. Spelling will not count against you and you can recall the words in any order. This test will be timed for one minute, and the computer will automatically advance once time is up. Click next when you are ready to begin.",,Instruct1666,4463,,,-1,-1,,,,,1
5ea039beec66bd000ada5ad2,wddkiowz65,Ex2A_Prolific,1,129,2024-02-27T21:58:24+00:00,60.418114900589,6,Stim_B.csv,Item.csv,Item,B,,,,,,0,FreeRecall,60,60,"Please type as many words as you can from the previous study list in any order. Please separate each word with a comma. Spelling will not count against you. This screen will automatically advance in one minute.",,RECALL_Test,60003,"elastic, bouncy, ball, springy, eraser, latex",0,4866,59944,0,0,,,1
5ea039beec66bd000ada5ad2,wddkiowz65,Ex2A_Prolific,1,130,2024-02-27T21:58:44+00:00,19.274157047272,6,Stim_B.csv,Item.csv,Item,B,,,,,,0,Instruct,User,3,"You will now be presented with a new study list. Click next when you are ready to begin.",,NEXT_LIST,18859,,,-1,-1,,,,,1
5ea039beec66bd000ada5ad2,wddkiowz65,Ex2A_Prolific,1,131,2024-02-27T21:58:54+00:00,10.305748939514,6,Stim_B.csv,Item.csv,Item,B,toe,,B1,,,86,JOL,User,1.25,"How likely are you to correctly recall the second item in the pair?|Type your response on a scale from 0-100 and then press Enter.",Bread,B1,9874,,,9509,9597,,,,50,1
5ea039beec66bd000ada5ad2,wddkiowz65,Ex2A_Prolific,1,132,2024-02-27T21:58:58+00:00,4.0996630191803,6,Stim_B.csv,Item.csv,Item,B,inch,,B2,,,87,JOL,User,1.25,"How likely are you to correctly recall the second item in the pair?|Type your response on a scale from 0-100 and then press Enter.",Bread,B2,3783,,,3051,3214,,,,60,1
5ea039beec66bd000ada5ad2,wddkiowz65,Ex2A_Prolific,1,133,2024-02-27T21:59:01+00:00,2.7528550624847,6,Stim_B.csv,Item.csv,Item,B,ankle,,B3,,,88,JOL,User,1.25,"How likely are you to correctly recall the second item in the pair?|Type your response on a scale from 0-100 and then press Enter.",Bread,B3,2433,,,2164,2258,,,,70,1
5ea039beec66bd000ada5ad2,wddkiowz65,Ex2A_Prolific,1,134,2024-02-27T21:59:02+00:00,1.6660580635071,6,Stim_B.csv,Item.csv,Item,B,shoe,,B4,,,89,JOL,User,1.25,"How likely are you to correctly recall the second item in the pair?|Type your response on a scale from 0-100 and then press Enter.",Bread,B4,1350,,,1004,1123,,,,60,1
5ea039beec66bd000ada5ad2,wddkiowz65,Ex2A_Prolific,1,135,2024-02-27T21:59:05+00:00,2.8106019496918,6,Stim_B.csv,Item.csv,Item,B,sandals,,B5,,,90,JOL,User,1.25,"How likely are you to correctly recall the second item in the pair?|Type your response on a scale from 0-100 and then press Enter.",Bread,B5,2494,,,1472,2292,,,,70,1
5ea039beec66bd000ada5ad2,wddkiowz65,Ex2A_Prolific,1,136,2024-02-27T21:59:07+00:00,2.0829899311066,6,Stim_B.csv,Item.csv,Item,B,sock,,B6,,,91,JOL,User,1.25,"How likely are you to correctly recall the second item in the pair?|Type your response on a scale from 0-100 and then press Enter.",Bread,B6,1764,,,1029,1095,,,,60,1
5ea039beec66bd000ada5ad2,wddkiowz65,Ex2A_Prolific,1,137,2024-02-27T21:59:11+00:00,3.3142819404602,6,Stim_B.csv,Item.csv,Item,B,hand,,B7,,,92,JOL,User,1.25,"How likely are you to correctly recall the second item in the pair?|Type your response on a scale from 0-100 and then press Enter.",Bread,B7,2999,,,2730,2778,,,,50,1
5ea039beec66bd000ada5ad2,wddkiowz65,Ex2A_Prolific,1,138,2024-02-27T21:59:12+00:00,1.7988300323486,6,Stim_B.csv,Item.csv,Item,B,boot,,B8,,,93,JOL,User,1.25,"How likely are you to correctly recall the second item in the pair?|Type your response on a scale from 0-100 and then press Enter.",Bread,B8,1481,,,1127,1215,,,,70,1
5ea039beec66bd000ada5ad2,wddkiowz65,Ex2A_Prolific,1,139,2024-02-27T21:59:14+00:00,1.6820161342621,6,Stim_B.csv,Item.csv,Item,B,yard,,B9,,,94,JOL,User,1.25,"How likely are you to correctly recall the second item in the pair?|Type your response on a scale from 0-100 and then press Enter.",Bread,B9,1367,,,1109,1184,,,,60,1
5ea039beec66bd000ada5ad2,wddkiowz65,Ex2A_Prolific,1,140,2024-02-27T21:59:18+00:00,3.4513669013977,6,Stim_B.csv,Item.csv,Item,B,kick,,B10,,,95,JOL,User,1.25,"How likely are you to correctly recall the second item in the pair?|Type your response on a scale from 0-100 and then press Enter.",Bread,B10,3122,,,2853,2911,,,,40,1
5ea039beec66bd000ada5ad2,wddkiowz65,Ex2A_Prolific,1,141,2024-02-27T21:59:20+00:00,2.4074800014496,6,Stim_B.csv,Item.csv,Item,B,knee,,B11,,,96,JOL,User,1.25,"How likely are you to correctly recall the second item in the pair?|Type your response on a scale from 0-100 and then press Enter.",Bread,B11,2092,,,1786,1862,,,,50,1
5ea039beec66bd000ada5ad2,wddkiowz65,Ex2A_Prolific,1,142,2024-02-27T21:59:22+00:00,2.2470829486847,6,Stim_B.csv,Item.csv,Item,B,walk,,B12,,,97,JOL,User,1.25,"How likely are you to correctly recall the second item in the pair?|Type your response on a scale from 0-100 and then press Enter.",Bread,B12,1935,,,1557,1648,,,,70,1
5ea039beec66bd000ada5ad2,wddkiowz65,Ex2A_Prolific,1,143,2024-02-27T21:59:28+00:00,6.0390501022339,6,Stim_B.csv,Item.csv,Item,B,,,,,,0,Instruct,User,4,"You have completed this section. Please click next.",,Instruct166,5599,,,-1,-1,,,,,1
5ea039beec66bd000ada5ad2,wddkiowz65,Ex2A_Prolific,1,144,2024-02-27T21:59:59+00:00,30.440953016281,6,Stim_B.csv,Item.csv,Item,B,,,,,,0,FreeRecall,30,30,"Please type as many words as you can that begin with the letter ""T"". The computer will automatically advance to the next screen in 30 seconds.",,FILLER,30001,"together today total totally tired treat trigger trench tripe tread trance trap t",0,5349,29990,0,0,,,1
5ea039beec66bd000ada5ad2,wddkiowz65,Ex2A_Prolific,1,145,2024-02-27T22:00:04+00:00,4.9728169441223,6,Stim_B.csv,Item.csv,Item,B,,,,,,0,Instruct,User,4,"You have completed this section. Please click next.",,Instruct166,4530,,,-1,-1,,,,,1
5ea039beec66bd000ada5ad2,wddkiowz65,Ex2A_Prolific,1,146,2024-02-27T22:00:09+00:00,5.1557750701904,6,Stim_B.csv,Item.csv,Item,B,,,,,,0,Instruct,User,4,"You will now complete a memory test for the words you just studied. Please type as many words from the previous list as you can seperated by a comma. Spelling will not count against you and you can recall the words in any order. This test will be timed for one minute, and the computer will automatically advance once time is up. Click next when you are ready to begin.",,Instruct1666,4717,,,-1,-1,,,,,1
5ea039beec66bd000ada5ad2,wddkiowz65,Ex2A_Prolific,1,147,2024-02-27T22:01:11+00:00,62.147637844086,6,Stim_B.csv,Item.csv,Item,B,,,,,,0,FreeRecall,60,60,"Please type as many words as you can from the previous study list in any order. Please separate each word with a comma. Spelling will not count against you. This screen will automatically advance in one minute.",,RECALL_Test,61702,"toe, hand, knee, kick, walk, inch, yard, sandal, boot, shoes, sock",0,736,31910,0,0,,,0.949
5ea039beec66bd000ada5ad2,wddkiowz65,Ex2A_Prolific,1,148,2024-02-27T22:01:15+00:00,4.3835000991821,6,Stim_B.csv,Item.csv,Item,B,,,,,,0,Instruct,User,3,"You will now be presented with a new study list. Click next when you are ready to begin.",,NEXT_LIST,3974,,,-1,-1,,,,,0.727
5ea039beec66bd000ada5ad2,wddkiowz65,Ex2A_Prolific,1,149,2024-02-27T22:01:18+00:00,2.6216239929199,6,Stim_B.csv,Item.csv,Item,B,boy,,F1,,,98,JOL,User,1.25,"How likely are you to correctly recall the second item in the pair?|Type your response on a scale from 0-100 and then press Enter.",Flag,F1,2322,,,2085,2149,,,,60,1
5ea039beec66bd000ada5ad2,wddkiowz65,Ex2A_Prolific,1,150,2024-02-27T22:01:21+00:00,2.9613299369812,6,Stim_B.csv,Item.csv,Item,B,dolls,,F2,,,99,JOL,User,1.25,"How likely are you to correctly recall the second item in the pair?|Type your response on a scale from 0-100 and then press Enter.",Flag,F2,2664,,,948,1001,,,,50,1
5ea039beec66bd000ada5ad2,wddkiowz65,Ex2A_Prolific,1,151,2024-02-27T22:01:23+00:00,1.6852941513062,6,Stim_B.csv,Item.csv,Item,B,pretty,,F3,,,100,JOL,User,1.25,"How likely are you to correctly recall the second item in the pair?|Type your response on a scale from 0-100 and then press Enter.",Flag,F3,1390,,,1088,1167,,,,60,1
5ea039beec66bd000ada5ad2,wddkiowz65,Ex2A_Prolific,1,152,2024-02-27T22:01:26+00:00,3.289559841156,6,Stim_B.csv,Item.csv,Item,B,female,,F4,,,101,JOL,User,1.25,"How likely are you to correctly recall the second item in the pair?|Type your response on a scale from 0-100 and then press Enter.",Flag,F4,2987,,,961,1020,,,,70,1
5ea039beec66bd000ada5ad2,wddkiowz65,Ex2A_Prolific,1,153,2024-02-27T22:01:28+00:00,2.5137131214142,6,Stim_B.csv,Item.csv,Item,B,dress,,F5,,,102,JOL,User,1.25,"How likely are you to correctly recall the second item in the pair?|Type your response on a scale from 0-100 and then press Enter.",Flag,F5,2214,,,1924,1970,,,,60,1
5ea039beec66bd000ada5ad2,wddkiowz65,Ex2A_Prolific,1,154,2024-02-27T22:01:31+00:00,2.3770799636841,6,Stim_B.csv,Item.csv,Item,B,date,,F6,,,103,JOL,User,1.25,"How likely are you to correctly recall the second item in the pair?|Type your response on a scale from 0-100 and then press Enter.",Flag,F6,2081,,,1769,1847,,,,40,1
5ea039beec66bd000ada5ad2,wddkiowz65,Ex2A_Prolific,1,155,2024-02-27T22:01:33+00:00,2.2953159809113,6,Stim_B.csv,Item.csv,Item,B,beautiful,,F7,,,104,JOL,User,1.25,"How likely are you to correctly recall the second item in the pair?|Type your response on a scale from 0-100 and then press Enter.",Flag,F7,1998,,,1259,1780,,,,70,1
5ea039beec66bd000ada5ad2,wddkiowz65,Ex2A_Prolific,1,156,2024-02-27T22:01:37+00:00,4.2336010932922,6,Stim_B.csv,Item.csv,Item,B,daughter,,F8,,,105,JOL,User,1.25,"How likely are you to correctly recall the second item in the pair?|Type your response on a scale from 0-100 and then press Enter.",Flag,F8,3754,,,917,961,,,,60,1
5ea039beec66bd000ada5ad2,wddkiowz65,Ex2A_Prolific,1,157,2024-02-27T22:01:39+00:00,1.6726608276367,6,Stim_B.csv,Item.csv,Item,B,sister,,F9,,,106,JOL,User,1.25,"How likely are you to correctly recall the second item in the pair?|Type your response on a scale from 0-100 and then press Enter.",Flag,F9,1383,,,1108,1178,,,,60,1
5ea039beec66bd000ada5ad2,wddkiowz65,Ex2A_Prolific,1,158,2024-02-27T22:01:43+00:00,3.5533380508423,6,Stim_B.csv,Item.csv,Item,B,cute,,F10,,,107,JOL,User,1.25,"How likely are you to correctly recall the second item in the pair?|Type your response on a scale from 0-100 and then press Enter.",Flag,F10,3207,,,1123,3015,,,,70,1
5ea039beec66bd000ada5ad2,wddkiowz65,Ex2A_Prolific,1,159,2024-02-27T22:01:44+00:00,1.7858779430389,6,Stim_B.csv,Item.csv,Item,B,niece,,F11,,,108,JOL,User,1.25,"How likely are you to correctly recall the second item in the pair?|Type your response on a scale from 0-100 and then press Enter.",Flag,F11,1459,,,1133,1214,,,,60,1
5ea039beec66bd000ada5ad2,wddkiowz65,Ex2A_Prolific,1,160,2024-02-27T22:01:48+00:00,3.3639571666718,6,Stim_B.csv,Item.csv,Item,B,young,,F12,,,109,JOL,User,1.25,"How likely are you to correctly recall the second item in the pair?|Type your response on a scale from 0-100 and then press Enter.",Flag,F12,3074,,,2754,2841,,,,60,1
5ea039beec66bd000ada5ad2,wddkiowz65,Ex2A_Prolific,1,161,2024-02-27T22:01:53+00:00,4.8509199619293,6,Stim_B.csv,Item.csv,Item,B,,,,,,0,Instruct,User,4,"You have completed this section. Please click next.",,Instruct166,4429,,,-1,-1,,,,,1
5ea039beec66bd000ada5ad2,wddkiowz65,Ex2A_Prolific,1,162,2024-02-27T22:02:23+00:00,30.453191041946,6,Stim_B.csv,Item.csv,Item,B,,,,,,0,FreeRecall,30,30,"Please type as many words as you can that begin with the letter ""C"". The computer will automatically advance to the next screen in 30 seconds.",,FILLER,30002,"capture creep cost cause create craft cope clear crate cover ",0,1671,28593,0,0,,,1
5ea039beec66bd000ada5ad2,wddkiowz65,Ex2A_Prolific,1,163,2024-02-27T22:02:25+00:00,2.1999709606171,6,Stim_B.csv,Item.csv,Item,B,,,,,,0,Instruct,User,-,"You have completed this section. Please click next.",,Instruct166,1905,,,-1,-1,,,,,1
5ea039beec66bd000ada5ad2,wddkiowz65,Ex2A_Prolific,1,164,2024-02-27T22:02:30+00:00,5.3137450218201,6,Stim_B.csv,Item.csv,Item,B,,,,,,0,Instruct,User,4,"You will now complete a memory test for the words you just studied. Please type as many words from the previous list as you can seperated by a comma. Spelling will not count against you and you can recall the words in any order. This test will be timed for one minute, and the computer will automatically advance once time is up. Click next when you are ready to begin.",,Instruct1666,4892,,,-1,-1,,,,,1
5ea039beec66bd000ada5ad2,wddkiowz65,Ex2A_Prolific,1,165,2024-02-27T22:03:34+00:00,63.245573997498,6,Stim_B.csv,Item.csv,Item,B,,,,,,0,FreeRecall,60,60,"Please type as many words as you can from the previous study list in any order. Please separate each word with a comma. Spelling will not count against you. This screen will automatically advance in one minute.",,RECALL_Test,62789,"boy, female, daughter, sister, niece, cute, young, pretty, beautiful, dolls",0,2297,21261,0,0,,,0.986
5ea039beec66bd000ada5ad2,wddkiowz65,Ex2A_Prolific,1,166,2024-02-27T22:04:19+00:00,45.485947847366,6,Stim_B.csv,Item.csv,Item,B,,,,,,0,Instruct,User,3,"You will now be presented with a new study list. Click next when you are ready to begin.",,NEXT_LIST,45081,,,-1,-1,,,,,0.444
5ea039beec66bd000ada5ad2,wddkiowz65,Ex2A_Prolific,1,167,2024-02-27T22:04:23+00:00,3.3431901931763,6,Stim_B.csv,Item.csv,Item,B,white,,SS1,,,110,JOL,User,1.25,"How likely are you to correctly recall the second item in the pair?|Type your response on a scale from 0-100 and then press Enter.",Shirt,SS1,3044,,,2624,2673,,,,50,1
5ea039beec66bd000ada5ad2,wddkiowz65,Ex2A_Prolific,1,168,2024-02-27T22:04:28+00:00,5.3842649459839,6,Stim_B.csv,Item.csv,Item,B,gray,,SS2,,,111,JOL,User,1.25,"How likely are you to correctly recall the second item in the pair?|Type your response on a scale from 0-100 and then press Enter.",Shirt,SS2,4967,,,1419,4517,,,,70,1
5ea039beec66bd000ada5ad2,wddkiowz65,Ex2A_Prolific,1,169,2024-02-27T22:04:31+00:00,2.5927820205688,6,Stim_B.csv,Item.csv,Item,B,brown,,SS3,,,112,JOL,User,1.25,"How likely are you to correctly recall the second item in the pair?|Type your response on a scale from 0-100 and then press Enter.",Shirt,SS3,2273,,,1989,2081,,,,70,1
5ea039beec66bd000ada5ad2,wddkiowz65,Ex2A_Prolific,1,170,2024-02-27T22:04:33+00:00,2.3987519741058,6,Stim_B.csv,Item.csv,Item,B,coal,,SS4,,,113,JOL,User,1.25,"How likely are you to correctly recall the second item in the pair?|Type your response on a scale from 0-100 and then press Enter.",Shirt,SS4,2079,,,1843,1916,,,,60,1
5ea039beec66bd000ada5ad2,wddkiowz65,Ex2A_Prolific,1,171,2024-02-27T22:04:35+00:00,1.6664490699768,6,Stim_B.csv,Item.csv,Item,B,dark,,SS5,,,114,JOL,User,1.25,"How likely are you to correctly recall the second item in the pair?|Type your response on a scale from 0-100 and then press Enter.",Shirt,SS5,1344,,,1074,1134,,,,70,1
5ea039beec66bd000ada5ad2,wddkiowz65,Ex2A_Prolific,1,172,2024-02-27T22:04:37+00:00,2.1362969875336,6,Stim_B.csv,Item.csv,Item,B,color,,SS6,,,115,JOL,User,1.25,"How likely are you to correctly recall the second item in the pair?|Type your response on a scale from 0-100 and then press Enter.",Shirt,SS6,1810,,,1488,1549,,,,60,1
5ea039beec66bd000ada5ad2,wddkiowz65,Ex2A_Prolific,1,173,2024-02-27T22:04:41+00:00,3.8569049835205,6,Stim_B.csv,Item.csv,Item,B,funeral,,SS7,,,116,JOL,User,1.25,"How likely are you to correctly recall the second item in the pair?|Type your response on a scale from 0-100 and then press Enter.",Shirt,SS7,3533,,,3279,3324,,,,40,1
5ea039beec66bd000ada5ad2,wddkiowz65,Ex2A_Prolific,1,174,2024-02-27T22:04:43+00:00,2.85213804245,6,Stim_B.csv,Item.csv,Item,B,blue,,SS8,,,117,JOL,User,1.25,"How likely are you to correctly recall the second item in the pair?|Type your response on a scale from 0-100 and then press Enter.",Shirt,SS8,2536,,,2050,2100,,,,70,1
5ea039beec66bd000ada5ad2,wddkiowz65,Ex2A_Prolific,1,175,2024-02-27T22:04:48+00:00,4.9530808925629,6,Stim_B.csv,Item.csv,Item,B,charred,,SS9,,,118,JOL,User,1.25,"How likely are you to correctly recall the second item in the pair?|Type your response on a scale from 0-100 and then press Enter.",Shirt,SS9,4521,,,1145,4331,,,,40,1
5ea039beec66bd000ada5ad2,wddkiowz65,Ex2A_Prolific,1,176,2024-02-27T22:04:51+00:00,2.1756711006165,6,Stim_B.csv,Item.csv,Item,B,ink,,SS10,,,119,JOL,User,1.25,"How likely are you to correctly recall the second item in the pair?|Type your response on a scale from 0-100 and then press Enter.",Shirt,SS10,1873,,,1585,1672,,,,50,1
5ea039beec66bd000ada5ad2,wddkiowz65,Ex2A_Prolific,1,177,2024-02-27T22:04:53+00:00,2.5050818920135,6,Stim_B.csv,Item.csv,Item,B,death,,SS11,,,120,JOL,User,1.25,"How likely are you to correctly recall the second item in the pair?|Type your response on a scale from 0-100 and then press Enter.",Shirt,SS11,2194,,,1896,1954,,,,50,1
5ea039beec66bd000ada5ad2,wddkiowz65,Ex2A_Prolific,1,178,2024-02-27T22:04:56+00:00,2.4960029125214,6,Stim_B.csv,Item.csv,Item,B,cat,,SS12,,,121,JOL,User,1.25,"How likely are you to correctly recall the second item in the pair?|Type your response on a scale from 0-100 and then press Enter.",Shirt,SS12,2199,,,1916,1989,,,,30,1
5ea039beec66bd000ada5ad2,wddkiowz65,Ex2A_Prolific,1,179,2024-02-27T22:05:04+00:00,8.7218890190125,6,Stim_B.csv,Item.csv,Item,B,,,,,,0,Instruct,User,4,"You have completed this section. Please click next.",,Instruct166,8314,,,-1,-1,,,,,1
5ea039beec66bd000ada5ad2,wddkiowz65,Ex2A_Prolific,1,180,2024-02-27T22:05:35+00:00,30.430474042892,6,Stim_B.csv,Item.csv,Item,B,,,,,,0,FreeRecall,30,30,"Please type as many words as you can that begin with the letter ""K"". The computer will automatically advance to the next screen in 30 seconds.",,FILLER,30003,"karate knight knife kraken kill know kn",0,3166,29957,0,0,,,1
5ea039beec66bd000ada5ad2,wddkiowz65,Ex2A_Prolific,1,181,2024-02-27T22:05:40+00:00,4.8895030021667,6,Stim_B.csv,Item.csv,Item,B,,,,,,0,Instruct,User,4,"You have completed this section. Please click next.",,Instruct166,4461,,,-1,-1,,,,,1
5ea039beec66bd000ada5ad2,wddkiowz65,Ex2A_Prolific,1,182,2024-02-27T22:05:44+00:00,4.5556709766388,6,Stim_B.csv,Item.csv,Item,B,,,,,,0,Instruct,User,4,"You will now complete a memory test for the words you just studied. Please type as many words from the previous list as you can seperated by a comma. Spelling will not count against you and you can recall the words in any order. This test will be timed for one minute, and the computer will automatically advance once time is up. Click next when you are ready to begin.",,Instruct1666,4140,,,-1,-1,,,,,1
5ea039beec66bd000ada5ad2,wddkiowz65,Ex2A_Prolific,1,183,2024-02-27T22:06:45+00:00,60.453274011612,6,Stim_B.csv,Item.csv,Item,B,,,,,,0,FreeRecall,60,60,"Please type as many words as you can from the previous study list in any order. Please separate each word with a comma. Spelling will not count against you. This screen will automatically advance in one minute.",,RECALL_Test,60002,"charred, cat, coal, ink, black, brown, blue, white, death, funeral, colour",0,369,55479,0,0,,,1
5ea039beec66bd000ada5ad2,wddkiowz65,Ex2A_Prolific,1,184,2024-02-27T22:06:47+00:00,2.658910036087,6,Stim_B.csv,Item.csv,Item,B,,,,,,0,Instruct,User,-,"You have completed this section. Please click next.",,Instruct7,2339,,,-1,-1,,,,,1
5ea039beec66bd000ada5ad2,wddkiowz65,Ex2A_Prolific,1,185,2024-02-27T22:06:49+00:00,2.1062729358673,6,Stim_B.csv,Item.csv,Item,B,,,,,,0,Instruct,User,-,"The following screen will ask you a few questions abour your experience today. You must complete these questions to receive credit.",,Instruct8,1778,,,-1,-1,,,,,1
