Username,ID,ExperimentName,Session,Trial,Date,TimeDif,"Condition Number","Stimuli File","Order File","Condition Description","Condition Notes",Stimuli*Cue,Stimuli*Answer,Stimuli*Shuffle,"Stimuli*Stimuli Notes",Stimuli*Value,Procedure*Item,"Procedure*Trial Type","Procedure*Max Time","Procedure*Min Time",Procedure*Text,"Procedure*Procedure Notes",Procedure*Shuffle,Response*RT,Response*Response,Response*Accuracy,Response*RTfirst,Response*RTlast,Response*strictAcc,Response*lenientAcc,Response*focus,Response*JOL,Response*Focus
60fdcc57b7f29548ba9cf241,s0tkcif8rr,Ex2A_Prolific,1,1,2024-02-29T01:46:20+00:00,7.8919961452484,6,Stim_B.csv,Item.csv,Item,B,,,,,,0,Instruct,-,5,"In this section, you will be presented with a series of words. Please study each word carefully. Your memory will be tested!",Initial_Instruct,Instruct1,7437,,,-1,-1,,,,,1
60fdcc57b7f29548ba9cf241,s0tkcif8rr,Ex2A_Prolific,1,2,2024-02-29T01:46:32+00:00,11.564997911453,6,Stim_B.csv,Item.csv,Item,B,,,,,,0,Instruct,-,5,"As you study, you will be asked to rate your ability to remember each item on a later memory test using a 0-100 scale. For example, if you study the word DOG, a rating of 0 indicates that you would not remember DOG at test, while a rating of 100 indicates full certainty that you would remember the word DOG at test.",,Instruct13,10960,,,-1,-1,,,,,1
60fdcc57b7f29548ba9cf241,s0tkcif8rr,Ex2A_Prolific,1,3,2024-02-29T01:46:59+00:00,27.898293018341,6,Stim_B.csv,Item.csv,Item,B,,,,,,0,Instruct,-,10,"When making your ratings, it is criticial that you use the full range of the scale. You will be disqualified for only giving ratings of 0 or 100!",,Instruct15,26638,,,-1,-1,,,,,1
60fdcc57b7f29548ba9cf241,s0tkcif8rr,Ex2A_Prolific,1,4,2024-02-29T01:47:02+00:00,2.5501160621643,6,Stim_B.csv,Item.csv,Item,B,,,,,,0,Instruct,User,-,"You will now begin the study. Click next when you are ready to begin.",,Instruct16,2109,,,-1,-1,,,,,1
60fdcc57b7f29548ba9cf241,s0tkcif8rr,Ex2A_Prolific,1,5,2024-02-29T01:47:16+00:00,14.214333057404,6,Stim_B.csv,Item.csv,Item,B,aroma,,Win_1,,,2,JOL,User,1.25,"How likely are you to correctly recall the second item in the pair?|Type your response on a scale from 0-100 and then press Enter.",Window,Win_1,13722,,,12764,12978,,,,80,1
60fdcc57b7f29548ba9cf241,s0tkcif8rr,Ex2A_Prolific,1,6,2024-02-29T01:47:22+00:00,5.7283539772034,6,Stim_B.csv,Item.csv,Item,B,scent,,Win_2,,,3,JOL,User,1.25,"How likely are you to correctly recall the second item in the pair?|Type your response on a scale from 0-100 and then press Enter.",Window,Win_2,5197,,,4376,4490,,,,90,1
60fdcc57b7f29548ba9cf241,s0tkcif8rr,Ex2A_Prolific,1,7,2024-02-29T01:47:30+00:00,8.2470018863678,6,Stim_B.csv,Item.csv,Item,B,whiff,,Win_3,,,4,JOL,User,1.25,"How likely are you to correctly recall the second item in the pair?|Type your response on a scale from 0-100 and then press Enter.",Window,Win_3,7276,,,6634,6822,,,,60,1
60fdcc57b7f29548ba9cf241,s0tkcif8rr,Ex2A_Prolific,1,8,2024-02-29T01:47:41+00:00,11.292418956757,6,Stim_B.csv,Item.csv,Item,B,stench,,Win_4,,,5,JOL,User,1.25,"How likely are you to correctly recall the second item in the pair?|Type your response on a scale from 0-100 and then press Enter.",Window,Win_4,10570,,,8680,9001,,,,50,1
60fdcc57b7f29548ba9cf241,s0tkcif8rr,Ex2A_Prolific,1,9,2024-02-29T01:47:46+00:00,4.7022280693054,6,Stim_B.csv,Item.csv,Item,B,reek,,Win_5,,,6,JOL,User,1.25,"How likely are you to correctly recall the second item in the pair?|Type your response on a scale from 0-100 and then press Enter.",Window,Win_5,3977,,,3228,3595,,,,60,1
60fdcc57b7f29548ba9cf241,s0tkcif8rr,Ex2A_Prolific,1,10,2024-02-29T01:47:58+00:00,11.481136083603,6,Stim_B.csv,Item.csv,Item,B,sniff,,Win_6,,,7,JOL,User,1.25,"How likely are you to correctly recall the second item in the pair?|Type your response on a scale from 0-100 and then press Enter.",Window,Win_6,10772,,,9841,9935,,,,50,1
60fdcc57b7f29548ba9cf241,s0tkcif8rr,Ex2A_Prolific,1,11,2024-02-29T01:48:09+00:00,11.140080928802,6,Stim_B.csv,Item.csv,Item,B,perfume,,Win_7,,,8,JOL,User,1.25,"How likely are you to correctly recall the second item in the pair?|Type your response on a scale from 0-100 and then press Enter.",Window,Win_7,10426,,,7740,8703,,,,50,1
60fdcc57b7f29548ba9cf241,s0tkcif8rr,Ex2A_Prolific,1,12,2024-02-29T01:48:15+00:00,6.0383219718933,6,Stim_B.csv,Item.csv,Item,B,fragrance,,Win_8,,,9,JOL,User,1.25,"How likely are you to correctly recall the second item in the pair?|Type your response on a scale from 0-100 and then press Enter.",Window,Win_8,5498,,,2923,3160,,,,55,1
60fdcc57b7f29548ba9cf241,s0tkcif8rr,Ex2A_Prolific,1,13,2024-02-29T01:48:20+00:00,5.4076130390167,6,Stim_B.csv,Item.csv,Item,B,nose,,Win_9,,,10,JOL,User,1.25,"How likely are you to correctly recall the second item in the pair?|Type your response on a scale from 0-100 and then press Enter.",Window,Win_9,4685,,,2786,4550,,,,95,1
60fdcc57b7f29548ba9cf241,s0tkcif8rr,Ex2A_Prolific,1,14,2024-02-29T01:48:25+00:00,4.5178470611572,6,Stim_B.csv,Item.csv,Item,B,rose,,Win_10,,,11,JOL,User,1.25,"How likely are you to correctly recall the second item in the pair?|Type your response on a scale from 0-100 and then press Enter.",Window,Win_10,3765,,,2772,3485,,,,70,1
60fdcc57b7f29548ba9cf241,s0tkcif8rr,Ex2A_Prolific,1,15,2024-02-29T01:48:30+00:00,5.5877809524536,6,Stim_B.csv,Item.csv,Item,B,salts,,Win_11,,,12,JOL,User,1.25,"How likely are you to correctly recall the second item in the pair?|Type your response on a scale from 0-100 and then press Enter.",Window,Win_11,5118,,,2209,2361,,,,30,1
60fdcc57b7f29548ba9cf241,s0tkcif8rr,Ex2A_Prolific,1,16,2024-02-29T01:48:41+00:00,10.2601749897,6,Stim_B.csv,Item.csv,Item,B,breathe,,Win_12,,,13,JOL,User,1.25,"How likely are you to correctly recall the second item in the pair?|Type your response on a scale from 0-100 and then press Enter.",Window,Win_12,9258,,,8374,8641,,,,50,1
60fdcc57b7f29548ba9cf241,s0tkcif8rr,Ex2A_Prolific,1,17,2024-02-29T01:48:51+00:00,10.821480035782,6,Stim_B.csv,Item.csv,Item,B,,,,,,0,Instruct,User,-,"You have completed this section. Please click next.",,Instruct166,1706,,,-1,-1,,,,,1
60fdcc57b7f29548ba9cf241,s0tkcif8rr,Ex2A_Prolific,1,18,2024-02-29T01:49:22+00:00,30.544750928879,6,Stim_B.csv,Item.csv,Item,B,,,,,,0,FreeRecall,30,30,"Please type as many words as you can that begin with the letter ""K"". The computer will automatically advance to the next screen in 30 seconds.",,FILLER,30001,"Knife Kite Kid Kick Karate Kind Kra",0,9137,29682,0,0,,,1
60fdcc57b7f29548ba9cf241,s0tkcif8rr,Ex2A_Prolific,1,19,2024-02-29T01:49:25+00:00,2.8926179409027,6,Stim_B.csv,Item.csv,Item,B,,,,,,0,Instruct,User,-,"You have completed this section. Please click next.",,Instruct166,2361,,,-1,-1,,,,,1
60fdcc57b7f29548ba9cf241,s0tkcif8rr,Ex2A_Prolific,1,20,2024-02-29T01:49:35+00:00,9.9800741672516,6,Stim_B.csv,Item.csv,Item,B,,,,,,0,Instruct,User,4,"You will now complete a memory test for the words you just studied. Please type as many words from the previous list as you can seperated by a comma. Spelling will not count against you and you can recall the words in any order. This test will be timed for one minute, and the computer will automatically advance once time is up. Click next when you are ready to begin.",,Instruct1666,9524,,,-1,-1,,,,,1
60fdcc57b7f29548ba9cf241,s0tkcif8rr,Ex2A_Prolific,1,21,2024-02-29T01:50:35+00:00,60.586676836014,6,Stim_B.csv,Item.csv,Item,B,,,,,,0,FreeRecall,60,60,"Please type as many words as you can from the previous study list in any order. Please separate each word with a comma. Spelling will not count against you. This screen will automatically advance in one minute.",,RECALL_Test,60003,"Nose, perfume, sniff, stench, aroma, smell, breathe, p",0,734,59870,0,0,,,1
60fdcc57b7f29548ba9cf241,s0tkcif8rr,Ex2A_Prolific,1,22,2024-02-29T01:50:40+00:00,4.0745830535889,6,Stim_B.csv,Item.csv,Item,B,,,,,,0,Instruct,User,3,"You will now be presented with a new study list. Click next when you are ready to begin.",,NEXT_LIST,3239,,,-1,-1,,,,,1
60fdcc57b7f29548ba9cf241,s0tkcif8rr,Ex2A_Prolific,1,23,2024-02-29T01:50:47+00:00,7.6719660758972,6,Stim_B.csv,Item.csv,Item,B,hard,,R1,,,14,JOL,User,1.25,"How likely are you to correctly recall the second item in the pair?|Type your response on a scale from 0-100 and then press Enter.",Rough,R1,6864,,,5144,5650,,,,70,1
60fdcc57b7f29548ba9cf241,s0tkcif8rr,Ex2A_Prolific,1,24,2024-02-29T01:50:55+00:00,7.4589960575104,6,Stim_B.csv,Item.csv,Item,B,loud,,R2,,,15,JOL,User,1.25,"How likely are you to correctly recall the second item in the pair?|Type your response on a scale from 0-100 and then press Enter.",Rough,R2,6756,,,5149,6437,,,,65,1
60fdcc57b7f29548ba9cf241,s0tkcif8rr,Ex2A_Prolific,1,25,2024-02-29T01:51:03+00:00,8.6223449707031,6,Stim_B.csv,Item.csv,Item,B,tender,,R3,,,16,JOL,User,1.25,"How likely are you to correctly recall the second item in the pair?|Type your response on a scale from 0-100 and then press Enter.",Rough,R3,8034,,,7757,7909,,,,45,1
60fdcc57b7f29548ba9cf241,s0tkcif8rr,Ex2A_Prolific,1,26,2024-02-29T01:51:07+00:00,3.7721889019012,6,Stim_B.csv,Item.csv,Item,B,fluffy,,R4,,,17,JOL,User,1.25,"How likely are you to correctly recall the second item in the pair?|Type your response on a scale from 0-100 and then press Enter.",Rough,R4,3230,,,2897,3061,,,,50,1
60fdcc57b7f29548ba9cf241,s0tkcif8rr,Ex2A_Prolific,1,27,2024-02-29T01:51:12+00:00,4.4846479892731,6,Stim_B.csv,Item.csv,Item,B,pillow,,R5,,,18,JOL,User,1.25,"How likely are you to correctly recall the second item in the pair?|Type your response on a scale from 0-100 and then press Enter.",Rough,R5,4033,,,3719,3829,,,,90,1
60fdcc57b7f29548ba9cf241,s0tkcif8rr,Ex2A_Prolific,1,28,2024-02-29T01:51:16+00:00,4.8045840263367,6,Stim_B.csv,Item.csv,Item,B,downy,,R6,,,19,JOL,User,1.25,"How likely are you to correctly recall the second item in the pair?|Type your response on a scale from 0-100 and then press Enter.",Rough,R6,3929,,,2184,3701,,,,40,1
60fdcc57b7f29548ba9cf241,s0tkcif8rr,Ex2A_Prolific,1,29,2024-02-29T01:51:25+00:00,9.0098469257355,6,Stim_B.csv,Item.csv,Item,B,plush,,R7,,,20,JOL,User,1.25,"How likely are you to correctly recall the second item in the pair?|Type your response on a scale from 0-100 and then press Enter.",Rough,R7,8258,,,7905,8027,,,,50,1
60fdcc57b7f29548ba9cf241,s0tkcif8rr,Ex2A_Prolific,1,30,2024-02-29T01:51:30+00:00,4.4128379821777,6,Stim_B.csv,Item.csv,Item,B,cotton,,R8,,,21,JOL,User,1.25,"How likely are you to correctly recall the second item in the pair?|Type your response on a scale from 0-100 and then press Enter.",Rough,R8,3744,,,2679,3488,,,,80,1
60fdcc57b7f29548ba9cf241,s0tkcif8rr,Ex2A_Prolific,1,31,2024-02-29T01:51:35+00:00,5.5442371368408,6,Stim_B.csv,Item.csv,Item,B,skin,,R9,,,22,JOL,User,1.25,"How likely are you to correctly recall the second item in the pair?|Type your response on a scale from 0-100 and then press Enter.",Rough,R9,5046,,,3587,4188,,,,90,1
60fdcc57b7f29548ba9cf241,s0tkcif8rr,Ex2A_Prolific,1,32,2024-02-29T01:51:40+00:00,4.225487947464,6,Stim_B.csv,Item.csv,Item,B,fur,,R10,,,23,JOL,User,1.25,"How likely are you to correctly recall the second item in the pair?|Type your response on a scale from 0-100 and then press Enter.",Rough,R10,3451,,,2877,3206,,,,60,1
60fdcc57b7f29548ba9cf241,s0tkcif8rr,Ex2A_Prolific,1,33,2024-02-29T01:51:46+00:00,6.0868809223175,6,Stim_B.csv,Item.csv,Item,B,touch,,R11,,,24,JOL,User,1.25,"How likely are you to correctly recall the second item in the pair?|Type your response on a scale from 0-100 and then press Enter.",Rough,R11,5206,,,4781,4990,,,,45,1
60fdcc57b7f29548ba9cf241,s0tkcif8rr,Ex2A_Prolific,1,34,2024-02-29T01:51:53+00:00,7.0092451572418,6,Stim_B.csv,Item.csv,Item,B,furry,,R12,,,25,JOL,User,1.25,"How likely are you to correctly recall the second item in the pair?|Type your response on a scale from 0-100 and then press Enter.",Rough,R12,6314,,,4992,6056,,,,90,1
60fdcc57b7f29548ba9cf241,s0tkcif8rr,Ex2A_Prolific,1,35,2024-02-29T01:51:55+00:00,2.2683448791504,6,Stim_B.csv,Item.csv,Item,B,,,,,,0,Instruct,User,-,"You have completed this section. Please click next.",,Instruct166,1561,,,-1,-1,,,,,1
60fdcc57b7f29548ba9cf241,s0tkcif8rr,Ex2A_Prolific,1,36,2024-02-29T01:52:25+00:00,30.575232982635,6,Stim_B.csv,Item.csv,Item,B,,,,,,0,FreeRecall,30,30,"Please type as many words as you can that begin with the letter ""N"". The computer will automatically advance to the next screen in 30 seconds.",,FILLER,30001,"Nose No Noise Never Not Nip Number No",0,2340,28977,0,0,,,1
60fdcc57b7f29548ba9cf241,s0tkcif8rr,Ex2A_Prolific,1,37,2024-02-29T01:52:32+00:00,6.2335221767426,6,Stim_B.csv,Item.csv,Item,B,,,,,,0,Instruct,User,4,"You have completed this section. Please click next.",,Instruct166,5085,,,-1,-1,,,,,1
60fdcc57b7f29548ba9cf241,s0tkcif8rr,Ex2A_Prolific,1,38,2024-02-29T01:52:37+00:00,5.5576009750366,6,Stim_B.csv,Item.csv,Item,B,,,,,,0,Instruct,User,4,"You will now complete a memory test for the words you just studied. Please type as many words from the previous list as you can seperated by a comma. Spelling will not count against you and you can recall the words in any order. This test will be timed for one minute, and the computer will automatically advance once time is up. Click next when you are ready to begin.",,Instruct1666,4978,,,-1,-1,,,,,1
60fdcc57b7f29548ba9cf241,s0tkcif8rr,Ex2A_Prolific,1,39,2024-02-29T01:53:38+00:00,61.01727104187,6,Stim_B.csv,Item.csv,Item,B,,,,,,0,FreeRecall,60,60,"Please type as many words as you can from the previous study list in any order. Please separate each word with a comma. Spelling will not count against you. This screen will automatically advance in one minute.",,RECALL_Test,60002,"Loud, Hard, Soft, Downy, Fur, Furry, Touch, Cotton, Pillow, Skin, Fluffy, ",0,885,59892,0,0,,,1
60fdcc57b7f29548ba9cf241,s0tkcif8rr,Ex2A_Prolific,1,40,2024-02-29T01:53:42+00:00,3.6315848827362,6,Stim_B.csv,Item.csv,Item,B,,,,,,0,Instruct,User,3,"You will now be presented with a new study list. Click next when you are ready to begin.",,NEXT_LIST,3034,,,-1,-1,,,,,1
60fdcc57b7f29548ba9cf241,s0tkcif8rr,Ex2A_Prolific,1,41,2024-02-29T01:53:48+00:00,5.7146921157837,6,Stim_B.csv,Item.csv,Item,B,honey,,A1,,,26,JOL,User,1.25,"How likely are you to correctly recall the second item in the pair?|Type your response on a scale from 0-100 and then press Enter.",Anger,A1,5166,,,4314,4476,,,,90,1
60fdcc57b7f29548ba9cf241,s0tkcif8rr,Ex2A_Prolific,1,42,2024-02-29T01:53:55+00:00,7.678505897522,6,Stim_B.csv,Item.csv,Item,B,bitter,,A2,,,27,JOL,User,1.25,"How likely are you to correctly recall the second item in the pair?|Type your response on a scale from 0-100 and then press Enter.",Anger,A2,6728,,,6018,6393,,,,70,1
60fdcc57b7f29548ba9cf241,s0tkcif8rr,Ex2A_Prolific,1,43,2024-02-29T01:54:08+00:00,12.890820980072,6,Stim_B.csv,Item.csv,Item,B,sugar,,A3,,,28,JOL,User,1.25,"How likely are you to correctly recall the second item in the pair?|Type your response on a scale from 0-100 and then press Enter.",Anger,A3,12019,,,11668,11803,,,,60,1
60fdcc57b7f29548ba9cf241,s0tkcif8rr,Ex2A_Prolific,1,44,2024-02-29T01:54:13+00:00,4.5983500480652,6,Stim_B.csv,Item.csv,Item,B,sour,,A4,,,29,JOL,User,1.25,"How likely are you to correctly recall the second item in the pair?|Type your response on a scale from 0-100 and then press Enter.",Anger,A4,4059,,,3156,3407,,,,45,1
60fdcc57b7f29548ba9cf241,s0tkcif8rr,Ex2A_Prolific,1,45,2024-02-29T01:54:17+00:00,4.3309888839722,6,Stim_B.csv,Item.csv,Item,B,candy,,A5,,,30,JOL,User,1.25,"How likely are you to correctly recall the second item in the pair?|Type your response on a scale from 0-100 and then press Enter.",Anger,A5,3858,,,2038,3750,,,,85,1
60fdcc57b7f29548ba9cf241,s0tkcif8rr,Ex2A_Prolific,1,46,2024-02-29T01:54:20+00:00,3.0950930118561,6,Stim_B.csv,Item.csv,Item,B,tart,,A6,,,31,JOL,User,1.25,"How likely are you to correctly recall the second item in the pair?|Type your response on a scale from 0-100 and then press Enter.",Anger,A6,2541,,,1995,2303,,,,30,1
60fdcc57b7f29548ba9cf241,s0tkcif8rr,Ex2A_Prolific,1,47,2024-02-29T01:54:24+00:00,3.4299070835114,6,Stim_B.csv,Item.csv,Item,B,chocolate,,A7,,,32,JOL,User,1.25,"How likely are you to correctly recall the second item in the pair?|Type your response on a scale from 0-100 and then press Enter.",Anger,A7,3016,,,2665,2800,,,,70,1
60fdcc57b7f29548ba9cf241,s0tkcif8rr,Ex2A_Prolific,1,48,2024-02-29T01:54:28+00:00,4.4451138973236,6,Stim_B.csv,Item.csv,Item,B,nice,,A8,,,33,JOL,User,1.25,"How likely are you to correctly recall the second item in the pair?|Type your response on a scale from 0-100 and then press Enter.",Anger,A8,3999,,,3624,3786,,,,50,1
60fdcc57b7f29548ba9cf241,s0tkcif8rr,Ex2A_Prolific,1,49,2024-02-29T01:54:32+00:00,4.389680147171,6,Stim_B.csv,Item.csv,Item,B,taste,,A9,,,34,JOL,User,1.25,"How likely are you to correctly recall the second item in the pair?|Type your response on a scale from 0-100 and then press Enter.",Anger,A9,3918,,,1855,3501,,,,100,1
60fdcc57b7f29548ba9cf241,s0tkcif8rr,Ex2A_Prolific,1,50,2024-02-29T01:54:35+00:00,2.9393718242645,6,Stim_B.csv,Item.csv,Item,B,cake,,A10,,,35,JOL,User,1.25,"How likely are you to correctly recall the second item in the pair?|Type your response on a scale from 0-100 and then press Enter.",Anger,A10,2406,,,2082,2193,,,,80,1
60fdcc57b7f29548ba9cf241,s0tkcif8rr,Ex2A_Prolific,1,51,2024-02-29T01:54:47+00:00,11.517144203186,6,Stim_B.csv,Item.csv,Item,B,good,,A11,,,36,JOL,User,1.25,"How likely are you to correctly recall the second item in the pair?|Type your response on a scale from 0-100 and then press Enter.",Anger,A11,11063,,,10318,10509,,,,80,1
60fdcc57b7f29548ba9cf241,s0tkcif8rr,Ex2A_Prolific,1,52,2024-02-29T01:54:52+00:00,5.467423915863,6,Stim_B.csv,Item.csv,Item,B,tooth,,A12,,,37,JOL,User,1.25,"How likely are you to correctly recall the second item in the pair?|Type your response on a scale from 0-100 and then press Enter.",Anger,A12,4980,,,2844,4632,,,,50,1
60fdcc57b7f29548ba9cf241,s0tkcif8rr,Ex2A_Prolific,1,53,2024-02-29T01:54:58+00:00,5.9332780838013,6,Stim_B.csv,Item.csv,Item,B,,,,,,0,Instruct,User,4,"You have completed this section. Please click next.",,Instruct166,5162,,,-1,-1,,,,,1
60fdcc57b7f29548ba9cf241,s0tkcif8rr,Ex2A_Prolific,1,54,2024-02-29T01:55:29+00:00,30.803666830063,6,Stim_B.csv,Item.csv,Item,B,,,,,,0,FreeRecall,30,30,"Please type as many words as you can that begin with the letter ""M"". The computer will automatically advance to the next screen in 30 seconds.",,FILLER,30002,"Mother Moth Memory Mold Monday Mumble Mind Minny Moe M",0,1464,28871,0,0,,,1
60fdcc57b7f29548ba9cf241,s0tkcif8rr,Ex2A_Prolific,1,55,2024-02-29T01:55:31+00:00,1.8746991157532,6,Stim_B.csv,Item.csv,Item,B,,,,,,0,Instruct,User,-,"You have completed this section. Please click next.",,Instruct166,1423,,,-1,-1,,,,,1
60fdcc57b7f29548ba9cf241,s0tkcif8rr,Ex2A_Prolific,1,56,2024-02-29T01:55:37+00:00,5.7351019382477,6,Stim_B.csv,Item.csv,Item,B,,,,,,0,Instruct,User,4,"You will now complete a memory test for the words you just studied. Please type as many words from the previous list as you can seperated by a comma. Spelling will not count against you and you can recall the words in any order. This test will be timed for one minute, and the computer will automatically advance once time is up. Click next when you are ready to begin.",,Instruct1666,5000,,,-1,-1,,,,,1
60fdcc57b7f29548ba9cf241,s0tkcif8rr,Ex2A_Prolific,1,57,2024-02-29T01:56:37+00:00,60.73136806488,6,Stim_B.csv,Item.csv,Item,B,,,,,,0,FreeRecall,60,60,"Please type as many words as you can from the previous study list in any order. Please separate each word with a comma. Spelling will not count against you. This screen will automatically advance in one minute.",,RECALL_Test,60006,"Honey, Sugar, Sweet, Tart, Taste, Cake, Good, Candy, Bitter, Sour, ",0,975,44475,0,0,,,1
60fdcc57b7f29548ba9cf241,s0tkcif8rr,Ex2A_Prolific,1,58,2024-02-29T01:56:43+00:00,5.1447448730469,6,Stim_B.csv,Item.csv,Item,B,,,,,,0,Instruct,User,3,"You will now be presented with a new study list. Click next when you are ready to begin.",,NEXT_LIST,4643,,,-1,-1,,,,,1
60fdcc57b7f29548ba9cf241,s0tkcif8rr,Ex2A_Prolific,1,59,2024-02-29T01:56:56+00:00,13.358355045319,6,Stim_B.csv,Item.csv,Item,B,table,,T1,,,38,JOL,User,1.25,"How likely are you to correctly recall the second item in the pair?|Type your response on a scale from 0-100 and then press Enter.",Trash,T1,12810,,,12303,12625,,,,100,1
60fdcc57b7f29548ba9cf241,s0tkcif8rr,Ex2A_Prolific,1,60,2024-02-29T01:57:00+00:00,3.5681409835815,6,Stim_B.csv,Item.csv,Item,B,swivel,,T2,,,39,JOL,User,1.25,"How likely are you to correctly recall the second item in the pair?|Type your response on a scale from 0-100 and then press Enter.",Trash,T2,3061,,,934,2140,,,,100,1
60fdcc57b7f29548ba9cf241,s0tkcif8rr,Ex2A_Prolific,1,61,2024-02-29T01:57:03+00:00,3.4053671360016,6,Stim_B.csv,Item.csv,Item,B,rocking,,T3,,,40,JOL,User,1.25,"How likely are you to correctly recall the second item in the pair?|Type your response on a scale from 0-100 and then press Enter.",Trash,T3,2829,,,1889,2060,,,,80,1
60fdcc57b7f29548ba9cf241,s0tkcif8rr,Ex2A_Prolific,1,62,2024-02-29T01:57:06+00:00,3.5022549629211,6,Stim_B.csv,Item.csv,Item,B,recliner,,T4,,,41,JOL,User,1.25,"How likely are you to correctly recall the second item in the pair?|Type your response on a scale from 0-100 and then press Enter.",Trash,T4,3012,,,2112,2638,,,,80,1
60fdcc57b7f29548ba9cf241,s0tkcif8rr,Ex2A_Prolific,1,63,2024-02-29T01:57:12+00:00,5.4325740337372,6,Stim_B.csv,Item.csv,Item,B,seat,,T5,,,42,JOL,User,1.25,"How likely are you to correctly recall the second item in the pair?|Type your response on a scale from 0-100 and then press Enter.",Trash,T5,4969,,,4458,4669,,,,60,1
60fdcc57b7f29548ba9cf241,s0tkcif8rr,Ex2A_Prolific,1,64,2024-02-29T01:57:20+00:00,7.6000649929047,6,Stim_B.csv,Item.csv,Item,B,stool,,T6,,,43,JOL,User,1.25,"How likely are you to correctly recall the second item in the pair?|Type your response on a scale from 0-100 and then press Enter.",Trash,T6,7112,,,5731,6444,,,,75,1
60fdcc57b7f29548ba9cf241,s0tkcif8rr,Ex2A_Prolific,1,65,2024-02-29T01:57:28+00:00,8.7850940227509,6,Stim_B.csv,Item.csv,Item,B,desk,,T7,,,44,JOL,User,1.25,"How likely are you to correctly recall the second item in the pair?|Type your response on a scale from 0-100 and then press Enter.",Trash,T7,8222,,,7846,7913,,,,70,1
60fdcc57b7f29548ba9cf241,s0tkcif8rr,Ex2A_Prolific,1,66,2024-02-29T01:57:31+00:00,3.1153218746185,6,Stim_B.csv,Item.csv,Item,B,couch,,T8,,,45,JOL,User,1.25,"How likely are you to correctly recall the second item in the pair?|Type your response on a scale from 0-100 and then press Enter.",Trash,T8,2381,,,2004,2108,,,,90,1
60fdcc57b7f29548ba9cf241,s0tkcif8rr,Ex2A_Prolific,1,67,2024-02-29T01:57:40+00:00,8.659686088562,6,Stim_B.csv,Item.csv,Item,B,sit,,T9,,,46,JOL,User,1.25,"How likely are you to correctly recall the second item in the pair?|Type your response on a scale from 0-100 and then press Enter.",Trash,T9,7903,,,2089,2464,,,,100,1
60fdcc57b7f29548ba9cf241,s0tkcif8rr,Ex2A_Prolific,1,68,2024-02-29T01:57:43+00:00,3.337012052536,6,Stim_B.csv,Item.csv,Item,B,sofa,,T10,,,47,JOL,User,1.25,"How likely are you to correctly recall the second item in the pair?|Type your response on a scale from 0-100 and then press Enter.",Trash,T10,2937,,,1985,2309,,,,100,1
60fdcc57b7f29548ba9cf241,s0tkcif8rr,Ex2A_Prolific,1,69,2024-02-29T01:57:46+00:00,2.4127168655396,6,Stim_B.csv,Item.csv,Item,B,bench,,T11,,,48,JOL,User,1.25,"How likely are you to correctly recall the second item in the pair?|Type your response on a scale from 0-100 and then press Enter.",Trash,T11,1939,,,1517,1691,,,,60,1
60fdcc57b7f29548ba9cf241,s0tkcif8rr,Ex2A_Prolific,1,70,2024-02-29T01:57:50+00:00,3.8577270507812,6,Stim_B.csv,Item.csv,Item,B,sitting,,T12,,,49,JOL,User,1.25,"How likely are you to correctly recall the second item in the pair?|Type your response on a scale from 0-100 and then press Enter.",Trash,T12,3042,,,2461,2831,,,,100,1
60fdcc57b7f29548ba9cf241,s0tkcif8rr,Ex2A_Prolific,1,71,2024-02-29T01:57:52+00:00,2.6588859558105,6,Stim_B.csv,Item.csv,Item,B,,,,,,0,Instruct,User,-,"You have completed this section. Please click next.",,Instruct166,2257,,,-1,-1,,,,,1
60fdcc57b7f29548ba9cf241,s0tkcif8rr,Ex2A_Prolific,1,72,2024-02-29T01:58:23+00:00,30.701457023621,6,Stim_B.csv,Item.csv,Item,B,,,,,,0,FreeRecall,30,30,"Please type as many words as you can that begin with the letter ""T"". The computer will automatically advance to the next screen in 30 seconds.",,FILLER,30003,"Tramp Tiny Tim Tonight Tommy Time Tomorrow Temple Trash T ",0,1696,28499,0,0,,,1
60fdcc57b7f29548ba9cf241,s0tkcif8rr,Ex2A_Prolific,1,73,2024-02-29T01:58:25+00:00,2.2538249492645,6,Stim_B.csv,Item.csv,Item,B,,,,,,0,Instruct,User,-,"You have completed this section. Please click next.",,Instruct166,1733,,,-1,-1,,,,,1
60fdcc57b7f29548ba9cf241,s0tkcif8rr,Ex2A_Prolific,1,74,2024-02-29T01:58:34+00:00,9.1849451065063,6,Stim_B.csv,Item.csv,Item,B,,,,,,0,Instruct,User,4,"You will now complete a memory test for the words you just studied. Please type as many words from the previous list as you can seperated by a comma. Spelling will not count against you and you can recall the words in any order. This test will be timed for one minute, and the computer will automatically advance once time is up. Click next when you are ready to begin.",,Instruct1666,8353,,,-1,-1,,,,,1
60fdcc57b7f29548ba9cf241,s0tkcif8rr,Ex2A_Prolific,1,75,2024-02-29T01:59:36+00:00,61.16523194313,6,Stim_B.csv,Item.csv,Item,B,,,,,,0,FreeRecall,60,60,"Please type as many words as you can from the previous study list in any order. Please separate each word with a comma. Spelling will not count against you. This screen will automatically advance in one minute.",,RECALL_Test,60003,"Swivel, Recliner, seat, sitting, sit, couch, sofa, table, bench, stool, desk, ",0,822,44214,0,0,,,1
60fdcc57b7f29548ba9cf241,s0tkcif8rr,Ex2A_Prolific,1,76,2024-02-29T01:59:40+00:00,4.6174969673157,6,Stim_B.csv,Item.csv,Item,B,,,,,,0,Instruct,User,3,"You will now be presented with a new study list. Click next when you are ready to begin.",,NEXT_LIST,4150,,,-1,-1,,,,,1
60fdcc57b7f29548ba9cf241,s0tkcif8rr,Ex2A_Prolific,1,77,2024-02-29T01:59:56+00:00,16.163734912872,6,Stim_B.csv,Item.csv,Item,B,climber,,D1,,,50,JOL,User,1.25,"How likely are you to correctly recall the second item in the pair?|Type your response on a scale from 0-100 and then press Enter.",Doctor,D1,15408,,,14831,15166,,,,100,1
60fdcc57b7f29548ba9cf241,s0tkcif8rr,Ex2A_Prolific,1,78,2024-02-29T01:59:59+00:00,2.8560400009155,6,Stim_B.csv,Item.csv,Item,B,hill,,D2,,,51,JOL,User,1.25,"How likely are you to correctly recall the second item in the pair?|Type your response on a scale from 0-100 and then press Enter.",Doctor,D2,2379,,,1665,2168,,,,100,1
60fdcc57b7f29548ba9cf241,s0tkcif8rr,Ex2A_Prolific,1,79,2024-02-29T02:00:02+00:00,3.1254060268402,6,Stim_B.csv,Item.csv,Item,B,climb,,D3,,,52,JOL,User,1.25,"How likely are you to correctly recall the second item in the pair?|Type your response on a scale from 0-100 and then press Enter.",Doctor,D3,2544,,,1531,1957,,,,100,1
60fdcc57b7f29548ba9cf241,s0tkcif8rr,Ex2A_Prolific,1,80,2024-02-29T02:00:06+00:00,3.5892910957336,6,Stim_B.csv,Item.csv,Item,B,molehill,,D4,,,53,JOL,User,1.25,"How likely are you to correctly recall the second item in the pair?|Type your response on a scale from 0-100 and then press Enter.",Doctor,D4,3180,,,2774,2921,,,,80,1
60fdcc57b7f29548ba9cf241,s0tkcif8rr,Ex2A_Prolific,1,81,2024-02-29T02:00:18+00:00,11.992688894272,6,Stim_B.csv,Item.csv,Item,B,peak,,D5,,,54,JOL,User,1.25,"How likely are you to correctly recall the second item in the pair?|Type your response on a scale from 0-100 and then press Enter.",Doctor,D5,11258,,,10854,11134,,,,75,1
60fdcc57b7f29548ba9cf241,s0tkcif8rr,Ex2A_Prolific,1,82,2024-02-29T02:00:30+00:00,11.637752056122,6,Stim_B.csv,Item.csv,Item,B,valley,,D6,,,55,JOL,User,1.25,"How likely are you to correctly recall the second item in the pair?|Type your response on a scale from 0-100 and then press Enter.",Doctor,D6,11028,,,10594,10780,,,,80,1
60fdcc57b7f29548ba9cf241,s0tkcif8rr,Ex2A_Prolific,1,83,2024-02-29T02:00:32+00:00,2.6678240299225,6,Stim_B.csv,Item.csv,Item,B,summit,,D7,,,56,JOL,User,1.25,"How likely are you to correctly recall the second item in the pair?|Type your response on a scale from 0-100 and then press Enter.",Doctor,D7,2233,,,1847,2021,,,,50,1
60fdcc57b7f29548ba9cf241,s0tkcif8rr,Ex2A_Prolific,1,84,2024-02-29T02:00:37+00:00,4.3895189762115,6,Stim_B.csv,Item.csv,Item,B,steep,,D8,,,57,JOL,User,1.25,"How likely are you to correctly recall the second item in the pair?|Type your response on a scale from 0-100 and then press Enter.",Doctor,D8,3593,,,3220,3319,,,,60,1
60fdcc57b7f29548ba9cf241,s0tkcif8rr,Ex2A_Prolific,1,85,2024-02-29T02:00:40+00:00,3.455873966217,6,Stim_B.csv,Item.csv,Item,B,ski,,D9,,,58,JOL,User,1.25,"How likely are you to correctly recall the second item in the pair?|Type your response on a scale from 0-100 and then press Enter.",Doctor,D9,3027,,,2696,2820,,,,60,1
60fdcc57b7f29548ba9cf241,s0tkcif8rr,Ex2A_Prolific,1,86,2024-02-29T02:00:56+00:00,15.51252913475,6,Stim_B.csv,Item.csv,Item,B,bike,,D10,,,59,JOL,User,1.25,"How likely are you to correctly recall the second item in the pair?|Type your response on a scale from 0-100 and then press Enter.",Doctor,D10,14621,,,14258,14457,,,,45,1
60fdcc57b7f29548ba9cf241,s0tkcif8rr,Ex2A_Prolific,1,87,2024-02-29T02:01:00+00:00,4.3662428855896,6,Stim_B.csv,Item.csv,Item,B,goat,,D11,,,60,JOL,User,1.25,"How likely are you to correctly recall the second item in the pair?|Type your response on a scale from 0-100 and then press Enter.",Doctor,D11,3584,,,3280,3391,,,,30,1
60fdcc57b7f29548ba9cf241,s0tkcif8rr,Ex2A_Prolific,1,88,2024-02-29T02:01:03+00:00,3.0803370475769,6,Stim_B.csv,Item.csv,Item,B,glacier,,D12,,,61,JOL,User,1.25,"How likely are you to correctly recall the second item in the pair?|Type your response on a scale from 0-100 and then press Enter.",Doctor,D12,2561,,,2222,2371,,,,30,1
60fdcc57b7f29548ba9cf241,s0tkcif8rr,Ex2A_Prolific,1,89,2024-02-29T02:01:09+00:00,5.5809950828552,6,Stim_B.csv,Item.csv,Item,B,,,,,,0,Instruct,User,4,"You have completed this section. Please click next.",,Instruct166,5070,,,-1,-1,,,,,1
60fdcc57b7f29548ba9cf241,s0tkcif8rr,Ex2A_Prolific,1,90,2024-02-29T02:01:39+00:00,30.491223812103,6,Stim_B.csv,Item.csv,Item,B,,,,,,0,FreeRecall,30,30,"Please type as many words as you can that begin with the letter ""R"". The computer will automatically advance to the next screen in 30 seconds.",,FILLER,30001,"Ride Ronda Rhyme River Running Race Rock Rover Rink Roc",0,1486,29863,0,0,,,1
60fdcc57b7f29548ba9cf241,s0tkcif8rr,Ex2A_Prolific,1,91,2024-02-29T02:01:49+00:00,9.584447145462,6,Stim_B.csv,Item.csv,Item,B,,,,,,0,Instruct,User,4,"You have completed this section. Please click next.",,Instruct166,9089,,,-1,-1,,,,,1
60fdcc57b7f29548ba9cf241,s0tkcif8rr,Ex2A_Prolific,1,92,2024-02-29T02:01:54+00:00,5.3059859275818,6,Stim_B.csv,Item.csv,Item,B,,,,,,0,Instruct,User,4,"You will now complete a memory test for the words you just studied. Please type as many words from the previous list as you can seperated by a comma. Spelling will not count against you and you can recall the words in any order. This test will be timed for one minute, and the computer will automatically advance once time is up. Click next when you are ready to begin.",,Instruct1666,4797,,,-1,-1,,,,,1
60fdcc57b7f29548ba9cf241,s0tkcif8rr,Ex2A_Prolific,1,93,2024-02-29T02:02:55+00:00,60.895580053329,6,Stim_B.csv,Item.csv,Item,B,,,,,,0,FreeRecall,60,60,"Please type as many words as you can from the previous study list in any order. Please separate each word with a comma. Spelling will not count against you. This screen will automatically advance in one minute.",,RECALL_Test,60003,"Climber, Climb, hill, peak, valley, bike, ski, goat, steep, summit, ",0,838,22469,0,0,,,1
60fdcc57b7f29548ba9cf241,s0tkcif8rr,Ex2A_Prolific,1,94,2024-02-29T02:03:01+00:00,6.4520370960236,6,Stim_B.csv,Item.csv,Item,B,,,,,,0,Instruct,User,3,"You will now be presented with a new study list. Click next when you are ready to begin.",,NEXT_LIST,5942,,,-1,-1,,,,,1
60fdcc57b7f29548ba9cf241,s0tkcif8rr,Ex2A_Prolific,1,95,2024-02-29T02:03:13+00:00,11.983814954758,6,Stim_B.csv,Item.csv,Item,B,band,,S1,,,62,JOL,User,1.25,"How likely are you to correctly recall the second item in the pair?|Type your response on a scale from 0-100 and then press Enter.",Slow,S1,11393,,,10818,11178,,,,100,1
60fdcc57b7f29548ba9cf241,s0tkcif8rr,Ex2A_Prolific,1,96,2024-02-29T02:03:16+00:00,2.4063248634338,6,Stim_B.csv,Item.csv,Item,B,concert,,S2,,,63,JOL,User,1.25,"How likely are you to correctly recall the second item in the pair?|Type your response on a scale from 0-100 and then press Enter.",Slow,S2,1762,,,1271,1572,,,,100,1
60fdcc57b7f29548ba9cf241,s0tkcif8rr,Ex2A_Prolific,1,97,2024-02-29T02:03:19+00:00,3.4930629730225,6,Stim_B.csv,Item.csv,Item,B,jazz,,S3,,,64,JOL,User,1.25,"How likely are you to correctly recall the second item in the pair?|Type your response on a scale from 0-100 and then press Enter.",Slow,S3,2836,,,747,1236,,,,100,1
60fdcc57b7f29548ba9cf241,s0tkcif8rr,Ex2A_Prolific,1,98,2024-02-29T02:03:24+00:00,4.369567155838,6,Stim_B.csv,Item.csv,Item,B,symphony,,S4,,,65,JOL,User,1.25,"How likely are you to correctly recall the second item in the pair?|Type your response on a scale from 0-100 and then press Enter.",Slow,S4,3826,,,2663,2727,,,,80,1
60fdcc57b7f29548ba9cf241,s0tkcif8rr,Ex2A_Prolific,1,99,2024-02-29T02:03:31+00:00,7.4494760036469,6,Stim_B.csv,Item.csv,Item,B,orchestra,,S5,,,66,JOL,User,1.25,"How likely are you to correctly recall the second item in the pair?|Type your response on a scale from 0-100 and then press Enter.",Slow,S5,6929,,,3069,5315,,,,60,1
60fdcc57b7f29548ba9cf241,s0tkcif8rr,Ex2A_Prolific,1,100,2024-02-29T02:03:39+00:00,7.8827710151672,6,Stim_B.csv,Item.csv,Item,B,rhythm,,S6,,,67,JOL,User,1.25,"How likely are you to correctly recall the second item in the pair?|Type your response on a scale from 0-100 and then press Enter.",Slow,S6,7424,,,5363,5818,,,,75,1
60fdcc57b7f29548ba9cf241,s0tkcif8rr,Ex2A_Prolific,1,101,2024-02-29T02:03:45+00:00,6.0926358699799,6,Stim_B.csv,Item.csv,Item,B,radio,,S7,,,68,JOL,User,1.25,"How likely are you to correctly recall the second item in the pair?|Type your response on a scale from 0-100 and then press Enter.",Slow,S7,5258,,,4725,5042,,,,100,1
60fdcc57b7f29548ba9cf241,s0tkcif8rr,Ex2A_Prolific,1,102,2024-02-29T02:03:56+00:00,11.006881952286,6,Stim_B.csv,Item.csv,Item,B,melody,,S8,,,69,JOL,User,1.25,"How likely are you to correctly recall the second item in the pair?|Type your response on a scale from 0-100 and then press Enter.",Slow,S8,10190,,,9836,10032,,,,75,1
60fdcc57b7f29548ba9cf241,s0tkcif8rr,Ex2A_Prolific,1,103,2024-02-29T02:04:13+00:00,16.509353160858,6,Stim_B.csv,Item.csv,Item,B,piano,,S9,,,70,JOL,User,1.25,"How likely are you to correctly recall the second item in the pair?|Type your response on a scale from 0-100 and then press Enter.",Slow,S9,15754,,,15388,15485,,,,90,1
60fdcc57b7f29548ba9cf241,s0tkcif8rr,Ex2A_Prolific,1,104,2024-02-29T02:04:26+00:00,13.257235050201,6,Stim_B.csv,Item.csv,Item,B,sound,,S10,,,71,JOL,User,1.25,"How likely are you to correctly recall the second item in the pair?|Type your response on a scale from 0-100 and then press Enter.",Slow,S10,12761,,,5875,6166,,,,50,1
60fdcc57b7f29548ba9cf241,s0tkcif8rr,Ex2A_Prolific,1,105,2024-02-29T02:04:32+00:00,6.1693539619446,6,Stim_B.csv,Item.csv,Item,B,instrument,,S11,,,72,JOL,User,1.25,"How likely are you to correctly recall the second item in the pair?|Type your response on a scale from 0-100 and then press Enter.",Slow,S11,5546,,,4581,5390,,,,75,1
60fdcc57b7f29548ba9cf241,s0tkcif8rr,Ex2A_Prolific,1,106,2024-02-29T02:04:36+00:00,3.5606269836426,6,Stim_B.csv,Item.csv,Item,B,note,,S12,,,73,JOL,User,1.25,"How likely are you to correctly recall the second item in the pair?|Type your response on a scale from 0-100 and then press Enter.",Slow,S12,3053,,,1874,2273,,,,30,1
60fdcc57b7f29548ba9cf241,s0tkcif8rr,Ex2A_Prolific,1,107,2024-02-29T02:04:38+00:00,2.4417209625244,6,Stim_B.csv,Item.csv,Item,B,,,,,,0,Instruct,User,-,"You have completed this section. Please click next.",,Instruct166,1975,,,-1,-1,,,,,1
60fdcc57b7f29548ba9cf241,s0tkcif8rr,Ex2A_Prolific,1,108,2024-02-29T02:05:09+00:00,30.559602975845,6,Stim_B.csv,Item.csv,Item,B,,,,,,0,FreeRecall,30,30,"Please type as many words as you can that begin with the letter ""M"". The computer will automatically advance to the next screen in 30 seconds.",,FILLER,30002,"Multiple Mommy Might Mickey Memory Midget Moth Mower M",0,1348,29075,0,0,,,1
60fdcc57b7f29548ba9cf241,s0tkcif8rr,Ex2A_Prolific,1,109,2024-02-29T02:05:14+00:00,5.8185839653015,6,Stim_B.csv,Item.csv,Item,B,,,,,,0,Instruct,User,4,"You have completed this section. Please click next.",,Instruct166,5028,,,-1,-1,,,,,1
60fdcc57b7f29548ba9cf241,s0tkcif8rr,Ex2A_Prolific,1,110,2024-02-29T02:05:20+00:00,5.4096140861511,6,Stim_B.csv,Item.csv,Item,B,,,,,,0,Instruct,User,4,"You will now complete a memory test for the words you just studied. Please type as many words from the previous list as you can seperated by a comma. Spelling will not count against you and you can recall the words in any order. This test will be timed for one minute, and the computer will automatically advance once time is up. Click next when you are ready to begin.",,Instruct1666,4954,,,-1,-1,,,,,1
60fdcc57b7f29548ba9cf241,s0tkcif8rr,Ex2A_Prolific,1,111,2024-02-29T02:06:21+00:00,60.801573991776,6,Stim_B.csv,Item.csv,Item,B,,,,,,0,FreeRecall,60,60,"Please type as many words as you can from the previous study list in any order. Please separate each word with a comma. Spelling will not count against you. This screen will automatically advance in one minute.",,RECALL_Test,60002,"Band, Concert, Jazz, Melody, note, symphony, Piano, Instrument, orchestra, ",0,777,49184,0,0,,,1
60fdcc57b7f29548ba9cf241,s0tkcif8rr,Ex2A_Prolific,1,112,2024-02-29T02:06:31+00:00,10.186799049377,6,Stim_B.csv,Item.csv,Item,B,,,,,,0,Instruct,User,3,"You will now be presented with a new study list. Click next when you are ready to begin.",,NEXT_LIST,9128,,,-1,-1,,,,,1
60fdcc57b7f29548ba9cf241,s0tkcif8rr,Ex2A_Prolific,1,113,2024-02-29T02:06:35+00:00,4.5111567974091,6,Stim_B.csv,Item.csv,Item,B,foam,,RR1,,,74,JOL,User,1.25,"How likely are you to correctly recall the second item in the pair?|Type your response on a scale from 0-100 and then press Enter.",River,RR1,3853,,,3293,3620,,,,100,1
60fdcc57b7f29548ba9cf241,s0tkcif8rr,Ex2A_Prolific,1,114,2024-02-29T02:06:38+00:00,2.8670630455017,6,Stim_B.csv,Item.csv,Item,B,latex,,RR2,,,75,JOL,User,1.25,"How likely are you to correctly recall the second item in the pair?|Type your response on a scale from 0-100 and then press Enter.",River,RR2,2397,,,1844,2200,,,,100,1
60fdcc57b7f29548ba9cf241,s0tkcif8rr,Ex2A_Prolific,1,115,2024-02-29T02:06:43+00:00,4.9639229774475,6,Stim_B.csv,Item.csv,Item,B,galoshes,,RR3,,,76,JOL,User,1.25,"How likely are you to correctly recall the second item in the pair?|Type your response on a scale from 0-100 and then press Enter.",River,RR3,4033,,,3655,3764,,,,70,1
60fdcc57b7f29548ba9cf241,s0tkcif8rr,Ex2A_Prolific,1,116,2024-02-29T02:06:52+00:00,8.972727060318,6,Stim_B.csv,Item.csv,Item,B,tire,,RR4,,,77,JOL,User,1.25,"How likely are you to correctly recall the second item in the pair?|Type your response on a scale from 0-100 and then press Enter.",River,RR4,8020,,,4784,5462,,,,50,1
60fdcc57b7f29548ba9cf241,s0tkcif8rr,Ex2A_Prolific,1,117,2024-02-29T02:07:06+00:00,13.985985994339,6,Stim_B.csv,Item.csv,Item,B,flexible,,RR5,,,78,JOL,User,1.25,"How likely are you to correctly recall the second item in the pair?|Type your response on a scale from 0-100 and then press Enter.",River,RR5,13518,,,5209,5372,,,,60,1
60fdcc57b7f29548ba9cf241,s0tkcif8rr,Ex2A_Prolific,1,118,2024-02-29T02:07:11+00:00,5.3381440639496,6,Stim_B.csv,Item.csv,Item,B,elastic,,RR6,,,79,JOL,User,1.25,"How likely are you to correctly recall the second item in the pair?|Type your response on a scale from 0-100 and then press Enter.",River,RR6,4868,,,4165,4713,,,,75,1
60fdcc57b7f29548ba9cf241,s0tkcif8rr,Ex2A_Prolific,1,119,2024-02-29T02:07:23+00:00,11.086293935776,6,Stim_B.csv,Item.csv,Item,B,gloves,,RR7,,,80,JOL,User,1.25,"How likely are you to correctly recall the second item in the pair?|Type your response on a scale from 0-100 and then press Enter.",River,RR7,10542,,,7789,7967,,,,90,1
60fdcc57b7f29548ba9cf241,s0tkcif8rr,Ex2A_Prolific,1,120,2024-02-29T02:07:29+00:00,6.742075920105,6,Stim_B.csv,Item.csv,Item,B,eraser,,RR8,,,81,JOL,User,1.25,"How likely are you to correctly recall the second item in the pair?|Type your response on a scale from 0-100 and then press Enter.",River,RR8,6234,,,5480,6024,,,,50,1
60fdcc57b7f29548ba9cf241,s0tkcif8rr,Ex2A_Prolific,1,121,2024-02-29T02:07:40+00:00,10.459433078766,6,Stim_B.csv,Item.csv,Item,B,bounce,,RR9,,,82,JOL,User,1.25,"How likely are you to correctly recall the second item in the pair?|Type your response on a scale from 0-100 and then press Enter.",River,RR9,9836,,,2006,2252,,,,45,1
60fdcc57b7f29548ba9cf241,s0tkcif8rr,Ex2A_Prolific,1,122,2024-02-29T02:07:48+00:00,7.7873010635376,6,Stim_B.csv,Item.csv,Item,B,ball,,RR10,,,83,JOL,User,1.25,"How likely are you to correctly recall the second item in the pair?|Type your response on a scale from 0-100 and then press Enter.",River,RR10,6515,,,3660,5608,,,,90,1
60fdcc57b7f29548ba9cf241,s0tkcif8rr,Ex2A_Prolific,1,123,2024-02-29T02:07:58+00:00,10.589256048203,6,Stim_B.csv,Item.csv,Item,B,soles,,RR11,,,84,JOL,User,1.25,"How likely are you to correctly recall the second item in the pair?|Type your response on a scale from 0-100 and then press Enter.",River,RR11,9837,,,9584,9647,,,,50,1
60fdcc57b7f29548ba9cf241,s0tkcif8rr,Ex2A_Prolific,1,124,2024-02-29T02:08:12+00:00,13.92569899559,6,Stim_B.csv,Item.csv,Item,B,springy,,RR12,,,85,JOL,User,1.25,"How likely are you to correctly recall the second item in the pair?|Type your response on a scale from 0-100 and then press Enter.",River,RR12,12914,,,2967,3240,,,,45,1
60fdcc57b7f29548ba9cf241,s0tkcif8rr,Ex2A_Prolific,1,125,2024-02-29T02:08:18+00:00,5.7732079029083,6,Stim_B.csv,Item.csv,Item,B,,,,,,0,Instruct,User,4,"You have completed this section. Please click next.",,Instruct166,5170,,,-1,-1,,,,,1
60fdcc57b7f29548ba9cf241,s0tkcif8rr,Ex2A_Prolific,1,126,2024-02-29T02:08:49+00:00,31.307202100754,6,Stim_B.csv,Item.csv,Item,B,,,,,,0,FreeRecall,30,30,"Please type as many words as you can that begin with the letter ""S"". The computer will automatically advance to the next screen in 30 seconds.",,FILLER,30002,"Super Sum Summer Sup Seven Sorry Simple Syrup Several Simp Sev",0,1376,29315,0,0,,,1
60fdcc57b7f29548ba9cf241,s0tkcif8rr,Ex2A_Prolific,1,127,2024-02-29T02:09:05+00:00,15.607153892517,6,Stim_B.csv,Item.csv,Item,B,,,,,,0,Instruct,User,4,"You have completed this section. Please click next.",,Instruct166,15044,,,-1,-1,,,,,1
60fdcc57b7f29548ba9cf241,s0tkcif8rr,Ex2A_Prolific,1,128,2024-02-29T02:09:10+00:00,5.0038540363312,6,Stim_B.csv,Item.csv,Item,B,,,,,,0,Instruct,User,4,"You will now complete a memory test for the words you just studied. Please type as many words from the previous list as you can seperated by a comma. Spelling will not count against you and you can recall the words in any order. This test will be timed for one minute, and the computer will automatically advance once time is up. Click next when you are ready to begin.",,Instruct1666,4217,,,-1,-1,,,,,1
60fdcc57b7f29548ba9cf241,s0tkcif8rr,Ex2A_Prolific,1,129,2024-02-29T02:10:10+00:00,60.492625951767,6,Stim_B.csv,Item.csv,Item,B,,,,,,0,FreeRecall,60,60,"Please type as many words as you can from the previous study list in any order. Please separate each word with a comma. Spelling will not count against you. This screen will automatically advance in one minute.",,RECALL_Test,60002,"Latex, tire, rubber, flexible, ball, bounce, soles, gloves, ",0,757,35197,0,0,,,1
60fdcc57b7f29548ba9cf241,s0tkcif8rr,Ex2A_Prolific,1,130,2024-02-29T02:10:53+00:00,42.324624061584,6,Stim_B.csv,Item.csv,Item,B,,,,,,0,Instruct,User,3,"You will now be presented with a new study list. Click next when you are ready to begin.",,NEXT_LIST,41315,,,-1,-1,,,,,1
60fdcc57b7f29548ba9cf241,s0tkcif8rr,Ex2A_Prolific,1,131,2024-02-29T02:10:56+00:00,3.298229932785,6,Stim_B.csv,Item.csv,Item,B,toe,,B1,,,86,JOL,User,1.25,"How likely are you to correctly recall the second item in the pair?|Type your response on a scale from 0-100 and then press Enter.",Bread,B1,2831,,,2216,2609,,,,100,1
60fdcc57b7f29548ba9cf241,s0tkcif8rr,Ex2A_Prolific,1,132,2024-02-29T02:11:05+00:00,8.7850289344788,6,Stim_B.csv,Item.csv,Item,B,inch,,B2,,,87,JOL,User,1.25,"How likely are you to correctly recall the second item in the pair?|Type your response on a scale from 0-100 and then press Enter.",Bread,B2,8331,,,7964,8041,,,,90,1
60fdcc57b7f29548ba9cf241,s0tkcif8rr,Ex2A_Prolific,1,133,2024-02-29T02:11:09+00:00,3.9094710350037,6,Stim_B.csv,Item.csv,Item,B,ankle,,B3,,,88,JOL,User,1.25,"How likely are you to correctly recall the second item in the pair?|Type your response on a scale from 0-100 and then press Enter.",Bread,B3,3028,,,2512,2825,,,,100,1
60fdcc57b7f29548ba9cf241,s0tkcif8rr,Ex2A_Prolific,1,134,2024-02-29T02:11:11+00:00,2.777606010437,6,Stim_B.csv,Item.csv,Item,B,shoe,,B4,,,89,JOL,User,1.25,"How likely are you to correctly recall the second item in the pair?|Type your response on a scale from 0-100 and then press Enter.",Bread,B4,2104,,,1528,1881,,,,100,1
60fdcc57b7f29548ba9cf241,s0tkcif8rr,Ex2A_Prolific,1,135,2024-02-29T02:11:33+00:00,21.201562166214,6,Stim_B.csv,Item.csv,Item,B,sandals,,B5,,,90,JOL,User,1.25,"How likely are you to correctly recall the second item in the pair?|Type your response on a scale from 0-100 and then press Enter.",Bread,B5,20409,,,20131,20208,,,,80,1
60fdcc57b7f29548ba9cf241,s0tkcif8rr,Ex2A_Prolific,1,136,2024-02-29T02:11:37+00:00,4.3560788631439,6,Stim_B.csv,Item.csv,Item,B,sock,,B6,,,91,JOL,User,1.25,"How likely are you to correctly recall the second item in the pair?|Type your response on a scale from 0-100 and then press Enter.",Bread,B6,3780,,,2569,3551,,,,100,1
60fdcc57b7f29548ba9cf241,s0tkcif8rr,Ex2A_Prolific,1,137,2024-02-29T02:11:43+00:00,6.5399689674377,6,Stim_B.csv,Item.csv,Item,B,hand,,B7,,,92,JOL,User,1.25,"How likely are you to correctly recall the second item in the pair?|Type your response on a scale from 0-100 and then press Enter.",Bread,B7,6045,,,5519,5831,,,,100,1
60fdcc57b7f29548ba9cf241,s0tkcif8rr,Ex2A_Prolific,1,138,2024-02-29T02:11:47+00:00,3.1422951221466,6,Stim_B.csv,Item.csv,Item,B,boot,,B8,,,93,JOL,User,1.25,"How likely are you to correctly recall the second item in the pair?|Type your response on a scale from 0-100 and then press Enter.",Bread,B8,2522,,,1951,2315,,,,100,1
60fdcc57b7f29548ba9cf241,s0tkcif8rr,Ex2A_Prolific,1,139,2024-02-29T02:11:56+00:00,9.0046370029449,6,Stim_B.csv,Item.csv,Item,B,yard,,B9,,,94,JOL,User,1.25,"How likely are you to correctly recall the second item in the pair?|Type your response on a scale from 0-100 and then press Enter.",Bread,B9,8409,,,7446,7579,,,,50,1
60fdcc57b7f29548ba9cf241,s0tkcif8rr,Ex2A_Prolific,1,140,2024-02-29T02:11:59+00:00,3.6605830192566,6,Stim_B.csv,Item.csv,Item,B,kick,,B10,,,95,JOL,User,1.25,"How likely are you to correctly recall the second item in the pair?|Type your response on a scale from 0-100 and then press Enter.",Bread,B10,3145,,,2431,2956,,,,75,1
60fdcc57b7f29548ba9cf241,s0tkcif8rr,Ex2A_Prolific,1,141,2024-02-29T02:12:08+00:00,8.9985449314117,6,Stim_B.csv,Item.csv,Item,B,knee,,B11,,,96,JOL,User,1.25,"How likely are you to correctly recall the second item in the pair?|Type your response on a scale from 0-100 and then press Enter.",Bread,B11,8606,,,7850,8324,,,,75,1
60fdcc57b7f29548ba9cf241,s0tkcif8rr,Ex2A_Prolific,1,142,2024-02-29T02:12:12+00:00,3.9531300067902,6,Stim_B.csv,Item.csv,Item,B,walk,,B12,,,97,JOL,User,1.25,"How likely are you to correctly recall the second item in the pair?|Type your response on a scale from 0-100 and then press Enter.",Bread,B12,3396,,,2394,2557,,,,50,1
60fdcc57b7f29548ba9cf241,s0tkcif8rr,Ex2A_Prolific,1,143,2024-02-29T02:12:20+00:00,7.8115599155426,6,Stim_B.csv,Item.csv,Item,B,,,,,,0,Instruct,User,4,"You have completed this section. Please click next.",,Instruct166,7297,,,-1,-1,,,,,1
60fdcc57b7f29548ba9cf241,s0tkcif8rr,Ex2A_Prolific,1,144,2024-02-29T02:12:51+00:00,30.74320602417,6,Stim_B.csv,Item.csv,Item,B,,,,,,0,FreeRecall,30,30,"Please type as many words as you can that begin with the letter ""W"". The computer will automatically advance to the next screen in 30 seconds.",,FILLER,30001,"Wind Winner Wander Wet Wonder Winter Wealth w",0,1939,28565,0,0,,,1
60fdcc57b7f29548ba9cf241,s0tkcif8rr,Ex2A_Prolific,1,145,2024-02-29T02:12:53+00:00,1.9972791671753,6,Stim_B.csv,Item.csv,Item,B,,,,,,0,Instruct,User,-,"You have completed this section. Please click next.",,Instruct166,1514,,,-1,-1,,,,,1
60fdcc57b7f29548ba9cf241,s0tkcif8rr,Ex2A_Prolific,1,146,2024-02-29T02:12:59+00:00,5.8205728530884,6,Stim_B.csv,Item.csv,Item,B,,,,,,0,Instruct,User,4,"You will now complete a memory test for the words you just studied. Please type as many words from the previous list as you can seperated by a comma. Spelling will not count against you and you can recall the words in any order. This test will be timed for one minute, and the computer will automatically advance once time is up. Click next when you are ready to begin.",,Instruct1666,5122,,,-1,-1,,,,,1
60fdcc57b7f29548ba9cf241,s0tkcif8rr,Ex2A_Prolific,1,147,2024-02-29T02:13:59+00:00,60.902853012085,6,Stim_B.csv,Item.csv,Item,B,,,,,,0,FreeRecall,60,60,"Please type as many words as you can from the previous study list in any order. Please separate each word with a comma. Spelling will not count against you. This screen will automatically advance in one minute.",,RECALL_Test,60004,"Toe, Inch, Shoe, Sandel, Sock, Boot, Knee, Walk, Hand, Ankle, Yard",0,825,51455,0,0,,,1
60fdcc57b7f29548ba9cf241,s0tkcif8rr,Ex2A_Prolific,1,148,2024-02-29T02:14:19+00:00,19.55957198143,6,Stim_B.csv,Item.csv,Item,B,,,,,,0,Instruct,User,3,"You will now be presented with a new study list. Click next when you are ready to begin.",,NEXT_LIST,18739,,,-1,-1,,,,,1
60fdcc57b7f29548ba9cf241,s0tkcif8rr,Ex2A_Prolific,1,149,2024-02-29T02:14:31+00:00,12.105067968369,6,Stim_B.csv,Item.csv,Item,B,boy,,F1,,,98,JOL,User,1.25,"How likely are you to correctly recall the second item in the pair?|Type your response on a scale from 0-100 and then press Enter.",Flag,F1,11286,,,10629,11041,,,,100,1
60fdcc57b7f29548ba9cf241,s0tkcif8rr,Ex2A_Prolific,1,150,2024-02-29T02:14:37+00:00,5.9189171791077,6,Stim_B.csv,Item.csv,Item,B,dolls,,F2,,,99,JOL,User,1.25,"How likely are you to correctly recall the second item in the pair?|Type your response on a scale from 0-100 and then press Enter.",Flag,F2,5312,,,4448,4739,,,,100,1
60fdcc57b7f29548ba9cf241,s0tkcif8rr,Ex2A_Prolific,1,151,2024-02-29T02:14:41+00:00,3.6159768104553,6,Stim_B.csv,Item.csv,Item,B,pretty,,F3,,,100,JOL,User,1.25,"How likely are you to correctly recall the second item in the pair?|Type your response on a scale from 0-100 and then press Enter.",Flag,F3,3096,,,2671,2813,,,,80,1
60fdcc57b7f29548ba9cf241,s0tkcif8rr,Ex2A_Prolific,1,152,2024-02-29T02:14:50+00:00,9.6588070392609,6,Stim_B.csv,Item.csv,Item,B,female,,F4,,,101,JOL,User,1.25,"How likely are you to correctly recall the second item in the pair?|Type your response on a scale from 0-100 and then press Enter.",Flag,F4,9237,,,8953,8991,,,,80,1
60fdcc57b7f29548ba9cf241,s0tkcif8rr,Ex2A_Prolific,1,153,2024-02-29T02:15:00+00:00,9.3987791538239,6,Stim_B.csv,Item.csv,Item,B,dress,,F5,,,102,JOL,User,1.25,"How likely are you to correctly recall the second item in the pair?|Type your response on a scale from 0-100 and then press Enter.",Flag,F5,8987,,,8390,8571,,,,90,1
60fdcc57b7f29548ba9cf241,s0tkcif8rr,Ex2A_Prolific,1,154,2024-02-29T02:15:02+00:00,2.5880279541016,6,Stim_B.csv,Item.csv,Item,B,date,,F6,,,103,JOL,User,1.25,"How likely are you to correctly recall the second item in the pair?|Type your response on a scale from 0-100 and then press Enter.",Flag,F6,2083,,,1683,1871,,,,50,1
60fdcc57b7f29548ba9cf241,s0tkcif8rr,Ex2A_Prolific,1,155,2024-02-29T02:15:12+00:00,9.3246870040894,6,Stim_B.csv,Item.csv,Item,B,beautiful,,F7,,,104,JOL,User,1.25,"How likely are you to correctly recall the second item in the pair?|Type your response on a scale from 0-100 and then press Enter.",Flag,F7,8823,,,8290,8706,,,,95,1
60fdcc57b7f29548ba9cf241,s0tkcif8rr,Ex2A_Prolific,1,156,2024-02-29T02:15:25+00:00,13.287305831909,6,Stim_B.csv,Item.csv,Item,B,daughter,,F8,,,105,JOL,User,1.25,"How likely are you to correctly recall the second item in the pair?|Type your response on a scale from 0-100 and then press Enter.",Flag,F8,12560,,,2131,7900,,,,90,1
60fdcc57b7f29548ba9cf241,s0tkcif8rr,Ex2A_Prolific,1,157,2024-02-29T02:15:31+00:00,5.6973841190338,6,Stim_B.csv,Item.csv,Item,B,sister,,F9,,,106,JOL,User,1.25,"How likely are you to correctly recall the second item in the pair?|Type your response on a scale from 0-100 and then press Enter.",Flag,F9,5267,,,2135,2369,,,,70,1
60fdcc57b7f29548ba9cf241,s0tkcif8rr,Ex2A_Prolific,1,158,2024-02-29T02:15:37+00:00,6.3827919960022,6,Stim_B.csv,Item.csv,Item,B,cute,,F10,,,107,JOL,User,1.25,"How likely are you to correctly recall the second item in the pair?|Type your response on a scale from 0-100 and then press Enter.",Flag,F10,5824,,,5316,5621,,,,100,1
60fdcc57b7f29548ba9cf241,s0tkcif8rr,Ex2A_Prolific,1,159,2024-02-29T02:15:42+00:00,4.6160140037537,6,Stim_B.csv,Item.csv,Item,B,niece,,F11,,,108,JOL,User,1.25,"How likely are you to correctly recall the second item in the pair?|Type your response on a scale from 0-100 and then press Enter.",Flag,F11,4181,,,3581,3935,,,,100,1
60fdcc57b7f29548ba9cf241,s0tkcif8rr,Ex2A_Prolific,1,160,2024-02-29T02:15:45+00:00,3.3265089988708,6,Stim_B.csv,Item.csv,Item,B,young,,F12,,,109,JOL,User,1.25,"How likely are you to correctly recall the second item in the pair?|Type your response on a scale from 0-100 and then press Enter.",Flag,F12,2928,,,2561,2701,,,,50,1
60fdcc57b7f29548ba9cf241,s0tkcif8rr,Ex2A_Prolific,1,161,2024-02-29T02:15:47+00:00,2.3237500190735,6,Stim_B.csv,Item.csv,Item,B,,,,,,0,Instruct,User,-,"You have completed this section. Please click next.",,Instruct166,1780,,,-1,-1,,,,,1
60fdcc57b7f29548ba9cf241,s0tkcif8rr,Ex2A_Prolific,1,162,2024-02-29T02:16:18+00:00,30.497844934464,6,Stim_B.csv,Item.csv,Item,B,,,,,,0,FreeRecall,30,30,"Please type as many words as you can that begin with the letter ""C"". The computer will automatically advance to the next screen in 30 seconds.",,FILLER,30001,"Count Corner Cunning Creep Country Cant Cat Co",0,1282,28592,0,0,,,1
60fdcc57b7f29548ba9cf241,s0tkcif8rr,Ex2A_Prolific,1,163,2024-02-29T02:16:20+00:00,2.1955411434174,6,Stim_B.csv,Item.csv,Item,B,,,,,,0,Instruct,User,-,"You have completed this section. Please click next.",,Instruct166,1704,,,-1,-1,,,,,1
60fdcc57b7f29548ba9cf241,s0tkcif8rr,Ex2A_Prolific,1,164,2024-02-29T02:16:26+00:00,5.6602039337158,6,Stim_B.csv,Item.csv,Item,B,,,,,,0,Instruct,User,4,"You will now complete a memory test for the words you just studied. Please type as many words from the previous list as you can seperated by a comma. Spelling will not count against you and you can recall the words in any order. This test will be timed for one minute, and the computer will automatically advance once time is up. Click next when you are ready to begin.",,Instruct1666,5186,,,-1,-1,,,,,1
60fdcc57b7f29548ba9cf241,s0tkcif8rr,Ex2A_Prolific,1,165,2024-02-29T02:17:26+00:00,60.490803956985,6,Stim_B.csv,Item.csv,Item,B,,,,,,0,FreeRecall,60,60,"Please type as many words as you can from the previous study list in any order. Please separate each word with a comma. Spelling will not count against you. This screen will automatically advance in one minute.",,RECALL_Test,60002,"Dolls, boy, female, sister, daughter, niece, cute, pretty, beautiful, dress",0,1083,47963,0,0,,,1
60fdcc57b7f29548ba9cf241,s0tkcif8rr,Ex2A_Prolific,1,166,2024-02-29T02:17:33+00:00,6.5339920520782,6,Stim_B.csv,Item.csv,Item,B,,,,,,0,Instruct,User,3,"You will now be presented with a new study list. Click next when you are ready to begin.",,NEXT_LIST,5717,,,-1,-1,,,,,1
60fdcc57b7f29548ba9cf241,s0tkcif8rr,Ex2A_Prolific,1,167,2024-02-29T02:17:40+00:00,7.7781898975372,6,Stim_B.csv,Item.csv,Item,B,white,,SS1,,,110,JOL,User,1.25,"How likely are you to correctly recall the second item in the pair?|Type your response on a scale from 0-100 and then press Enter.",Shirt,SS1,7309,,,6346,6781,,,,100,1
60fdcc57b7f29548ba9cf241,s0tkcif8rr,Ex2A_Prolific,1,168,2024-02-29T02:17:44+00:00,4.054722070694,6,Stim_B.csv,Item.csv,Item,B,gray,,SS2,,,111,JOL,User,1.25,"How likely are you to correctly recall the second item in the pair?|Type your response on a scale from 0-100 and then press Enter.",Shirt,SS2,3558,,,2985,3312,,,,100,1
60fdcc57b7f29548ba9cf241,s0tkcif8rr,Ex2A_Prolific,1,169,2024-02-29T02:17:48+00:00,3.0456569194794,6,Stim_B.csv,Item.csv,Item,B,brown,,SS3,,,112,JOL,User,1.25,"How likely are you to correctly recall the second item in the pair?|Type your response on a scale from 0-100 and then press Enter.",Shirt,SS3,2419,,,1828,2217,,,,100,1
60fdcc57b7f29548ba9cf241,s0tkcif8rr,Ex2A_Prolific,1,170,2024-02-29T02:17:58+00:00,10.415074110031,6,Stim_B.csv,Item.csv,Item,B,coal,,SS4,,,113,JOL,User,1.25,"How likely are you to correctly recall the second item in the pair?|Type your response on a scale from 0-100 and then press Enter.",Shirt,SS4,9772,,,9280,9470,,,,80,1
60fdcc57b7f29548ba9cf241,s0tkcif8rr,Ex2A_Prolific,1,171,2024-02-29T02:18:01+00:00,3.3460848331451,6,Stim_B.csv,Item.csv,Item,B,dark,,SS5,,,114,JOL,User,1.25,"How likely are you to correctly recall the second item in the pair?|Type your response on a scale from 0-100 and then press Enter.",Shirt,SS5,2892,,,2505,2703,,,,75,1
60fdcc57b7f29548ba9cf241,s0tkcif8rr,Ex2A_Prolific,1,172,2024-02-29T02:18:04+00:00,2.7282071113586,6,Stim_B.csv,Item.csv,Item,B,color,,SS6,,,115,JOL,User,1.25,"How likely are you to correctly recall the second item in the pair?|Type your response on a scale from 0-100 and then press Enter.",Shirt,SS6,2292,,,1700,2010,,,,100,1
60fdcc57b7f29548ba9cf241,s0tkcif8rr,Ex2A_Prolific,1,173,2024-02-29T02:18:12+00:00,8.4370789527893,6,Stim_B.csv,Item.csv,Item,B,funeral,,SS7,,,116,JOL,User,1.25,"How likely are you to correctly recall the second item in the pair?|Type your response on a scale from 0-100 and then press Enter.",Shirt,SS7,7995,,,7638,7747,,,,80,1
60fdcc57b7f29548ba9cf241,s0tkcif8rr,Ex2A_Prolific,1,174,2024-02-29T02:18:18+00:00,5.235258102417,6,Stim_B.csv,Item.csv,Item,B,blue,,SS8,,,117,JOL,User,1.25,"How likely are you to correctly recall the second item in the pair?|Type your response on a scale from 0-100 and then press Enter.",Shirt,SS8,4769,,,3085,3464,,,,100,1
60fdcc57b7f29548ba9cf241,s0tkcif8rr,Ex2A_Prolific,1,175,2024-02-29T02:18:30+00:00,11.949623823166,6,Stim_B.csv,Item.csv,Item,B,charred,,SS9,,,118,JOL,User,1.25,"How likely are you to correctly recall the second item in the pair?|Type your response on a scale from 0-100 and then press Enter.",Shirt,SS9,11149,,,10856,10959,,,,20,1
60fdcc57b7f29548ba9cf241,s0tkcif8rr,Ex2A_Prolific,1,176,2024-02-29T02:18:33+00:00,3.749706029892,6,Stim_B.csv,Item.csv,Item,B,ink,,SS10,,,119,JOL,User,1.25,"How likely are you to correctly recall the second item in the pair?|Type your response on a scale from 0-100 and then press Enter.",Shirt,SS10,3310,,,2880,3083,,,,80,1
60fdcc57b7f29548ba9cf241,s0tkcif8rr,Ex2A_Prolific,1,177,2024-02-29T02:18:43+00:00,9.7080709934235,6,Stim_B.csv,Item.csv,Item,B,death,,SS11,,,120,JOL,User,1.25,"How likely are you to correctly recall the second item in the pair?|Type your response on a scale from 0-100 and then press Enter.",Shirt,SS11,9159,,,8754,8924,,,,80,1
60fdcc57b7f29548ba9cf241,s0tkcif8rr,Ex2A_Prolific,1,178,2024-02-29T02:18:46+00:00,3.2274219989777,6,Stim_B.csv,Item.csv,Item,B,cat,,SS12,,,121,JOL,User,1.25,"How likely are you to correctly recall the second item in the pair?|Type your response on a scale from 0-100 and then press Enter.",Shirt,SS12,2812,,,2350,2508,,,,60,1
60fdcc57b7f29548ba9cf241,s0tkcif8rr,Ex2A_Prolific,1,179,2024-02-29T02:18:51+00:00,4.9729480743408,6,Stim_B.csv,Item.csv,Item,B,,,,,,0,Instruct,User,4,"You have completed this section. Please click next.",,Instruct166,4474,,,-1,-1,,,,,1
60fdcc57b7f29548ba9cf241,s0tkcif8rr,Ex2A_Prolific,1,180,2024-02-29T02:19:22+00:00,30.509553909302,6,Stim_B.csv,Item.csv,Item,B,,,,,,0,FreeRecall,30,30,"Please type as many words as you can that begin with the letter ""L"". The computer will automatically advance to the next screen in 30 seconds.",,FILLER,30002,"Loser Left Lemon Lenny Live Life London Lord Le",0,1558,28896,0,0,,,1
60fdcc57b7f29548ba9cf241,s0tkcif8rr,Ex2A_Prolific,1,181,2024-02-29T02:19:27+00:00,5.1011321544647,6,Stim_B.csv,Item.csv,Item,B,,,,,,0,Instruct,User,4,"You have completed this section. Please click next.",,Instruct166,4594,,,-1,-1,,,,,1
60fdcc57b7f29548ba9cf241,s0tkcif8rr,Ex2A_Prolific,1,182,2024-02-29T02:19:32+00:00,5.1490709781647,6,Stim_B.csv,Item.csv,Item,B,,,,,,0,Instruct,User,4,"You will now complete a memory test for the words you just studied. Please type as many words from the previous list as you can seperated by a comma. Spelling will not count against you and you can recall the words in any order. This test will be timed for one minute, and the computer will automatically advance once time is up. Click next when you are ready to begin.",,Instruct1666,4716,,,-1,-1,,,,,1
60fdcc57b7f29548ba9cf241,s0tkcif8rr,Ex2A_Prolific,1,183,2024-02-29T02:20:33+00:00,60.544312000275,6,Stim_B.csv,Item.csv,Item,B,,,,,,0,FreeRecall,60,60,"Please type as many words as you can from the previous study list in any order. Please separate each word with a comma. Spelling will not count against you. This screen will automatically advance in one minute.",,RECALL_Test,60013,"Dark, Colour, Death, Funeral, Cat, Blue, Coal, Charred, Grey, Brown, White",0,1379,23100,0,0,,,1
60fdcc57b7f29548ba9cf241,s0tkcif8rr,Ex2A_Prolific,1,184,2024-02-29T02:20:36+00:00,3.7939178943634,6,Stim_B.csv,Item.csv,Item,B,,,,,,0,Instruct,User,-,"You have completed this section. Please click next.",,Instruct7,2677,,,-1,-1,,,,,1
60fdcc57b7f29548ba9cf241,s0tkcif8rr,Ex2A_Prolific,1,185,2024-02-29T02:20:41+00:00,4.2540349960327,6,Stim_B.csv,Item.csv,Item,B,,,,,,0,Instruct,User,-,"The following screen will ask you a few questions abour your experience today. You must complete these questions to receive credit.",,Instruct8,3530,,,-1,-1,,,,,1
