Username,ID,ExperimentName,Session,Trial,Date,TimeDif,"Condition Number","Stimuli File","Order File","Condition Description","Condition Notes",Stimuli*Cue,Stimuli*Answer,Stimuli*Shuffle,"Stimuli*Stimuli Notes",Stimuli*Value,Procedure*Item,"Procedure*Trial Type","Procedure*Max Time","Procedure*Min Time",Procedure*Text,"Procedure*Procedure Notes",Procedure*Shuffle,Response*RT,Response*Response,Response*Accuracy,Response*RTfirst,Response*RTlast,Response*strictAcc,Response*lenientAcc,Response*focus,Response*JOL,Response*Focus
65aa571b068f34b4c4e2a648,wxnpmo498w,Ex2A_Prolific,1,1,2024-02-27T22:13:47+00:00,5.9906759262085,6,Stim_B.csv,Item.csv,Item,B,,,,,,0,Instruct,-,5,"In this section, you will be presented with a series of words. Please study each word carefully. Your memory will be tested!",Initial_Instruct,Instruct1,5609,,,-1,-1,,,,,1
65aa571b068f34b4c4e2a648,wxnpmo498w,Ex2A_Prolific,1,2,2024-02-27T22:13:53+00:00,6.0399260520935,6,Stim_B.csv,Item.csv,Item,B,,,,,,0,Instruct,-,5,"As you study, you will be asked to rate your ability to remember each item on a later memory test using a 0-100 scale. For example, if you study the word DOG, a rating of 0 indicates that you would not remember DOG at test, while a rating of 100 indicates full certainty that you would remember the word DOG at test.",,Instruct13,5581,,,-1,-1,,,,,1
65aa571b068f34b4c4e2a648,wxnpmo498w,Ex2A_Prolific,1,3,2024-02-27T22:14:04+00:00,11.001540899277,6,Stim_B.csv,Item.csv,Item,B,,,,,,0,Instruct,-,10,"When making your ratings, it is criticial that you use the full range of the scale. You will be disqualified for only giving ratings of 0 or 100!",,Instruct15,10514,,,-1,-1,,,,,1
65aa571b068f34b4c4e2a648,wxnpmo498w,Ex2A_Prolific,1,4,2024-02-27T22:14:06+00:00,2.0392069816589,6,Stim_B.csv,Item.csv,Item,B,,,,,,0,Instruct,User,-,"You will now begin the study. Click next when you are ready to begin.",,Instruct16,1573,,,-1,-1,,,,,1
65aa571b068f34b4c4e2a648,wxnpmo498w,Ex2A_Prolific,1,5,2024-02-27T22:14:24+00:00,18.364748001099,6,Stim_B.csv,Item.csv,Item,B,aroma,,Win_1,,,2,JOL,User,1.25,"How likely are you to correctly recall the second item in the pair?|Type your response on a scale from 0-100 and then press Enter.",Window,Win_1,17883,,,16255,16564,,,,50,1
65aa571b068f34b4c4e2a648,wxnpmo498w,Ex2A_Prolific,1,6,2024-02-27T22:14:31+00:00,7.0712320804596,6,Stim_B.csv,Item.csv,Item,B,scent,,Win_2,,,3,JOL,User,1.25,"How likely are you to correctly recall the second item in the pair?|Type your response on a scale from 0-100 and then press Enter.",Window,Win_2,6602,,,5222,5372,,,,90,1
65aa571b068f34b4c4e2a648,wxnpmo498w,Ex2A_Prolific,1,7,2024-02-27T22:14:36+00:00,5.1190688610077,6,Stim_B.csv,Item.csv,Item,B,whiff,,Win_3,,,4,JOL,User,1.25,"How likely are you to correctly recall the second item in the pair?|Type your response on a scale from 0-100 and then press Enter.",Window,Win_3,4647,,,3493,3620,,,,50,1
65aa571b068f34b4c4e2a648,wxnpmo498w,Ex2A_Prolific,1,8,2024-02-27T22:14:41+00:00,4.2841801643372,6,Stim_B.csv,Item.csv,Item,B,stench,,Win_4,,,5,JOL,User,1.25,"How likely are you to correctly recall the second item in the pair?|Type your response on a scale from 0-100 and then press Enter.",Window,Win_4,3815,,,2650,2926,,,,70,1
65aa571b068f34b4c4e2a648,wxnpmo498w,Ex2A_Prolific,1,9,2024-02-27T22:14:45+00:00,4.2995119094849,6,Stim_B.csv,Item.csv,Item,B,reek,,Win_5,,,6,JOL,User,1.25,"How likely are you to correctly recall the second item in the pair?|Type your response on a scale from 0-100 and then press Enter.",Window,Win_5,3855,,,2719,2916,,,,40,1
65aa571b068f34b4c4e2a648,wxnpmo498w,Ex2A_Prolific,1,10,2024-02-27T22:14:48+00:00,3.3804740905762,6,Stim_B.csv,Item.csv,Item,B,sniff,,Win_6,,,7,JOL,User,1.25,"How likely are you to correctly recall the second item in the pair?|Type your response on a scale from 0-100 and then press Enter.",Window,Win_6,2921,,,1844,2038,,,,80,1
65aa571b068f34b4c4e2a648,wxnpmo498w,Ex2A_Prolific,1,11,2024-02-27T22:14:52+00:00,3.8374810218811,6,Stim_B.csv,Item.csv,Item,B,perfume,,Win_7,,,8,JOL,User,1.25,"How likely are you to correctly recall the second item in the pair?|Type your response on a scale from 0-100 and then press Enter.",Window,Win_7,3362,,,2320,2627,,,,100,1
65aa571b068f34b4c4e2a648,wxnpmo498w,Ex2A_Prolific,1,12,2024-02-27T22:14:55+00:00,2.7131040096283,6,Stim_B.csv,Item.csv,Item,B,fragrance,,Win_8,,,9,JOL,User,1.25,"How likely are you to correctly recall the second item in the pair?|Type your response on a scale from 0-100 and then press Enter.",Window,Win_8,2242,,,1077,1483,,,,100,1
65aa571b068f34b4c4e2a648,wxnpmo498w,Ex2A_Prolific,1,13,2024-02-27T22:14:59+00:00,4.0807719230652,6,Stim_B.csv,Item.csv,Item,B,nose,,Win_9,,,10,JOL,User,1.25,"How likely are you to correctly recall the second item in the pair?|Type your response on a scale from 0-100 and then press Enter.",Window,Win_9,3636,,,2738,2864,,,,90,1
65aa571b068f34b4c4e2a648,wxnpmo498w,Ex2A_Prolific,1,14,2024-02-27T22:15:01+00:00,2.316132068634,6,Stim_B.csv,Item.csv,Item,B,rose,,Win_10,,,11,JOL,User,1.25,"How likely are you to correctly recall the second item in the pair?|Type your response on a scale from 0-100 and then press Enter.",Window,Win_10,1859,,,893,1039,,,,90,1
65aa571b068f34b4c4e2a648,wxnpmo498w,Ex2A_Prolific,1,15,2024-02-27T22:15:04+00:00,2.2616889476776,6,Stim_B.csv,Item.csv,Item,B,salts,,Win_11,,,12,JOL,User,1.25,"How likely are you to correctly recall the second item in the pair?|Type your response on a scale from 0-100 and then press Enter.",Window,Win_11,1793,,,999,1206,,,,90,1
65aa571b068f34b4c4e2a648,wxnpmo498w,Ex2A_Prolific,1,16,2024-02-27T22:15:06+00:00,2.5272529125214,6,Stim_B.csv,Item.csv,Item,B,breathe,,Win_12,,,13,JOL,User,1.25,"How likely are you to correctly recall the second item in the pair?|Type your response on a scale from 0-100 and then press Enter.",Window,Win_12,2083,,,1112,1364,,,,80,1
65aa571b068f34b4c4e2a648,wxnpmo498w,Ex2A_Prolific,1,17,2024-02-27T22:15:08+00:00,2.0019869804382,6,Stim_B.csv,Item.csv,Item,B,,,,,,0,Instruct,User,-,"You have completed this section. Please click next.",,Instruct166,1529,,,-1,-1,,,,,1
65aa571b068f34b4c4e2a648,wxnpmo498w,Ex2A_Prolific,1,18,2024-02-27T22:15:39+00:00,30.488610982895,6,Stim_B.csv,Item.csv,Item,B,,,,,,0,FreeRecall,30,30,"Please type as many words as you can that begin with the letter ""R"". The computer will automatically advance to the next screen in 30 seconds.",,FILLER,30002,"Rose, roud, rai",0,12259,29960,0,0,,,1
65aa571b068f34b4c4e2a648,wxnpmo498w,Ex2A_Prolific,1,19,2024-02-27T22:15:44+00:00,5.4706840515137,6,Stim_B.csv,Item.csv,Item,B,,,,,,0,Instruct,User,4,"You have completed this section. Please click next.",,Instruct166,4894,,,-1,-1,,,,,1
65aa571b068f34b4c4e2a648,wxnpmo498w,Ex2A_Prolific,1,20,2024-02-27T22:15:55+00:00,10.650719165802,6,Stim_B.csv,Item.csv,Item,B,,,,,,0,Instruct,User,4,"You will now complete a memory test for the words you just studied. Please type as many words from the previous list as you can seperated by a comma. Spelling will not count against you and you can recall the words in any order. This test will be timed for one minute, and the computer will automatically advance once time is up. Click next when you are ready to begin.",,Instruct1666,10161,,,-1,-1,,,,,1
65aa571b068f34b4c4e2a648,wxnpmo498w,Ex2A_Prolific,1,21,2024-02-27T22:16:55+00:00,60.504275798798,6,Stim_B.csv,Item.csv,Item,B,,,,,,0,FreeRecall,60,60,"Please type as many words as you can from the previous study list in any order. Please separate each word with a comma. Spelling will not count against you. This screen will automatically advance in one minute.",,RECALL_Test,60003,"sent, aroma, rose, smell, clean, wiff, stench, petals",0,11966,59716,0,0,,,1
65aa571b068f34b4c4e2a648,wxnpmo498w,Ex2A_Prolific,1,22,2024-02-27T22:16:59+00:00,4.2247581481934,6,Stim_B.csv,Item.csv,Item,B,,,,,,0,Instruct,User,3,"You will now be presented with a new study list. Click next when you are ready to begin.",,NEXT_LIST,3643,,,-1,-1,,,,,1
65aa571b068f34b4c4e2a648,wxnpmo498w,Ex2A_Prolific,1,23,2024-02-27T22:17:06+00:00,6.1030809879303,6,Stim_B.csv,Item.csv,Item,B,hard,,R1,,,14,JOL,User,1.25,"How likely are you to correctly recall the second item in the pair?|Type your response on a scale from 0-100 and then press Enter.",Rough,R1,5625,,,-1,-1,,,,,1
65aa571b068f34b4c4e2a648,wxnpmo498w,Ex2A_Prolific,1,24,2024-02-27T22:17:11+00:00,5.149759054184,6,Stim_B.csv,Item.csv,Item,B,loud,,R2,,,15,JOL,User,1.25,"How likely are you to correctly recall the second item in the pair?|Type your response on a scale from 0-100 and then press Enter.",Rough,R2,4655,,,3697,3822,,,,50,1
65aa571b068f34b4c4e2a648,wxnpmo498w,Ex2A_Prolific,1,25,2024-02-27T22:17:14+00:00,2.9184248447418,6,Stim_B.csv,Item.csv,Item,B,tender,,R3,,,16,JOL,User,1.25,"How likely are you to correctly recall the second item in the pair?|Type your response on a scale from 0-100 and then press Enter.",Rough,R3,2423,,,1223,1491,,,,30,1
65aa571b068f34b4c4e2a648,wxnpmo498w,Ex2A_Prolific,1,26,2024-02-27T22:17:16+00:00,2.2220339775085,6,Stim_B.csv,Item.csv,Item,B,fluffy,,R4,,,17,JOL,User,1.25,"How likely are you to correctly recall the second item in the pair?|Type your response on a scale from 0-100 and then press Enter.",Rough,R4,1761,,,585,1108,,,,30,1
65aa571b068f34b4c4e2a648,wxnpmo498w,Ex2A_Prolific,1,27,2024-02-27T22:17:18+00:00,2.0610761642456,6,Stim_B.csv,Item.csv,Item,B,pillow,,R5,,,18,JOL,User,1.25,"How likely are you to correctly recall the second item in the pair?|Type your response on a scale from 0-100 and then press Enter.",Rough,R5,1596,,,549,755,,,,30,1
65aa571b068f34b4c4e2a648,wxnpmo498w,Ex2A_Prolific,1,28,2024-02-27T22:17:20+00:00,1.9291269779205,6,Stim_B.csv,Item.csv,Item,B,downy,,R6,,,19,JOL,User,1.25,"How likely are you to correctly recall the second item in the pair?|Type your response on a scale from 0-100 and then press Enter.",Rough,R6,1441,,,430,656,,,,30,1
65aa571b068f34b4c4e2a648,wxnpmo498w,Ex2A_Prolific,1,29,2024-02-27T22:17:23+00:00,2.8494389057159,6,Stim_B.csv,Item.csv,Item,B,plush,,R7,,,20,JOL,User,1.25,"How likely are you to correctly recall the second item in the pair?|Type your response on a scale from 0-100 and then press Enter.",Rough,R7,2374,,,1299,1545,,,,20,1
65aa571b068f34b4c4e2a648,wxnpmo498w,Ex2A_Prolific,1,30,2024-02-27T22:17:25+00:00,2.0867030620575,6,Stim_B.csv,Item.csv,Item,B,cotton,,R8,,,21,JOL,User,1.25,"How likely are you to correctly recall the second item in the pair?|Type your response on a scale from 0-100 and then press Enter.",Rough,R8,1575,,,490,761,,,,20,1
65aa571b068f34b4c4e2a648,wxnpmo498w,Ex2A_Prolific,1,31,2024-02-27T22:17:28+00:00,2.7677998542786,6,Stim_B.csv,Item.csv,Item,B,skin,,R9,,,22,JOL,User,1.25,"How likely are you to correctly recall the second item in the pair?|Type your response on a scale from 0-100 and then press Enter.",Rough,R9,2291,,,461,699,,,,20,1
65aa571b068f34b4c4e2a648,wxnpmo498w,Ex2A_Prolific,1,32,2024-02-27T22:17:31+00:00,3.5398650169373,6,Stim_B.csv,Item.csv,Item,B,fur,,R10,,,23,JOL,User,1.25,"How likely are you to correctly recall the second item in the pair?|Type your response on a scale from 0-100 and then press Enter.",Rough,R10,3033,,,1964,2277,,,,20,1
65aa571b068f34b4c4e2a648,wxnpmo498w,Ex2A_Prolific,1,33,2024-02-27T22:17:33+00:00,2.3233070373535,6,Stim_B.csv,Item.csv,Item,B,touch,,R11,,,24,JOL,User,1.25,"How likely are you to correctly recall the second item in the pair?|Type your response on a scale from 0-100 and then press Enter.",Rough,R11,1822,,,711,1017,,,,20,1
65aa571b068f34b4c4e2a648,wxnpmo498w,Ex2A_Prolific,1,34,2024-02-27T22:17:36+00:00,2.6030910015106,6,Stim_B.csv,Item.csv,Item,B,furry,,R12,,,25,JOL,User,1.25,"How likely are you to correctly recall the second item in the pair?|Type your response on a scale from 0-100 and then press Enter.",Rough,R12,2146,,,984,1233,,,,20,1
65aa571b068f34b4c4e2a648,wxnpmo498w,Ex2A_Prolific,1,35,2024-02-27T22:17:41+00:00,4.888072013855,6,Stim_B.csv,Item.csv,Item,B,,,,,,0,Instruct,User,4,"You have completed this section. Please click next.",,Instruct166,4415,,,-1,-1,,,,,1
65aa571b068f34b4c4e2a648,wxnpmo498w,Ex2A_Prolific,1,36,2024-02-27T22:18:11+00:00,30.49565911293,6,Stim_B.csv,Item.csv,Item,B,,,,,,0,FreeRecall,30,30,"Please type as many words as you can that begin with the letter ""C"". The computer will automatically advance to the next screen in 30 seconds.",,FILLER,30001,"fluffy, fur, pillow, skin, texture, hard, furry, soft, ",0,1009,27014,0,0,,,1
65aa571b068f34b4c4e2a648,wxnpmo498w,Ex2A_Prolific,1,37,2024-02-27T22:18:16+00:00,4.8954720497131,6,Stim_B.csv,Item.csv,Item,B,,,,,,0,Instruct,User,4,"You have completed this section. Please click next.",,Instruct166,4428,,,-1,-1,,,,,1
65aa571b068f34b4c4e2a648,wxnpmo498w,Ex2A_Prolific,1,38,2024-02-27T22:18:25+00:00,8.6108319759369,6,Stim_B.csv,Item.csv,Item,B,,,,,,0,Instruct,User,4,"You will now complete a memory test for the words you just studied. Please type as many words from the previous list as you can seperated by a comma. Spelling will not count against you and you can recall the words in any order. This test will be timed for one minute, and the computer will automatically advance once time is up. Click next when you are ready to begin.",,Instruct1666,8125,,,-1,-1,,,,,1
65aa571b068f34b4c4e2a648,wxnpmo498w,Ex2A_Prolific,1,39,2024-02-27T22:19:25+00:00,60.498091936111,6,Stim_B.csv,Item.csv,Item,B,,,,,,0,FreeRecall,60,60,"Please type as many words as you can from the previous study list in any order. Please separate each word with a comma. Spelling will not count against you. This screen will automatically advance in one minute.",,RECALL_Test,60003,"fluffy, fluff, soft, comma, hard, furry, furr, pillow, skin, ",0,11392,45762,0,0,,,1
65aa571b068f34b4c4e2a648,wxnpmo498w,Ex2A_Prolific,1,40,2024-02-27T22:19:30+00:00,4.611545085907,6,Stim_B.csv,Item.csv,Item,B,,,,,,0,Instruct,User,3,"You will now be presented with a new study list. Click next when you are ready to begin.",,NEXT_LIST,3837,,,-1,-1,,,,,1
65aa571b068f34b4c4e2a648,wxnpmo498w,Ex2A_Prolific,1,41,2024-02-27T22:19:44+00:00,13.619375944138,6,Stim_B.csv,Item.csv,Item,B,honey,,A1,,,26,JOL,User,1.25,"How likely are you to correctly recall the second item in the pair?|Type your response on a scale from 0-100 and then press Enter.",Anger,A1,13157,,,12325,12454,,,,30,0.439
65aa571b068f34b4c4e2a648,wxnpmo498w,Ex2A_Prolific,1,42,2024-02-27T22:20:21+00:00,37.281268835068,6,Stim_B.csv,Item.csv,Item,B,bitter,,A2,,,27,JOL,User,1.25,"How likely are you to correctly recall the second item in the pair?|Type your response on a scale from 0-100 and then press Enter.",Anger,A2,3423,,,2340,2484,,,,30,1
65aa571b068f34b4c4e2a648,wxnpmo498w,Ex2A_Prolific,1,43,2024-02-27T22:20:31+00:00,9.9586291313171,6,Stim_B.csv,Item.csv,Item,B,sugar,,A3,,,28,JOL,User,1.25,"How likely are you to correctly recall the second item in the pair?|Type your response on a scale from 0-100 and then press Enter.",Anger,A3,9450,,,6706,8367,,,,40,0.708
65aa571b068f34b4c4e2a648,wxnpmo498w,Ex2A_Prolific,1,44,2024-02-27T22:20:35+00:00,3.8425300121307,6,Stim_B.csv,Item.csv,Item,B,sour,,A4,,,29,JOL,User,1.25,"How likely are you to correctly recall the second item in the pair?|Type your response on a scale from 0-100 and then press Enter.",Anger,A4,3358,,,2473,2647,,,,20,1
65aa571b068f34b4c4e2a648,wxnpmo498w,Ex2A_Prolific,1,45,2024-02-27T22:20:41+00:00,6.7210810184479,6,Stim_B.csv,Item.csv,Item,B,candy,,A5,,,30,JOL,User,1.25,"How likely are you to correctly recall the second item in the pair?|Type your response on a scale from 0-100 and then press Enter.",Anger,A5,6229,,,5116,5285,,,,40,0.625
65aa571b068f34b4c4e2a648,wxnpmo498w,Ex2A_Prolific,1,46,2024-02-27T22:20:45+00:00,3.1884019374847,6,Stim_B.csv,Item.csv,Item,B,tart,,A6,,,31,JOL,User,1.25,"How likely are you to correctly recall the second item in the pair?|Type your response on a scale from 0-100 and then press Enter.",Anger,A6,2689,,,1704,1839,,,,10,1
65aa571b068f34b4c4e2a648,wxnpmo498w,Ex2A_Prolific,1,47,2024-02-27T22:20:48+00:00,3.4183990955353,6,Stim_B.csv,Item.csv,Item,B,chocolate,,A7,,,32,JOL,User,1.25,"How likely are you to correctly recall the second item in the pair?|Type your response on a scale from 0-100 and then press Enter.",Anger,A7,2944,,,2094,2230,,,,50,1
65aa571b068f34b4c4e2a648,wxnpmo498w,Ex2A_Prolific,1,48,2024-02-27T22:20:56+00:00,7.4587659835815,6,Stim_B.csv,Item.csv,Item,B,nice,,A8,,,33,JOL,User,1.25,"How likely are you to correctly recall the second item in the pair?|Type your response on a scale from 0-100 and then press Enter.",Anger,A8,6619,,,5427,5570,,,,30,0.382
65aa571b068f34b4c4e2a648,wxnpmo498w,Ex2A_Prolific,1,49,2024-02-27T22:21:02+00:00,6.8164188861847,6,Stim_B.csv,Item.csv,Item,B,taste,,A9,,,34,JOL,User,1.25,"How likely are you to correctly recall the second item in the pair?|Type your response on a scale from 0-100 and then press Enter.",Anger,A9,5933,,,2062,2246,,,,40,0.6
65aa571b068f34b4c4e2a648,wxnpmo498w,Ex2A_Prolific,1,50,2024-02-27T22:21:11+00:00,8.7433440685272,6,Stim_B.csv,Item.csv,Item,B,cake,,A10,,,35,JOL,User,1.25,"How likely are you to correctly recall the second item in the pair?|Type your response on a scale from 0-100 and then press Enter.",Anger,A10,7860,,,6930,7115,,,,20,0.75
65aa571b068f34b4c4e2a648,wxnpmo498w,Ex2A_Prolific,1,51,2024-02-27T22:21:17+00:00,6.2594630718231,6,Stim_B.csv,Item.csv,Item,B,good,,A11,,,36,JOL,User,1.25,"How likely are you to correctly recall the second item in the pair?|Type your response on a scale from 0-100 and then press Enter.",Anger,A11,5390,,,2281,4712,,,,30,1
65aa571b068f34b4c4e2a648,wxnpmo498w,Ex2A_Prolific,1,52,2024-02-27T22:21:22+00:00,4.2823529243469,6,Stim_B.csv,Item.csv,Item,B,tooth,,A12,,,37,JOL,User,1.25,"How likely are you to correctly recall the second item in the pair?|Type your response on a scale from 0-100 and then press Enter.",Anger,A12,3364,,,2437,2667,,,,20,1
65aa571b068f34b4c4e2a648,wxnpmo498w,Ex2A_Prolific,1,53,2024-02-27T22:21:23+00:00,1.5011548995972,6,Stim_B.csv,Item.csv,Item,B,,,,,,0,Instruct,User,-,"You have completed this section. Please click next.",,Instruct166,1021,,,-1,-1,,,,,1
65aa571b068f34b4c4e2a648,wxnpmo498w,Ex2A_Prolific,1,54,2024-02-27T22:21:54+00:00,30.845549106598,6,Stim_B.csv,Item.csv,Item,B,,,,,,0,FreeRecall,30,30,"Please type as many words as you can that begin with the letter ""T"". The computer will automatically advance to the next screen in 30 seconds.",,FILLER,30001,"tooth, cake, taste, honey, bee, sugar, cho",0,2315,28189,0,0,,,0.973
65aa571b068f34b4c4e2a648,wxnpmo498w,Ex2A_Prolific,1,55,2024-02-27T22:21:56+00:00,1.8143630027771,6,Stim_B.csv,Item.csv,Item,B,,,,,,0,Instruct,User,-,"You have completed this section. Please click next.",,Instruct166,1286,,,-1,-1,,,,,1
65aa571b068f34b4c4e2a648,wxnpmo498w,Ex2A_Prolific,1,56,2024-02-27T22:22:02+00:00,5.8801250457764,6,Stim_B.csv,Item.csv,Item,B,,,,,,0,Instruct,User,4,"You will now complete a memory test for the words you just studied. Please type as many words from the previous list as you can seperated by a comma. Spelling will not count against you and you can recall the words in any order. This test will be timed for one minute, and the computer will automatically advance once time is up. Click next when you are ready to begin.",,Instruct1666,5043,,,-1,-1,,,,,1
65aa571b068f34b4c4e2a648,wxnpmo498w,Ex2A_Prolific,1,57,2024-02-27T22:23:03+00:00,60.918347835541,6,Stim_B.csv,Item.csv,Item,B,,,,,,0,FreeRecall,60,60,"Please type as many words as you can from the previous study list in any order. Please separate each word with a comma. Spelling will not count against you. This screen will automatically advance in one minute.",,RECALL_Test,60004,"chocolate, bitter, cake, candy, taste, candy, honey, bitter, sweet, tasty, bee, ",0,816,49336,0,0,,,1
65aa571b068f34b4c4e2a648,wxnpmo498w,Ex2A_Prolific,1,58,2024-02-27T22:23:10+00:00,7.4929971694946,6,Stim_B.csv,Item.csv,Item,B,,,,,,0,Instruct,User,3,"You will now be presented with a new study list. Click next when you are ready to begin.",,NEXT_LIST,6114,,,-1,-1,,,,,0.484
65aa571b068f34b4c4e2a648,wxnpmo498w,Ex2A_Prolific,1,59,2024-02-27T22:23:13+00:00,3.261020898819,6,Stim_B.csv,Item.csv,Item,B,table,,T1,,,38,JOL,User,1.25,"How likely are you to correctly recall the second item in the pair?|Type your response on a scale from 0-100 and then press Enter.",Trash,T1,2748,,,1892,2037,,,,20,1
65aa571b068f34b4c4e2a648,wxnpmo498w,Ex2A_Prolific,1,60,2024-02-27T22:23:18+00:00,4.6825709342957,6,Stim_B.csv,Item.csv,Item,B,swivel,,T2,,,39,JOL,User,1.25,"How likely are you to correctly recall the second item in the pair?|Type your response on a scale from 0-100 and then press Enter.",Trash,T2,3825,,,2860,3007,,,,10,0.5
65aa571b068f34b4c4e2a648,wxnpmo498w,Ex2A_Prolific,1,61,2024-02-27T22:23:22+00:00,4.2066349983215,6,Stim_B.csv,Item.csv,Item,B,rocking,,T3,,,40,JOL,User,1.25,"How likely are you to correctly recall the second item in the pair?|Type your response on a scale from 0-100 and then press Enter.",Trash,T3,3363,,,1893,2037,,,,20,1
65aa571b068f34b4c4e2a648,wxnpmo498w,Ex2A_Prolific,1,62,2024-02-27T22:23:33+00:00,10.996025085449,6,Stim_B.csv,Item.csv,Item,B,recliner,,T4,,,41,JOL,User,1.25,"How likely are you to correctly recall the second item in the pair?|Type your response on a scale from 0-100 and then press Enter.",Trash,T4,10134,,,8062,9388,,,,10,0.294
65aa571b068f34b4c4e2a648,wxnpmo498w,Ex2A_Prolific,1,63,2024-02-27T22:23:37+00:00,3.5073289871216,6,Stim_B.csv,Item.csv,Item,B,seat,,T5,,,42,JOL,User,1.25,"How likely are you to correctly recall the second item in the pair?|Type your response on a scale from 0-100 and then press Enter.",Trash,T5,2643,,,1585,1813,,,,40,1
65aa571b068f34b4c4e2a648,wxnpmo498w,Ex2A_Prolific,1,64,2024-02-27T22:23:45+00:00,8.4094281196594,6,Stim_B.csv,Item.csv,Item,B,stool,,T6,,,43,JOL,User,1.25,"How likely are you to correctly recall the second item in the pair?|Type your response on a scale from 0-100 and then press Enter.",Trash,T6,7560,,,6155,6311,,,,40,0.289
65aa571b068f34b4c4e2a648,wxnpmo498w,Ex2A_Prolific,1,65,2024-02-27T22:23:50+00:00,4.7803959846497,6,Stim_B.csv,Item.csv,Item,B,desk,,T7,,,44,JOL,User,1.25,"How likely are you to correctly recall the second item in the pair?|Type your response on a scale from 0-100 and then press Enter.",Trash,T7,3973,,,2799,2888,,,,40,1
65aa571b068f34b4c4e2a648,wxnpmo498w,Ex2A_Prolific,1,66,2024-02-27T22:23:57+00:00,6.6546199321747,6,Stim_B.csv,Item.csv,Item,B,couch,,T8,,,45,JOL,User,1.25,"How likely are you to correctly recall the second item in the pair?|Type your response on a scale from 0-100 and then press Enter.",Trash,T8,5777,,,5022,5187,,,,20,0.586
65aa571b068f34b4c4e2a648,wxnpmo498w,Ex2A_Prolific,1,67,2024-02-27T22:24:03+00:00,6.0683438777924,6,Stim_B.csv,Item.csv,Item,B,sit,,T9,,,46,JOL,User,1.25,"How likely are you to correctly recall the second item in the pair?|Type your response on a scale from 0-100 and then press Enter.",Trash,T9,5257,,,4664,4825,,,,50,0.481
65aa571b068f34b4c4e2a648,wxnpmo498w,Ex2A_Prolific,1,68,2024-02-27T22:24:10+00:00,7.4662020206451,6,Stim_B.csv,Item.csv,Item,B,sofa,,T10,,,47,JOL,User,1.25,"How likely are you to correctly recall the second item in the pair?|Type your response on a scale from 0-100 and then press Enter.",Trash,T10,6600,,,5618,5760,,,,20,0.485
65aa571b068f34b4c4e2a648,wxnpmo498w,Ex2A_Prolific,1,69,2024-02-27T22:24:13+00:00,2.7991201877594,6,Stim_B.csv,Item.csv,Item,B,bench,,T11,,,48,JOL,User,1.25,"How likely are you to correctly recall the second item in the pair?|Type your response on a scale from 0-100 and then press Enter.",Trash,T11,2326,,,1311,1535,,,,10,1
65aa571b068f34b4c4e2a648,wxnpmo498w,Ex2A_Prolific,1,70,2024-02-27T22:24:19+00:00,5.7045958042145,6,Stim_B.csv,Item.csv,Item,B,sitting,,T12,,,49,JOL,User,1.25,"How likely are you to correctly recall the second item in the pair?|Type your response on a scale from 0-100 and then press Enter.",Trash,T12,4851,,,2592,4102,,,,30,1
65aa571b068f34b4c4e2a648,wxnpmo498w,Ex2A_Prolific,1,71,2024-02-27T22:24:22+00:00,3.8054111003876,6,Stim_B.csv,Item.csv,Item,B,,,,,,0,Instruct,User,-,"You have completed this section. Please click next.",,Instruct166,3322,,,-1,-1,,,,,0.176
65aa571b068f34b4c4e2a648,wxnpmo498w,Ex2A_Prolific,1,72,2024-02-27T22:24:53+00:00,30.841713905334,6,Stim_B.csv,Item.csv,Item,B,,,,,,0,FreeRecall,30,30,"Please type as many words as you can that begin with the letter ""L"". The computer will automatically advance to the next screen in 30 seconds.",,FILLER,30001,"sit, sitting, table, couch, sofa, stool, desk, table ",0,1674,22264,0,0,,,1
65aa571b068f34b4c4e2a648,wxnpmo498w,Ex2A_Prolific,1,73,2024-02-27T22:24:58+00:00,4.9367129802704,6,Stim_B.csv,Item.csv,Item,B,,,,,,0,Instruct,User,4,"You have completed this section. Please click next.",,Instruct166,4081,,,-1,-1,,,,,1
65aa571b068f34b4c4e2a648,wxnpmo498w,Ex2A_Prolific,1,74,2024-02-27T22:25:04+00:00,5.4094181060791,6,Stim_B.csv,Item.csv,Item,B,,,,,,0,Instruct,User,4,"You will now complete a memory test for the words you just studied. Please type as many words from the previous list as you can seperated by a comma. Spelling will not count against you and you can recall the words in any order. This test will be timed for one minute, and the computer will automatically advance once time is up. Click next when you are ready to begin.",,Instruct1666,4579,,,-1,-1,,,,,1
65aa571b068f34b4c4e2a648,wxnpmo498w,Ex2A_Prolific,1,75,2024-02-27T22:26:04+00:00,60.866206884384,6,Stim_B.csv,Item.csv,Item,B,,,,,,0,FreeRecall,60,60,"Please type as many words as you can from the previous study list in any order. Please separate each word with a comma. Spelling will not count against you. This screen will automatically advance in one minute.",,RECALL_Test,60001,"Sit, sitting, sofa, couch, seat, table, stool, sit, seat, desk, sofa, ",0,1196,47789,0,0,,,0.887
65aa571b068f34b4c4e2a648,wxnpmo498w,Ex2A_Prolific,1,76,2024-02-27T22:26:09+00:00,4.2449312210083,6,Stim_B.csv,Item.csv,Item,B,,,,,,0,Instruct,User,3,"You will now be presented with a new study list. Click next when you are ready to begin.",,NEXT_LIST,3668,,,-1,-1,,,,,1
65aa571b068f34b4c4e2a648,wxnpmo498w,Ex2A_Prolific,1,77,2024-02-27T22:26:16+00:00,6.7839729785919,6,Stim_B.csv,Item.csv,Item,B,climber,,D1,,,50,JOL,User,1.25,"How likely are you to correctly recall the second item in the pair?|Type your response on a scale from 0-100 and then press Enter.",Doctor,D1,5918,,,5097,5213,,,,20,0.567
65aa571b068f34b4c4e2a648,wxnpmo498w,Ex2A_Prolific,1,78,2024-02-27T22:26:22+00:00,6.5627698898315,6,Stim_B.csv,Item.csv,Item,B,hill,,D2,,,51,JOL,User,1.25,"How likely are you to correctly recall the second item in the pair?|Type your response on a scale from 0-100 and then press Enter.",Doctor,D2,5732,,,4949,5011,,,,50,0.586
65aa571b068f34b4c4e2a648,wxnpmo498w,Ex2A_Prolific,1,79,2024-02-27T22:26:30+00:00,7.7611219882965,6,Stim_B.csv,Item.csv,Item,B,climb,,D3,,,52,JOL,User,1.25,"How likely are you to correctly recall the second item in the pair?|Type your response on a scale from 0-100 and then press Enter.",Doctor,D3,6836,,,5912,6155,,,,30,0.6
65aa571b068f34b4c4e2a648,wxnpmo498w,Ex2A_Prolific,1,80,2024-02-27T22:26:32+00:00,2.5922770500183,6,Stim_B.csv,Item.csv,Item,B,molehill,,D4,,,53,JOL,User,1.25,"How likely are you to correctly recall the second item in the pair?|Type your response on a scale from 0-100 and then press Enter.",Doctor,D4,2123,,,1278,1393,,,,10,1
65aa571b068f34b4c4e2a648,wxnpmo498w,Ex2A_Prolific,1,81,2024-02-27T22:26:39+00:00,6.4987659454346,6,Stim_B.csv,Item.csv,Item,B,peak,,D5,,,54,JOL,User,1.25,"How likely are you to correctly recall the second item in the pair?|Type your response on a scale from 0-100 and then press Enter.",Doctor,D5,5562,,,4575,4704,,,,30,0.571
65aa571b068f34b4c4e2a648,wxnpmo498w,Ex2A_Prolific,1,82,2024-02-27T22:26:42+00:00,2.8569419384003,6,Stim_B.csv,Item.csv,Item,B,valley,,D6,,,55,JOL,User,1.25,"How likely are you to correctly recall the second item in the pair?|Type your response on a scale from 0-100 and then press Enter.",Doctor,D6,2426,,,1471,1674,,,,10,1
65aa571b068f34b4c4e2a648,wxnpmo498w,Ex2A_Prolific,1,83,2024-02-27T22:26:49+00:00,7.3658220767975,6,Stim_B.csv,Item.csv,Item,B,summit,,D7,,,56,JOL,User,1.25,"How likely are you to correctly recall the second item in the pair?|Type your response on a scale from 0-100 and then press Enter.",Doctor,D7,6501,,,5073,5755,,,,10,0.333
65aa571b068f34b4c4e2a648,wxnpmo498w,Ex2A_Prolific,1,84,2024-02-27T22:26:56+00:00,6.6587529182434,6,Stim_B.csv,Item.csv,Item,B,steep,,D8,,,57,JOL,User,1.25,"How likely are you to correctly recall the second item in the pair?|Type your response on a scale from 0-100 and then press Enter.",Doctor,D8,5807,,,4871,5059,,,,40,0.633
65aa571b068f34b4c4e2a648,wxnpmo498w,Ex2A_Prolific,1,85,2024-02-27T22:26:59+00:00,3.6814861297607,6,Stim_B.csv,Item.csv,Item,B,ski,,D9,,,58,JOL,User,1.25,"How likely are you to correctly recall the second item in the pair?|Type your response on a scale from 0-100 and then press Enter.",Doctor,D9,2788,,,1576,1766,,,,50,1
65aa571b068f34b4c4e2a648,wxnpmo498w,Ex2A_Prolific,1,86,2024-02-27T22:27:09+00:00,9.7892789840698,6,Stim_B.csv,Item.csv,Item,B,bike,,D10,,,59,JOL,User,1.25,"How likely are you to correctly recall the second item in the pair?|Type your response on a scale from 0-100 and then press Enter.",Doctor,D10,8896,,,7955,8105,,,,20,0.489
65aa571b068f34b4c4e2a648,wxnpmo498w,Ex2A_Prolific,1,87,2024-02-27T22:27:12+00:00,2.743234872818,6,Stim_B.csv,Item.csv,Item,B,goat,,D11,,,60,JOL,User,1.25,"How likely are you to correctly recall the second item in the pair?|Type your response on a scale from 0-100 and then press Enter.",Doctor,D11,2242,,,1319,1500,,,,10,1
65aa571b068f34b4c4e2a648,wxnpmo498w,Ex2A_Prolific,1,88,2024-02-27T22:27:15+00:00,2.7402260303497,6,Stim_B.csv,Item.csv,Item,B,glacier,,D12,,,61,JOL,User,1.25,"How likely are you to correctly recall the second item in the pair?|Type your response on a scale from 0-100 and then press Enter.",Doctor,D12,1914,,,922,1189,,,,10,1
65aa571b068f34b4c4e2a648,wxnpmo498w,Ex2A_Prolific,1,89,2024-02-27T22:27:20+00:00,5.1748991012573,6,Stim_B.csv,Item.csv,Item,B,,,,,,0,Instruct,User,4,"You have completed this section. Please click next.",,Instruct166,4264,,,-1,-1,,,,,1
65aa571b068f34b4c4e2a648,wxnpmo498w,Ex2A_Prolific,1,90,2024-02-27T22:27:51+00:00,30.852355003357,6,Stim_B.csv,Item.csv,Item,B,,,,,,0,FreeRecall,30,30,"Please type as many words as you can that begin with the letter ""S"". The computer will automatically advance to the next screen in 30 seconds.",,FILLER,30001,"climber, climb, hill, peak, ski, bike, top, mount",0,1204,29176,0,0,,,1
65aa571b068f34b4c4e2a648,wxnpmo498w,Ex2A_Prolific,1,91,2024-02-27T22:27:56+00:00,4.9858410358429,6,Stim_B.csv,Item.csv,Item,B,,,,,,0,Instruct,User,4,"You have completed this section. Please click next.",,Instruct166,4103,,,-1,-1,,,,,1
65aa571b068f34b4c4e2a648,wxnpmo498w,Ex2A_Prolific,1,92,2024-02-27T22:28:01+00:00,5.2940518856049,6,Stim_B.csv,Item.csv,Item,B,,,,,,0,Instruct,User,4,"You will now complete a memory test for the words you just studied. Please type as many words from the previous list as you can seperated by a comma. Spelling will not count against you and you can recall the words in any order. This test will be timed for one minute, and the computer will automatically advance once time is up. Click next when you are ready to begin.",,Instruct1666,4445,,,-1,-1,,,,,1
65aa571b068f34b4c4e2a648,wxnpmo498w,Ex2A_Prolific,1,93,2024-02-27T22:29:02+00:00,60.90748000145,6,Stim_B.csv,Item.csv,Item,B,,,,,,0,FreeRecall,60,60,"Please type as many words as you can from the previous study list in any order. Please separate each word with a comma. Spelling will not count against you. This screen will automatically advance in one minute.",,RECALL_Test,60003,"climber, climb, hill, peak, ski, bike, steep, mountain, steep, goat",0,1074,43468,0,0,,,1
65aa571b068f34b4c4e2a648,wxnpmo498w,Ex2A_Prolific,1,94,2024-02-27T22:29:08+00:00,6.2402911186218,6,Stim_B.csv,Item.csv,Item,B,,,,,,0,Instruct,User,3,"You will now be presented with a new study list. Click next when you are ready to begin.",,NEXT_LIST,5313,,,-1,-1,,,,,1
65aa571b068f34b4c4e2a648,wxnpmo498w,Ex2A_Prolific,1,95,2024-02-27T22:29:16+00:00,7.7453458309174,6,Stim_B.csv,Item.csv,Item,B,band,,S1,,,62,JOL,User,1.25,"How likely are you to correctly recall the second item in the pair?|Type your response on a scale from 0-100 and then press Enter.",Slow,S1,6900,,,-1,-1,,,,,0.086
65aa571b068f34b4c4e2a648,wxnpmo498w,Ex2A_Prolific,1,96,2024-02-27T22:29:20+00:00,3.7609031200409,6,Stim_B.csv,Item.csv,Item,B,concert,,S2,,,63,JOL,User,1.25,"How likely are you to correctly recall the second item in the pair?|Type your response on a scale from 0-100 and then press Enter.",Slow,S2,2918,,,2038,2232,,,,40,1
65aa571b068f34b4c4e2a648,wxnpmo498w,Ex2A_Prolific,1,97,2024-02-27T22:29:32+00:00,11.837872028351,6,Stim_B.csv,Item.csv,Item,B,jazz,,S3,,,64,JOL,User,1.25,"How likely are you to correctly recall the second item in the pair?|Type your response on a scale from 0-100 and then press Enter.",Slow,S3,11004,,,9898,10114,,,,50,0.179
65aa571b068f34b4c4e2a648,wxnpmo498w,Ex2A_Prolific,1,98,2024-02-27T22:29:36+00:00,4.8793299198151,6,Stim_B.csv,Item.csv,Item,B,symphony,,S4,,,65,JOL,User,1.25,"How likely are you to correctly recall the second item in the pair?|Type your response on a scale from 0-100 and then press Enter.",Slow,S4,4028,,,2834,3179,,,,10,0.476
65aa571b068f34b4c4e2a648,wxnpmo498w,Ex2A_Prolific,1,99,2024-02-27T22:29:43+00:00,6.7001769542694,6,Stim_B.csv,Item.csv,Item,B,orchestra,,S5,,,66,JOL,User,1.25,"How likely are you to correctly recall the second item in the pair?|Type your response on a scale from 0-100 and then press Enter.",Slow,S5,5854,,,4693,5026,,,,20,0.3
65aa571b068f34b4c4e2a648,wxnpmo498w,Ex2A_Prolific,1,100,2024-02-27T22:29:47+00:00,3.7404971122742,6,Stim_B.csv,Item.csv,Item,B,rhythm,,S6,,,67,JOL,User,1.25,"How likely are you to correctly recall the second item in the pair?|Type your response on a scale from 0-100 and then press Enter.",Slow,S6,2893,,,1881,2158,,,,30,1
65aa571b068f34b4c4e2a648,wxnpmo498w,Ex2A_Prolific,1,101,2024-02-27T22:29:56+00:00,9.4487059116364,6,Stim_B.csv,Item.csv,Item,B,radio,,S7,,,68,JOL,User,1.25,"How likely are you to correctly recall the second item in the pair?|Type your response on a scale from 0-100 and then press Enter.",Slow,S7,8615,,,7621,7818,,,,40,0.318
65aa571b068f34b4c4e2a648,wxnpmo498w,Ex2A_Prolific,1,102,2024-02-27T22:30:00+00:00,4.0830500125885,6,Stim_B.csv,Item.csv,Item,B,melody,,S8,,,69,JOL,User,1.25,"How likely are you to correctly recall the second item in the pair?|Type your response on a scale from 0-100 and then press Enter.",Slow,S8,3248,,,2102,2337,,,,30,1
65aa571b068f34b4c4e2a648,wxnpmo498w,Ex2A_Prolific,1,103,2024-02-27T22:30:08+00:00,7.9203259944916,6,Stim_B.csv,Item.csv,Item,B,piano,,S9,,,70,JOL,User,1.25,"How likely are you to correctly recall the second item in the pair?|Type your response on a scale from 0-100 and then press Enter.",Slow,S9,7092,,,6143,6363,,,,50,0.278
65aa571b068f34b4c4e2a648,wxnpmo498w,Ex2A_Prolific,1,104,2024-02-27T22:30:12+00:00,3.7176401615143,6,Stim_B.csv,Item.csv,Item,B,sound,,S10,,,71,JOL,User,1.25,"How likely are you to correctly recall the second item in the pair?|Type your response on a scale from 0-100 and then press Enter.",Slow,S10,2912,,,1966,2209,,,,40,1
65aa571b068f34b4c4e2a648,wxnpmo498w,Ex2A_Prolific,1,105,2024-02-27T22:30:18+00:00,5.9667489528656,6,Stim_B.csv,Item.csv,Item,B,instrument,,S11,,,72,JOL,User,1.25,"How likely are you to correctly recall the second item in the pair?|Type your response on a scale from 0-100 and then press Enter.",Slow,S11,5086,,,3659,4370,,,,60,0.5
65aa571b068f34b4c4e2a648,wxnpmo498w,Ex2A_Prolific,1,106,2024-02-27T22:30:26+00:00,7.6356809139252,6,Stim_B.csv,Item.csv,Item,B,note,,S12,,,73,JOL,User,1.25,"How likely are you to correctly recall the second item in the pair?|Type your response on a scale from 0-100 and then press Enter.",Slow,S12,6805,,,5856,6096,,,,60,0.257
65aa571b068f34b4c4e2a648,wxnpmo498w,Ex2A_Prolific,1,107,2024-02-27T22:30:32+00:00,5.9437189102173,6,Stim_B.csv,Item.csv,Item,B,,,,,,0,Instruct,User,4,"You have completed this section. Please click next.",,Instruct166,5129,,,-1,-1,,,,,1
65aa571b068f34b4c4e2a648,wxnpmo498w,Ex2A_Prolific,1,108,2024-02-27T22:31:03+00:00,30.940543174744,6,Stim_B.csv,Item.csv,Item,B,,,,,,0,FreeRecall,30,30,"Please type as many words as you can that begin with the letter ""W"". The computer will automatically advance to the next screen in 30 seconds.",,FILLER,30002,"jazz, band, concert, radio, sound, note, piano, melody. instrument",0,1170,28725,0,0,,,1
65aa571b068f34b4c4e2a648,wxnpmo498w,Ex2A_Prolific,1,109,2024-02-27T22:31:04+00:00,1.9034168720245,6,Stim_B.csv,Item.csv,Item,B,,,,,,0,Instruct,User,-,"You have completed this section. Please click next.",,Instruct166,960,,,-1,-1,,,,,1
65aa571b068f34b4c4e2a648,wxnpmo498w,Ex2A_Prolific,1,110,2024-02-27T22:31:12+00:00,7.1201469898224,6,Stim_B.csv,Item.csv,Item,B,,,,,,0,Instruct,User,4,"You will now complete a memory test for the words you just studied. Please type as many words from the previous list as you can seperated by a comma. Spelling will not count against you and you can recall the words in any order. This test will be timed for one minute, and the computer will automatically advance once time is up. Click next when you are ready to begin.",,Instruct1666,6273,,,-1,-1,,,,,1
65aa571b068f34b4c4e2a648,wxnpmo498w,Ex2A_Prolific,1,111,2024-02-27T22:32:12+00:00,60.856785058975,6,Stim_B.csv,Item.csv,Item,B,,,,,,0,FreeRecall,60,60,"Please type as many words as you can from the previous study list in any order. Please separate each word with a comma. Spelling will not count against you. This screen will automatically advance in one minute.",,RECALL_Test,60003,"band, concert, jazz, rhythm, sound, melody, instrument, jazz, rhythm, note, noice, ",0,891,53799,0,0,,,1
65aa571b068f34b4c4e2a648,wxnpmo498w,Ex2A_Prolific,1,112,2024-02-27T22:32:19+00:00,7.0861120223999,6,Stim_B.csv,Item.csv,Item,B,,,,,,0,Instruct,User,3,"You will now be presented with a new study list. Click next when you are ready to begin.",,NEXT_LIST,6143,,,-1,-1,,,,,0.452
65aa571b068f34b4c4e2a648,wxnpmo498w,Ex2A_Prolific,1,113,2024-02-27T22:32:27+00:00,7.8280038833618,6,Stim_B.csv,Item.csv,Item,B,foam,,RR1,,,74,JOL,User,1.25,"How likely are you to correctly recall the second item in the pair?|Type your response on a scale from 0-100 and then press Enter.",River,RR1,6993,,,6023,6189,,,,30,0.629
65aa571b068f34b4c4e2a648,wxnpmo498w,Ex2A_Prolific,1,114,2024-02-27T22:32:32+00:00,4.7880480289459,6,Stim_B.csv,Item.csv,Item,B,latex,,RR2,,,75,JOL,User,1.25,"How likely are you to correctly recall the second item in the pair?|Type your response on a scale from 0-100 and then press Enter.",River,RR2,3948,,,2559,2727,,,,10,1
65aa571b068f34b4c4e2a648,wxnpmo498w,Ex2A_Prolific,1,115,2024-02-27T22:32:39+00:00,6.9336822032928,6,Stim_B.csv,Item.csv,Item,B,galoshes,,RR3,,,76,JOL,User,1.25,"How likely are you to correctly recall the second item in the pair?|Type your response on a scale from 0-100 and then press Enter.",River,RR3,6112,,,4136,5156,,,,0,0.419
65aa571b068f34b4c4e2a648,wxnpmo498w,Ex2A_Prolific,1,116,2024-02-27T22:32:44+00:00,4.627240896225,6,Stim_B.csv,Item.csv,Item,B,tire,,RR4,,,77,JOL,User,1.25,"How likely are you to correctly recall the second item in the pair?|Type your response on a scale from 0-100 and then press Enter.",River,RR4,4162,,,3256,3402,,,,40,1
65aa571b068f34b4c4e2a648,wxnpmo498w,Ex2A_Prolific,1,117,2024-02-27T22:32:49+00:00,5.441997051239,6,Stim_B.csv,Item.csv,Item,B,flexible,,RR5,,,78,JOL,User,1.25,"How likely are you to correctly recall the second item in the pair?|Type your response on a scale from 0-100 and then press Enter.",River,RR5,4643,,,3615,3836,,,,10,0.417
65aa571b068f34b4c4e2a648,wxnpmo498w,Ex2A_Prolific,1,118,2024-02-27T22:33:00+00:00,10.941273927689,6,Stim_B.csv,Item.csv,Item,B,elastic,,RR6,,,79,JOL,User,1.25,"How likely are you to correctly recall the second item in the pair?|Type your response on a scale from 0-100 and then press Enter.",River,RR6,10031,,,8977,9226,,,,30,0.49
65aa571b068f34b4c4e2a648,wxnpmo498w,Ex2A_Prolific,1,119,2024-02-27T22:33:03+00:00,2.9203820228577,6,Stim_B.csv,Item.csv,Item,B,gloves,,RR7,,,80,JOL,User,1.25,"How likely are you to correctly recall the second item in the pair?|Type your response on a scale from 0-100 and then press Enter.",River,RR7,2452,,,1278,1499,,,,50,1
65aa571b068f34b4c4e2a648,wxnpmo498w,Ex2A_Prolific,1,120,2024-02-27T22:33:13+00:00,10.387676954269,6,Stim_B.csv,Item.csv,Item,B,eraser,,RR8,,,81,JOL,User,1.25,"How likely are you to correctly recall the second item in the pair?|Type your response on a scale from 0-100 and then press Enter.",River,RR8,9566,,,8140,8823,,,,40,0.229
65aa571b068f34b4c4e2a648,wxnpmo498w,Ex2A_Prolific,1,121,2024-02-27T22:33:18+00:00,4.3819279670715,6,Stim_B.csv,Item.csv,Item,B,bounce,,RR9,,,82,JOL,User,1.25,"How likely are you to correctly recall the second item in the pair?|Type your response on a scale from 0-100 and then press Enter.",River,RR9,3473,,,1471,2679,,,,10,1
65aa571b068f34b4c4e2a648,wxnpmo498w,Ex2A_Prolific,1,122,2024-02-27T22:33:25+00:00,7.2182710170746,6,Stim_B.csv,Item.csv,Item,B,ball,,RR10,,,83,JOL,User,1.25,"How likely are you to correctly recall the second item in the pair?|Type your response on a scale from 0-100 and then press Enter.",River,RR10,6318,,,5413,5621,,,,20,0.469
65aa571b068f34b4c4e2a648,wxnpmo498w,Ex2A_Prolific,1,123,2024-02-27T22:33:28+00:00,2.6876289844513,6,Stim_B.csv,Item.csv,Item,B,soles,,RR11,,,84,JOL,User,1.25,"How likely are you to correctly recall the second item in the pair?|Type your response on a scale from 0-100 and then press Enter.",River,RR11,2197,,,1255,1525,,,,10,1
65aa571b068f34b4c4e2a648,wxnpmo498w,Ex2A_Prolific,1,124,2024-02-27T22:33:31+00:00,3.1138429641724,6,Stim_B.csv,Item.csv,Item,B,springy,,RR12,,,85,JOL,User,1.25,"How likely are you to correctly recall the second item in the pair?|Type your response on a scale from 0-100 and then press Enter.",River,RR12,2320,,,1496,1651,,,,10,1
65aa571b068f34b4c4e2a648,wxnpmo498w,Ex2A_Prolific,1,125,2024-02-27T22:33:39+00:00,8.2928071022034,6,Stim_B.csv,Item.csv,Item,B,,,,,,0,Instruct,User,4,"You have completed this section. Please click next.",,Instruct166,7391,,,-1,-1,,,,,0.27
65aa571b068f34b4c4e2a648,wxnpmo498w,Ex2A_Prolific,1,126,2024-02-27T22:34:10+00:00,30.876004934311,6,Stim_B.csv,Item.csv,Item,B,,,,,,0,FreeRecall,30,30,"Please type as many words as you can that begin with the letter ""N"". The computer will automatically advance to the next screen in 30 seconds.",,FILLER,30002,"springy, foam, latex, gloves, ball, foam",0,2126,29557,0,0,,,1
65aa571b068f34b4c4e2a648,wxnpmo498w,Ex2A_Prolific,1,127,2024-02-27T22:34:15+00:00,5.26726603508,6,Stim_B.csv,Item.csv,Item,B,,,,,,0,Instruct,User,4,"You have completed this section. Please click next.",,Instruct166,4386,,,-1,-1,,,,,0.727
65aa571b068f34b4c4e2a648,wxnpmo498w,Ex2A_Prolific,1,128,2024-02-27T22:34:20+00:00,4.8921029567719,6,Stim_B.csv,Item.csv,Item,B,,,,,,0,Instruct,User,4,"You will now complete a memory test for the words you just studied. Please type as many words from the previous list as you can seperated by a comma. Spelling will not count against you and you can recall the words in any order. This test will be timed for one minute, and the computer will automatically advance once time is up. Click next when you are ready to begin.",,Instruct1666,4021,,,-1,-1,,,,,1
65aa571b068f34b4c4e2a648,wxnpmo498w,Ex2A_Prolific,1,129,2024-02-27T22:35:21+00:00,60.878463983536,6,Stim_B.csv,Item.csv,Item,B,,,,,,0,FreeRecall,60,60,"Please type as many words as you can from the previous study list in any order. Please separate each word with a comma. Spelling will not count against you. This screen will automatically advance in one minute.",,RECALL_Test,60002,"springy, tire, latex, elastic, gloves, ball, spring, ",0,942,18307,0,0,,,0.853
65aa571b068f34b4c4e2a648,wxnpmo498w,Ex2A_Prolific,1,130,2024-02-27T22:35:25+00:00,4.3481969833374,6,Stim_B.csv,Item.csv,Item,B,,,,,,0,Instruct,User,3,"You will now be presented with a new study list. Click next when you are ready to begin.",,NEXT_LIST,3477,,,-1,-1,,,,,1
65aa571b068f34b4c4e2a648,wxnpmo498w,Ex2A_Prolific,1,131,2024-02-27T22:35:32+00:00,6.9762830734253,6,Stim_B.csv,Item.csv,Item,B,toe,,B1,,,86,JOL,User,1.25,"How likely are you to correctly recall the second item in the pair?|Type your response on a scale from 0-100 and then press Enter.",Bread,B1,6181,,,5073,5397,,,,50,0.548
65aa571b068f34b4c4e2a648,wxnpmo498w,Ex2A_Prolific,1,132,2024-02-27T22:35:37+00:00,4.2384989261627,6,Stim_B.csv,Item.csv,Item,B,inch,,B2,,,87,JOL,User,1.25,"How likely are you to correctly recall the second item in the pair?|Type your response on a scale from 0-100 and then press Enter.",Bread,B2,3352,,,2305,2633,,,,10,1
65aa571b068f34b4c4e2a648,wxnpmo498w,Ex2A_Prolific,1,133,2024-02-27T22:35:44+00:00,7.2012271881104,6,Stim_B.csv,Item.csv,Item,B,ankle,,B3,,,88,JOL,User,1.25,"How likely are you to correctly recall the second item in the pair?|Type your response on a scale from 0-100 and then press Enter.",Bread,B3,6380,,,5470,5621,,,,50,0.438
65aa571b068f34b4c4e2a648,wxnpmo498w,Ex2A_Prolific,1,134,2024-02-27T22:35:48+00:00,4.3596439361572,6,Stim_B.csv,Item.csv,Item,B,shoe,,B4,,,89,JOL,User,1.25,"How likely are you to correctly recall the second item in the pair?|Type your response on a scale from 0-100 and then press Enter.",Bread,B4,3556,,,1700,2105,,,,50,1
65aa571b068f34b4c4e2a648,wxnpmo498w,Ex2A_Prolific,1,135,2024-02-27T22:35:55+00:00,6.7901730537415,6,Stim_B.csv,Item.csv,Item,B,sandals,,B5,,,90,JOL,User,1.25,"How likely are you to correctly recall the second item in the pair?|Type your response on a scale from 0-100 and then press Enter.",Bread,B5,5945,,,3424,5005,,,,40,0.567
65aa571b068f34b4c4e2a648,wxnpmo498w,Ex2A_Prolific,1,136,2024-02-27T22:36:00+00:00,5.3754780292511,6,Stim_B.csv,Item.csv,Item,B,sock,,B6,,,91,JOL,User,1.25,"How likely are you to correctly recall the second item in the pair?|Type your response on a scale from 0-100 and then press Enter.",Bread,B6,4499,,,3502,3704,,,,30,0.391
65aa571b068f34b4c4e2a648,wxnpmo498w,Ex2A_Prolific,1,137,2024-02-27T22:36:07+00:00,6.4555599689484,6,Stim_B.csv,Item.csv,Item,B,hand,,B7,,,92,JOL,User,1.25,"How likely are you to correctly recall the second item in the pair?|Type your response on a scale from 0-100 and then press Enter.",Bread,B7,5573,,,4593,4812,,,,10,0.357
65aa571b068f34b4c4e2a648,wxnpmo498w,Ex2A_Prolific,1,138,2024-02-27T22:36:09+00:00,2.3063340187073,6,Stim_B.csv,Item.csv,Item,B,boot,,B8,,,93,JOL,User,1.25,"How likely are you to correctly recall the second item in the pair?|Type your response on a scale from 0-100 and then press Enter.",Bread,B8,1825,,,951,1128,,,,10,1
65aa571b068f34b4c4e2a648,wxnpmo498w,Ex2A_Prolific,1,139,2024-02-27T22:36:12+00:00,2.6794319152832,6,Stim_B.csv,Item.csv,Item,B,yard,,B9,,,94,JOL,User,1.25,"How likely are you to correctly recall the second item in the pair?|Type your response on a scale from 0-100 and then press Enter.",Bread,B9,2202,,,1119,1525,,,,10,1
65aa571b068f34b4c4e2a648,wxnpmo498w,Ex2A_Prolific,1,140,2024-02-27T22:36:15+00:00,3.1999430656433,6,Stim_B.csv,Item.csv,Item,B,kick,,B10,,,95,JOL,User,1.25,"How likely are you to correctly recall the second item in the pair?|Type your response on a scale from 0-100 and then press Enter.",Bread,B10,2271,,,1406,1596,,,,10,1
65aa571b068f34b4c4e2a648,wxnpmo498w,Ex2A_Prolific,1,141,2024-02-27T22:36:18+00:00,3.0403919219971,6,Stim_B.csv,Item.csv,Item,B,knee,,B11,,,96,JOL,User,1.25,"How likely are you to correctly recall the second item in the pair?|Type your response on a scale from 0-100 and then press Enter.",Bread,B11,2575,,,1545,1713,,,,50,1
65aa571b068f34b4c4e2a648,wxnpmo498w,Ex2A_Prolific,1,142,2024-02-27T22:36:25+00:00,7.0182309150696,6,Stim_B.csv,Item.csv,Item,B,walk,,B12,,,97,JOL,User,1.25,"How likely are you to correctly recall the second item in the pair?|Type your response on a scale from 0-100 and then press Enter.",Bread,B12,6169,,,5145,5317,,,,50,0.323
65aa571b068f34b4c4e2a648,wxnpmo498w,Ex2A_Prolific,1,143,2024-02-27T22:36:27+00:00,1.8309080600739,6,Stim_B.csv,Item.csv,Item,B,,,,,,0,Instruct,User,-,"You have completed this section. Please click next.",,Instruct166,1342,,,-1,-1,,,,,1
65aa571b068f34b4c4e2a648,wxnpmo498w,Ex2A_Prolific,1,144,2024-02-27T22:36:58+00:00,30.857521057129,6,Stim_B.csv,Item.csv,Item,B,,,,,,0,FreeRecall,30,30,"Please type as many words as you can that begin with the letter ""K"". The computer will automatically advance to the next screen in 30 seconds.",,FILLER,30003,"toe, ankle, shoe, sandals, hand, knee, walk",0,1273,14905,0,0,,,1
65aa571b068f34b4c4e2a648,wxnpmo498w,Ex2A_Prolific,1,145,2024-02-27T22:37:11+00:00,13.826753854752,6,Stim_B.csv,Item.csv,Item,B,,,,,,0,Instruct,User,-,"You have completed this section. Please click next.",,Instruct166,12892,,,-1,-1,,,,,1
65aa571b068f34b4c4e2a648,wxnpmo498w,Ex2A_Prolific,1,146,2024-02-27T22:37:17+00:00,5.3710951805115,6,Stim_B.csv,Item.csv,Item,B,,,,,,0,Instruct,User,4,"You will now complete a memory test for the words you just studied. Please type as many words from the previous list as you can seperated by a comma. Spelling will not count against you and you can recall the words in any order. This test will be timed for one minute, and the computer will automatically advance once time is up. Click next when you are ready to begin.",,Instruct1666,4469,,,-1,-1,,,,,1
65aa571b068f34b4c4e2a648,wxnpmo498w,Ex2A_Prolific,1,147,2024-02-27T22:38:18+00:00,60.908849954605,6,Stim_B.csv,Item.csv,Item,B,,,,,,0,FreeRecall,60,60,"Please type as many words as you can from the previous study list in any order. Please separate each word with a comma. Spelling will not count against you. This screen will automatically advance in one minute.",,RECALL_Test,60002,"toe, ankle, shoe, sandels, hand, knee, walk, hand, foot, sock, ",0,2089,13002,0,0,,,1
65aa571b068f34b4c4e2a648,wxnpmo498w,Ex2A_Prolific,1,148,2024-02-27T22:38:28+00:00,10.327866077423,6,Stim_B.csv,Item.csv,Item,B,,,,,,0,Instruct,User,3,"You will now be presented with a new study list. Click next when you are ready to begin.",,NEXT_LIST,9468,,,-1,-1,,,,,1
65aa571b068f34b4c4e2a648,wxnpmo498w,Ex2A_Prolific,1,149,2024-02-27T22:38:39+00:00,10.601535797119,6,Stim_B.csv,Item.csv,Item,B,boy,,F1,,,98,JOL,User,1.25,"How likely are you to correctly recall the second item in the pair?|Type your response on a scale from 0-100 and then press Enter.",Flag,F1,9637,,,8789,8939,,,,50,0.592
65aa571b068f34b4c4e2a648,wxnpmo498w,Ex2A_Prolific,1,150,2024-02-27T22:38:42+00:00,3.6229472160339,6,Stim_B.csv,Item.csv,Item,B,dolls,,F2,,,99,JOL,User,1.25,"How likely are you to correctly recall the second item in the pair?|Type your response on a scale from 0-100 and then press Enter.",Flag,F2,2735,,,1893,2063,,,,40,1
65aa571b068f34b4c4e2a648,wxnpmo498w,Ex2A_Prolific,1,151,2024-02-27T22:38:51+00:00,8.3374719619751,6,Stim_B.csv,Item.csv,Item,B,pretty,,F3,,,100,JOL,User,1.25,"How likely are you to correctly recall the second item in the pair?|Type your response on a scale from 0-100 and then press Enter.",Flag,F3,7501,,,6655,6806,,,,30,0.316
65aa571b068f34b4c4e2a648,wxnpmo498w,Ex2A_Prolific,1,152,2024-02-27T22:38:53+00:00,2.8490598201752,6,Stim_B.csv,Item.csv,Item,B,female,,F4,,,101,JOL,User,1.25,"How likely are you to correctly recall the second item in the pair?|Type your response on a scale from 0-100 and then press Enter.",Flag,F4,2385,,,1429,1587,,,,60,1
65aa571b068f34b4c4e2a648,wxnpmo498w,Ex2A_Prolific,1,153,2024-02-27T22:39:00+00:00,6.3246440887451,6,Stim_B.csv,Item.csv,Item,B,dress,,F5,,,102,JOL,User,1.25,"How likely are you to correctly recall the second item in the pair?|Type your response on a scale from 0-100 and then press Enter.",Flag,F5,5417,,,4594,4753,,,,50,0.321
65aa571b068f34b4c4e2a648,wxnpmo498w,Ex2A_Prolific,1,154,2024-02-27T22:39:04+00:00,4.2756130695343,6,Stim_B.csv,Item.csv,Item,B,date,,F6,,,103,JOL,User,1.25,"How likely are you to correctly recall the second item in the pair?|Type your response on a scale from 0-100 and then press Enter.",Flag,F6,3797,,,2752,2855,,,,60,1
65aa571b068f34b4c4e2a648,wxnpmo498w,Ex2A_Prolific,1,155,2024-02-27T22:39:14+00:00,9.5176868438721,6,Stim_B.csv,Item.csv,Item,B,beautiful,,F7,,,104,JOL,User,1.25,"How likely are you to correctly recall the second item in the pair?|Type your response on a scale from 0-100 and then press Enter.",Flag,F7,8663,,,7582,7758,,,,20,0.341
65aa571b068f34b4c4e2a648,wxnpmo498w,Ex2A_Prolific,1,156,2024-02-27T22:39:21+00:00,7.0019431114197,6,Stim_B.csv,Item.csv,Item,B,daughter,,F8,,,105,JOL,User,1.25,"How likely are you to correctly recall the second item in the pair?|Type your response on a scale from 0-100 and then press Enter.",Flag,F8,6164,,,3502,5408,,,,10,0.839
65aa571b068f34b4c4e2a648,wxnpmo498w,Ex2A_Prolific,1,157,2024-02-27T22:39:26+00:00,4.9770829677582,6,Stim_B.csv,Item.csv,Item,B,sister,,F9,,,106,JOL,User,1.25,"How likely are you to correctly recall the second item in the pair?|Type your response on a scale from 0-100 and then press Enter.",Flag,F9,4081,,,3286,3402,,,,40,0.714
65aa571b068f34b4c4e2a648,wxnpmo498w,Ex2A_Prolific,1,158,2024-02-27T22:39:33+00:00,7.7950510978699,6,Stim_B.csv,Item.csv,Item,B,cute,,F10,,,107,JOL,User,1.25,"How likely are you to correctly recall the second item in the pair?|Type your response on a scale from 0-100 and then press Enter.",Flag,F10,6971,,,3130,5239,,,,100,0.686
65aa571b068f34b4c4e2a648,wxnpmo498w,Ex2A_Prolific,1,159,2024-02-27T22:39:40+00:00,6.1416618824005,6,Stim_B.csv,Item.csv,Item,B,niece,,F11,,,108,JOL,User,1.25,"How likely are you to correctly recall the second item in the pair?|Type your response on a scale from 0-100 and then press Enter.",Flag,F11,5250,,,4301,4494,,,,10,0.333
65aa571b068f34b4c4e2a648,wxnpmo498w,Ex2A_Prolific,1,160,2024-02-27T22:39:43+00:00,3.0635290145874,6,Stim_B.csv,Item.csv,Item,B,young,,F12,,,109,JOL,User,1.25,"How likely are you to correctly recall the second item in the pair?|Type your response on a scale from 0-100 and then press Enter.",Flag,F12,2528,,,1139,1312,,,,50,1
65aa571b068f34b4c4e2a648,wxnpmo498w,Ex2A_Prolific,1,161,2024-02-27T22:39:55+00:00,12.557430028915,6,Stim_B.csv,Item.csv,Item,B,,,,,,0,Instruct,User,4,"You have completed this section. Please click next.",,Instruct166,11650,,,-1,-1,,,,,0.068
65aa571b068f34b4c4e2a648,wxnpmo498w,Ex2A_Prolific,1,162,2024-02-27T22:40:26+00:00,30.845499038696,6,Stim_B.csv,Item.csv,Item,B,,,,,,0,FreeRecall,30,30,"Please type as many words as you can that begin with the letter ""M"". The computer will automatically advance to the next screen in 30 seconds.",,FILLER,30001,"boy, girl, sister, pretty, cute, hung, dolls, date, ",0,2704,26735,0,0,,,0.88
65aa571b068f34b4c4e2a648,wxnpmo498w,Ex2A_Prolific,1,163,2024-02-27T22:40:28+00:00,2.2286529541016,6,Stim_B.csv,Item.csv,Item,B,,,,,,0,Instruct,User,-,"You have completed this section. Please click next.",,Instruct166,1716,,,-1,-1,,,,,0.333
65aa571b068f34b4c4e2a648,wxnpmo498w,Ex2A_Prolific,1,164,2024-02-27T22:40:34+00:00,5.4283530712128,6,Stim_B.csv,Item.csv,Item,B,,,,,,0,Instruct,User,4,"You will now complete a memory test for the words you just studied. Please type as many words from the previous list as you can seperated by a comma. Spelling will not count against you and you can recall the words in any order. This test will be timed for one minute, and the computer will automatically advance once time is up. Click next when you are ready to begin.",,Instruct1666,4505,,,-1,-1,,,,,1
65aa571b068f34b4c4e2a648,wxnpmo498w,Ex2A_Prolific,1,165,2024-02-27T22:41:35+00:00,60.867509841919,6,Stim_B.csv,Item.csv,Item,B,,,,,,0,FreeRecall,60,60,"Please type as many words as you can from the previous study list in any order. Please separate each word with a comma. Spelling will not count against you. This screen will automatically advance in one minute.",,RECALL_Test,60003,"boy, girl, sister, female, date, cute, hug, dress, dolls, pretty",0,1220,24454,0,0,,,1
65aa571b068f34b4c4e2a648,wxnpmo498w,Ex2A_Prolific,1,166,2024-02-27T22:41:50+00:00,15.092442989349,6,Stim_B.csv,Item.csv,Item,B,,,,,,0,Instruct,User,3,"You will now be presented with a new study list. Click next when you are ready to begin.",,NEXT_LIST,14136,,,-1,-1,,,,,1
65aa571b068f34b4c4e2a648,wxnpmo498w,Ex2A_Prolific,1,167,2024-02-27T22:42:05+00:00,15.606319189072,6,Stim_B.csv,Item.csv,Item,B,white,,SS1,,,110,JOL,User,1.25,"How likely are you to correctly recall the second item in the pair?|Type your response on a scale from 0-100 and then press Enter.",Shirt,SS1,14646,,,13775,13944,,,,70,0.649
65aa571b068f34b4c4e2a648,wxnpmo498w,Ex2A_Prolific,1,168,2024-02-27T22:42:08+00:00,3.2057600021362,6,Stim_B.csv,Item.csv,Item,B,gray,,SS2,,,111,JOL,User,1.25,"How likely are you to correctly recall the second item in the pair?|Type your response on a scale from 0-100 and then press Enter.",Shirt,SS2,2703,,,1849,1933,,,,70,1
65aa571b068f34b4c4e2a648,wxnpmo498w,Ex2A_Prolific,1,169,2024-02-27T22:42:16+00:00,7.2848629951477,6,Stim_B.csv,Item.csv,Item,B,brown,,SS3,,,112,JOL,User,1.25,"How likely are you to correctly recall the second item in the pair?|Type your response on a scale from 0-100 and then press Enter.",Shirt,SS3,6402,,,4251,5697,,,,60,0.563
65aa571b068f34b4c4e2a648,wxnpmo498w,Ex2A_Prolific,1,170,2024-02-27T22:42:19+00:00,3.0310249328613,6,Stim_B.csv,Item.csv,Item,B,coal,,SS4,,,113,JOL,User,1.25,"How likely are you to correctly recall the second item in the pair?|Type your response on a scale from 0-100 and then press Enter.",Shirt,SS4,2528,,,1158,1299,,,,10,1
65aa571b068f34b4c4e2a648,wxnpmo498w,Ex2A_Prolific,1,171,2024-02-27T22:42:26+00:00,7.4233980178833,6,Stim_B.csv,Item.csv,Item,B,dark,,SS5,,,114,JOL,User,1.25,"How likely are you to correctly recall the second item in the pair?|Type your response on a scale from 0-100 and then press Enter.",Shirt,SS5,6574,,,5617,5807,,,,40,0.242
65aa571b068f34b4c4e2a648,wxnpmo498w,Ex2A_Prolific,1,172,2024-02-27T22:42:32+00:00,5.7555730342865,6,Stim_B.csv,Item.csv,Item,B,color,,SS6,,,115,JOL,User,1.25,"How likely are you to correctly recall the second item in the pair?|Type your response on a scale from 0-100 and then press Enter.",Shirt,SS6,4868,,,3407,3774,,,,80,0.44
65aa571b068f34b4c4e2a648,wxnpmo498w,Ex2A_Prolific,1,173,2024-02-27T22:42:35+00:00,3.2424190044403,6,Stim_B.csv,Item.csv,Item,B,funeral,,SS7,,,116,JOL,User,1.25,"How likely are you to correctly recall the second item in the pair?|Type your response on a scale from 0-100 and then press Enter.",Shirt,SS7,2388,,,1181,1327,,,,10,1
65aa571b068f34b4c4e2a648,wxnpmo498w,Ex2A_Prolific,1,174,2024-02-27T22:42:40+00:00,4.4398989677429,6,Stim_B.csv,Item.csv,Item,B,blue,,SS8,,,117,JOL,User,1.25,"How likely are you to correctly recall the second item in the pair?|Type your response on a scale from 0-100 and then press Enter.",Shirt,SS8,3540,,,2167,2498,,,,60,1
65aa571b068f34b4c4e2a648,wxnpmo498w,Ex2A_Prolific,1,175,2024-02-27T22:42:43+00:00,3.7716958522797,6,Stim_B.csv,Item.csv,Item,B,charred,,SS9,,,118,JOL,User,1.25,"How likely are you to correctly recall the second item in the pair?|Type your response on a scale from 0-100 and then press Enter.",Shirt,SS9,3259,,,2355,2565,,,,10,0.412
65aa571b068f34b4c4e2a648,wxnpmo498w,Ex2A_Prolific,1,176,2024-02-27T22:42:47+00:00,3.6735801696777,6,Stim_B.csv,Item.csv,Item,B,ink,,SS10,,,119,JOL,User,1.25,"How likely are you to correctly recall the second item in the pair?|Type your response on a scale from 0-100 and then press Enter.",Shirt,SS10,2807,,,1847,2160,,,,40,1
65aa571b068f34b4c4e2a648,wxnpmo498w,Ex2A_Prolific,1,177,2024-02-27T22:42:51+00:00,4.0548069477081,6,Stim_B.csv,Item.csv,Item,B,death,,SS11,,,120,JOL,User,1.25,"How likely are you to correctly recall the second item in the pair?|Type your response on a scale from 0-100 and then press Enter.",Shirt,SS11,3200,,,2115,2363,,,,10,0.438
65aa571b068f34b4c4e2a648,wxnpmo498w,Ex2A_Prolific,1,178,2024-02-27T22:42:55+00:00,3.9556601047516,6,Stim_B.csv,Item.csv,Item,B,cat,,SS12,,,121,JOL,User,1.25,"How likely are you to correctly recall the second item in the pair?|Type your response on a scale from 0-100 and then press Enter.",Shirt,SS12,3105,,,2286,2434,,,,40,0.5
65aa571b068f34b4c4e2a648,wxnpmo498w,Ex2A_Prolific,1,179,2024-02-27T22:42:59+00:00,3.8738639354706,6,Stim_B.csv,Item.csv,Item,B,,,,,,0,Instruct,User,-,"You have completed this section. Please click next.",,Instruct166,3405,,,-1,-1,,,,,0.222
65aa571b068f34b4c4e2a648,wxnpmo498w,Ex2A_Prolific,1,180,2024-02-27T22:43:30+00:00,30.852669000626,6,Stim_B.csv,Item.csv,Item,B,,,,,,0,FreeRecall,30,30,"Please type as many words as you can that begin with the letter ""M"". The computer will automatically advance to the next screen in 30 seconds.",,FILLER,30002,"death, funeral, white, dark, black, brown, blue, gray, color, cat",0,1128,28822,0,0,,,1
65aa571b068f34b4c4e2a648,wxnpmo498w,Ex2A_Prolific,1,181,2024-02-27T22:43:31+00:00,1.5199520587921,6,Stim_B.csv,Item.csv,Item,B,,,,,,0,Instruct,User,-,"You have completed this section. Please click next.",,Instruct166,1037,,,-1,-1,,,,,1
65aa571b068f34b4c4e2a648,wxnpmo498w,Ex2A_Prolific,1,182,2024-02-27T22:43:37+00:00,5.3447108268738,6,Stim_B.csv,Item.csv,Item,B,,,,,,0,Instruct,User,4,"You will now complete a memory test for the words you just studied. Please type as many words from the previous list as you can seperated by a comma. Spelling will not count against you and you can recall the words in any order. This test will be timed for one minute, and the computer will automatically advance once time is up. Click next when you are ready to begin.",,Instruct1666,4425,,,-1,-1,,,,,1
65aa571b068f34b4c4e2a648,wxnpmo498w,Ex2A_Prolific,1,183,2024-02-27T22:44:38+00:00,60.867063999176,6,Stim_B.csv,Item.csv,Item,B,,,,,,0,FreeRecall,60,60,"Please type as many words as you can from the previous study list in any order. Please separate each word with a comma. Spelling will not count against you. This screen will automatically advance in one minute.",,RECALL_Test,60003,"death, funeral, white, dark, black, brown, blue, gray, color, cat, ink, dark, ",0,1770,20550,0,0,,,0.363
65aa571b068f34b4c4e2a648,wxnpmo498w,Ex2A_Prolific,1,184,2024-02-27T22:44:43+00:00,5.0414190292358,6,Stim_B.csv,Item.csv,Item,B,,,,,,0,Instruct,User,-,"You have completed this section. Please click next.",,Instruct7,4105,,,-1,-1,,,,,0.143
65aa571b068f34b4c4e2a648,wxnpmo498w,Ex2A_Prolific,1,185,2024-02-27T22:44:44+00:00,1.3224999904633,6,Stim_B.csv,Item.csv,Item,B,,,,,,0,Instruct,User,-,"The following screen will ask you a few questions abour your experience today. You must complete these questions to receive credit.",,Instruct8,816,,,-1,-1,,,,,1
