Username,ID,ExperimentName,Session,Trial,Date,TimeDif,"Condition Number","Stimuli File","Order File","Condition Description","Condition Notes",Stimuli*Cue,Stimuli*Answer,Stimuli*Shuffle,"Stimuli*Stimuli Notes",Stimuli*Value,Procedure*Item,"Procedure*Trial Type","Procedure*Max Time","Procedure*Min Time",Procedure*Text,"Procedure*Procedure Notes",Procedure*Shuffle,Response*RT,Response*Response,Response*Accuracy,Response*RTfirst,Response*RTlast,Response*strictAcc,Response*lenientAcc,Response*focus,Response*JOL,Response*Focus
60f329e791509f40c74a87ad,7ml272oue2,Ex2A_Prolific,1,1,2024-02-27T23:59:36+00:00,6.1955590248108,6,Stim_B.csv,Item.csv,Item,B,,,,,,0,Instruct,-,5,"In this section, you will be presented with a series of words. Please study each word carefully. Your memory will be tested!",Initial_Instruct,Instruct1,6027,,,-1,-1,,,,,1
60f329e791509f40c74a87ad,7ml272oue2,Ex2A_Prolific,1,2,2024-02-27T23:59:44+00:00,8.6836531162262,6,Stim_B.csv,Item.csv,Item,B,,,,,,0,Instruct,-,5,"As you study, you will be asked to rate your ability to remember each item on a later memory test using a 0-100 scale. For example, if you study the word DOG, a rating of 0 indicates that you would not remember DOG at test, while a rating of 100 indicates full certainty that you would remember the word DOG at test.",,Instruct13,8395,,,-1,-1,,,,,1
60f329e791509f40c74a87ad,7ml272oue2,Ex2A_Prolific,1,3,2024-02-27T23:59:56+00:00,11.315078020096,6,Stim_B.csv,Item.csv,Item,B,,,,,,0,Instruct,-,10,"When making your ratings, it is criticial that you use the full range of the scale. You will be disqualified for only giving ratings of 0 or 100!",,Instruct15,11021,,,-1,-1,,,,,1
60f329e791509f40c74a87ad,7ml272oue2,Ex2A_Prolific,1,4,2024-02-27T23:59:57+00:00,1.552433013916,6,Stim_B.csv,Item.csv,Item,B,,,,,,0,Instruct,User,-,"You will now begin the study. Click next when you are ready to begin.",,Instruct16,1262,,,-1,-1,,,,,1
60f329e791509f40c74a87ad,7ml272oue2,Ex2A_Prolific,1,5,2024-02-28T00:00:10+00:00,13.249660015106,6,Stim_B.csv,Item.csv,Item,B,aroma,,Win_1,,,2,JOL,User,1.25,"How likely are you to correctly recall the second item in the pair?|Type your response on a scale from 0-100 and then press Enter.",Window,Win_1,12962,,,11795,11937,,,,80,1
60f329e791509f40c74a87ad,7ml272oue2,Ex2A_Prolific,1,6,2024-02-28T00:00:18+00:00,7.5824699401855,6,Stim_B.csv,Item.csv,Item,B,scent,,Win_2,,,3,JOL,User,1.25,"How likely are you to correctly recall the second item in the pair?|Type your response on a scale from 0-100 and then press Enter.",Window,Win_2,7292,,,6781,6980,,,,75,1
60f329e791509f40c74a87ad,7ml272oue2,Ex2A_Prolific,1,7,2024-02-28T00:00:24+00:00,6.3766670227051,6,Stim_B.csv,Item.csv,Item,B,whiff,,Win_3,,,4,JOL,User,1.25,"How likely are you to correctly recall the second item in the pair?|Type your response on a scale from 0-100 and then press Enter.",Window,Win_3,6088,,,5537,5792,,,,75,1
60f329e791509f40c74a87ad,7ml272oue2,Ex2A_Prolific,1,8,2024-02-28T00:00:29+00:00,4.3432250022888,6,Stim_B.csv,Item.csv,Item,B,stench,,Win_4,,,5,JOL,User,1.25,"How likely are you to correctly recall the second item in the pair?|Type your response on a scale from 0-100 and then press Enter.",Window,Win_4,4054,,,3710,3797,,,,70,1
60f329e791509f40c74a87ad,7ml272oue2,Ex2A_Prolific,1,9,2024-02-28T00:00:32+00:00,2.9696869850159,6,Stim_B.csv,Item.csv,Item,B,reek,,Win_5,,,6,JOL,User,1.25,"How likely are you to correctly recall the second item in the pair?|Type your response on a scale from 0-100 and then press Enter.",Window,Win_5,2679,,,2192,2326,,,,80,1
60f329e791509f40c74a87ad,7ml272oue2,Ex2A_Prolific,1,10,2024-02-28T00:00:35+00:00,3.2440149784088,6,Stim_B.csv,Item.csv,Item,B,sniff,,Win_6,,,7,JOL,User,1.25,"How likely are you to correctly recall the second item in the pair?|Type your response on a scale from 0-100 and then press Enter.",Window,Win_6,2956,,,2540,2659,,,,70,1
60f329e791509f40c74a87ad,7ml272oue2,Ex2A_Prolific,1,11,2024-02-28T00:00:38+00:00,3.1279399394989,6,Stim_B.csv,Item.csv,Item,B,perfume,,Win_7,,,8,JOL,User,1.25,"How likely are you to correctly recall the second item in the pair?|Type your response on a scale from 0-100 and then press Enter.",Window,Win_7,2842,,,2450,2562,,,,50,1
60f329e791509f40c74a87ad,7ml272oue2,Ex2A_Prolific,1,12,2024-02-28T00:00:40+00:00,2.3390200138092,6,Stim_B.csv,Item.csv,Item,B,fragrance,,Win_8,,,9,JOL,User,1.25,"How likely are you to correctly recall the second item in the pair?|Type your response on a scale from 0-100 and then press Enter.",Window,Win_8,2050,,,1722,1802,,,,50,1
60f329e791509f40c74a87ad,7ml272oue2,Ex2A_Prolific,1,13,2024-02-28T00:00:46+00:00,5.2233319282532,6,Stim_B.csv,Item.csv,Item,B,nose,,Win_9,,,10,JOL,User,1.25,"How likely are you to correctly recall the second item in the pair?|Type your response on a scale from 0-100 and then press Enter.",Window,Win_9,4941,,,4534,4645,,,,70,1
60f329e791509f40c74a87ad,7ml272oue2,Ex2A_Prolific,1,14,2024-02-28T00:00:50+00:00,3.9196691513062,6,Stim_B.csv,Item.csv,Item,B,rose,,Win_10,,,11,JOL,User,1.25,"How likely are you to correctly recall the second item in the pair?|Type your response on a scale from 0-100 and then press Enter.",Window,Win_10,3631,,,3223,3359,,,,70,1
60f329e791509f40c74a87ad,7ml272oue2,Ex2A_Prolific,1,15,2024-02-28T00:00:53+00:00,3.1512038707733,6,Stim_B.csv,Item.csv,Item,B,salts,,Win_11,,,12,JOL,User,1.25,"How likely are you to correctly recall the second item in the pair?|Type your response on a scale from 0-100 and then press Enter.",Window,Win_11,2866,,,2217,2546,,,,45,1
60f329e791509f40c74a87ad,7ml272oue2,Ex2A_Prolific,1,16,2024-02-28T00:00:57+00:00,4.3466880321503,6,Stim_B.csv,Item.csv,Item,B,breathe,,Win_12,,,13,JOL,User,1.25,"How likely are you to correctly recall the second item in the pair?|Type your response on a scale from 0-100 and then press Enter.",Window,Win_12,4061,,,3683,3804,,,,70,1
60f329e791509f40c74a87ad,7ml272oue2,Ex2A_Prolific,1,17,2024-02-28T00:00:59+00:00,2.241259098053,6,Stim_B.csv,Item.csv,Item,B,,,,,,0,Instruct,User,-,"You have completed this section. Please click next.",,Instruct166,1951,,,-1,-1,,,,,1
60f329e791509f40c74a87ad,7ml272oue2,Ex2A_Prolific,1,18,2024-02-28T00:01:30+00:00,30.297994852066,6,Stim_B.csv,Item.csv,Item,B,,,,,,0,FreeRecall,30,30,"Please type as many words as you can that begin with the letter ""K"". The computer will automatically advance to the next screen in 30 seconds.",,FILLER,30002,"knob knit know knight kick kicking kid kitsch ",0,4294,24366,0,0,,,1
60f329e791509f40c74a87ad,7ml272oue2,Ex2A_Prolific,1,19,2024-02-28T00:01:34+00:00,4.6214110851288,6,Stim_B.csv,Item.csv,Item,B,,,,,,0,Instruct,User,4,"You have completed this section. Please click next.",,Instruct166,4332,,,-1,-1,,,,,1
60f329e791509f40c74a87ad,7ml272oue2,Ex2A_Prolific,1,20,2024-02-28T00:01:44+00:00,10.253554105759,6,Stim_B.csv,Item.csv,Item,B,,,,,,0,Instruct,User,4,"You will now complete a memory test for the words you just studied. Please type as many words from the previous list as you can seperated by a comma. Spelling will not count against you and you can recall the words in any order. This test will be timed for one minute, and the computer will automatically advance once time is up. Click next when you are ready to begin.",,Instruct1666,9961,,,-1,-1,,,,,1
60f329e791509f40c74a87ad,7ml272oue2,Ex2A_Prolific,1,21,2024-02-28T00:02:45+00:00,60.298763990402,6,Stim_B.csv,Item.csv,Item,B,,,,,,0,FreeRecall,60,60,"Please type as many words as you can from the previous study list in any order. Please separate each word with a comma. Spelling will not count against you. This screen will automatically advance in one minute.",,RECALL_Test,60001,"nose, rose, aroma, sniff, whiff, perfume, fragrance, stench, reek, ",0,869,44067,0,0,,,1
60f329e791509f40c74a87ad,7ml272oue2,Ex2A_Prolific,1,22,2024-02-28T00:02:49+00:00,4.3501398563385,6,Stim_B.csv,Item.csv,Item,B,,,,,,0,Instruct,User,3,"You will now be presented with a new study list. Click next when you are ready to begin.",,NEXT_LIST,4058,,,-1,-1,,,,,1
60f329e791509f40c74a87ad,7ml272oue2,Ex2A_Prolific,1,23,2024-02-28T00:02:52+00:00,3.2952611446381,6,Stim_B.csv,Item.csv,Item,B,hard,,R1,,,14,JOL,User,1.25,"How likely are you to correctly recall the second item in the pair?|Type your response on a scale from 0-100 and then press Enter.",Rough,R1,3003,,,2509,2772,,,,75,1
60f329e791509f40c74a87ad,7ml272oue2,Ex2A_Prolific,1,24,2024-02-28T00:02:55+00:00,2.8168649673462,6,Stim_B.csv,Item.csv,Item,B,loud,,R2,,,15,JOL,User,1.25,"How likely are you to correctly recall the second item in the pair?|Type your response on a scale from 0-100 and then press Enter.",Rough,R2,2532,,,1820,2100,,,,75,1
60f329e791509f40c74a87ad,7ml272oue2,Ex2A_Prolific,1,25,2024-02-28T00:02:59+00:00,3.4568159580231,6,Stim_B.csv,Item.csv,Item,B,tender,,R3,,,16,JOL,User,1.25,"How likely are you to correctly recall the second item in the pair?|Type your response on a scale from 0-100 and then press Enter.",Rough,R3,3163,,,2746,2922,,,,70,1
60f329e791509f40c74a87ad,7ml272oue2,Ex2A_Prolific,1,26,2024-02-28T00:03:01+00:00,2.4891259670258,6,Stim_B.csv,Item.csv,Item,B,fluffy,,R4,,,17,JOL,User,1.25,"How likely are you to correctly recall the second item in the pair?|Type your response on a scale from 0-100 and then press Enter.",Rough,R4,2192,,,1807,1928,,,,70,1
60f329e791509f40c74a87ad,7ml272oue2,Ex2A_Prolific,1,27,2024-02-28T00:03:07+00:00,6.1163330078125,6,Stim_B.csv,Item.csv,Item,B,pillow,,R5,,,18,JOL,User,1.25,"How likely are you to correctly recall the second item in the pair?|Type your response on a scale from 0-100 and then press Enter.",Rough,R5,5824,,,4745,4992,,,,66,1
60f329e791509f40c74a87ad,7ml272oue2,Ex2A_Prolific,1,28,2024-02-28T00:03:13+00:00,5.2191278934479,6,Stim_B.csv,Item.csv,Item,B,downy,,R6,,,19,JOL,User,1.25,"How likely are you to correctly recall the second item in the pair?|Type your response on a scale from 0-100 and then press Enter.",Rough,R6,4930,,,2266,4666,,,,60,1
60f329e791509f40c74a87ad,7ml272oue2,Ex2A_Prolific,1,29,2024-02-28T00:03:16+00:00,3.4855070114136,6,Stim_B.csv,Item.csv,Item,B,plush,,R7,,,20,JOL,User,1.25,"How likely are you to correctly recall the second item in the pair?|Type your response on a scale from 0-100 and then press Enter.",Rough,R7,3197,,,2725,2957,,,,45,1
60f329e791509f40c74a87ad,7ml272oue2,Ex2A_Prolific,1,30,2024-02-28T00:03:18+00:00,2.4240641593933,6,Stim_B.csv,Item.csv,Item,B,cotton,,R8,,,21,JOL,User,1.25,"How likely are you to correctly recall the second item in the pair?|Type your response on a scale from 0-100 and then press Enter.",Rough,R8,2135,,,1711,1910,,,,45,1
60f329e791509f40c74a87ad,7ml272oue2,Ex2A_Prolific,1,31,2024-02-28T00:03:21+00:00,2.4955048561096,6,Stim_B.csv,Item.csv,Item,B,skin,,R9,,,22,JOL,User,1.25,"How likely are you to correctly recall the second item in the pair?|Type your response on a scale from 0-100 and then press Enter.",Rough,R9,2208,,,1527,1824,,,,45,1
60f329e791509f40c74a87ad,7ml272oue2,Ex2A_Prolific,1,32,2024-02-28T00:03:24+00:00,3.2662930488586,6,Stim_B.csv,Item.csv,Item,B,fur,,R10,,,23,JOL,User,1.25,"How likely are you to correctly recall the second item in the pair?|Type your response on a scale from 0-100 and then press Enter.",Rough,R10,2974,,,2462,2718,,,,50,1
60f329e791509f40c74a87ad,7ml272oue2,Ex2A_Prolific,1,33,2024-02-28T00:03:28+00:00,4.2316811084747,6,Stim_B.csv,Item.csv,Item,B,touch,,R11,,,24,JOL,User,1.25,"How likely are you to correctly recall the second item in the pair?|Type your response on a scale from 0-100 and then press Enter.",Rough,R11,3940,,,2068,2300,,,,45,1
60f329e791509f40c74a87ad,7ml272oue2,Ex2A_Prolific,1,34,2024-02-28T00:03:31+00:00,2.8305740356445,6,Stim_B.csv,Item.csv,Item,B,furry,,R12,,,25,JOL,User,1.25,"How likely are you to correctly recall the second item in the pair?|Type your response on a scale from 0-100 and then press Enter.",Rough,R12,2540,,,1741,2061,,,,45,1
60f329e791509f40c74a87ad,7ml272oue2,Ex2A_Prolific,1,35,2024-02-28T00:03:33+00:00,2.0614628791809,6,Stim_B.csv,Item.csv,Item,B,,,,,,0,Instruct,User,-,"You have completed this section. Please click next.",,Instruct166,1778,,,-1,-1,,,,,1
60f329e791509f40c74a87ad,7ml272oue2,Ex2A_Prolific,1,36,2024-02-28T00:04:04+00:00,30.3282289505,6,Stim_B.csv,Item.csv,Item,B,,,,,,0,FreeRecall,30,30,"Please type as many words as you can that begin with the letter ""C"". The computer will automatically advance to the next screen in 30 seconds.",,FILLER,30000,"captain come clutch cute cotton cosy comma comic cosmic ",0,2443,29826,0,0,,,1
60f329e791509f40c74a87ad,7ml272oue2,Ex2A_Prolific,1,37,2024-02-28T00:04:06+00:00,2.4264099597931,6,Stim_B.csv,Item.csv,Item,B,,,,,,0,Instruct,User,-,"You have completed this section. Please click next.",,Instruct166,2131,,,-1,-1,,,,,1
60f329e791509f40c74a87ad,7ml272oue2,Ex2A_Prolific,1,38,2024-02-28T00:04:11+00:00,4.7807919979095,6,Stim_B.csv,Item.csv,Item,B,,,,,,0,Instruct,User,4,"You will now complete a memory test for the words you just studied. Please type as many words from the previous list as you can seperated by a comma. Spelling will not count against you and you can recall the words in any order. This test will be timed for one minute, and the computer will automatically advance once time is up. Click next when you are ready to begin.",,Instruct1666,4488,,,-1,-1,,,,,1
60f329e791509f40c74a87ad,7ml272oue2,Ex2A_Prolific,1,39,2024-02-28T00:05:11+00:00,60.296008110046,6,Stim_B.csv,Item.csv,Item,B,,,,,,0,FreeRecall,60,60,"Please type as many words as you can from the previous study list in any order. Please separate each word with a comma. Spelling will not count against you. This screen will automatically advance in one minute.",,RECALL_Test,60004,"hard, loud, tender, fluffy, pillow, skin, furry, ",0,456,22415,0,0,,,1
60f329e791509f40c74a87ad,7ml272oue2,Ex2A_Prolific,1,40,2024-02-28T00:05:15+00:00,3.8790769577026,6,Stim_B.csv,Item.csv,Item,B,,,,,,0,Instruct,User,3,"You will now be presented with a new study list. Click next when you are ready to begin.",,NEXT_LIST,3593,,,-1,-1,,,,,1
60f329e791509f40c74a87ad,7ml272oue2,Ex2A_Prolific,1,41,2024-02-28T00:05:19+00:00,3.5780611038208,6,Stim_B.csv,Item.csv,Item,B,honey,,A1,,,26,JOL,User,1.25,"How likely are you to correctly recall the second item in the pair?|Type your response on a scale from 0-100 and then press Enter.",Anger,A1,3290,,,2708,2827,,,,80,1
60f329e791509f40c74a87ad,7ml272oue2,Ex2A_Prolific,1,42,2024-02-28T00:05:21+00:00,2.4006328582764,6,Stim_B.csv,Item.csv,Item,B,bitter,,A2,,,27,JOL,User,1.25,"How likely are you to correctly recall the second item in the pair?|Type your response on a scale from 0-100 and then press Enter.",Anger,A2,2113,,,1689,1825,,,,80,1
60f329e791509f40c74a87ad,7ml272oue2,Ex2A_Prolific,1,43,2024-02-28T00:05:23+00:00,2.2283799648285,6,Stim_B.csv,Item.csv,Item,B,sugar,,A3,,,28,JOL,User,1.25,"How likely are you to correctly recall the second item in the pair?|Type your response on a scale from 0-100 and then press Enter.",Anger,A3,1936,,,1521,1664,,,,70,1
60f329e791509f40c74a87ad,7ml272oue2,Ex2A_Prolific,1,44,2024-02-28T00:05:25+00:00,2.0457420349121,6,Stim_B.csv,Item.csv,Item,B,sour,,A4,,,29,JOL,User,1.25,"How likely are you to correctly recall the second item in the pair?|Type your response on a scale from 0-100 and then press Enter.",Anger,A4,1756,,,1164,1292,,,,70,1
60f329e791509f40c74a87ad,7ml272oue2,Ex2A_Prolific,1,45,2024-02-28T00:05:29+00:00,3.8015360832214,6,Stim_B.csv,Item.csv,Item,B,candy,,A5,,,30,JOL,User,1.25,"How likely are you to correctly recall the second item in the pair?|Type your response on a scale from 0-100 and then press Enter.",Anger,A5,3510,,,2816,2910,,,,80,1
60f329e791509f40c74a87ad,7ml272oue2,Ex2A_Prolific,1,46,2024-02-28T00:05:32+00:00,3.1339800357819,6,Stim_B.csv,Item.csv,Item,B,tart,,A6,,,31,JOL,User,1.25,"How likely are you to correctly recall the second item in the pair?|Type your response on a scale from 0-100 and then press Enter.",Anger,A6,2842,,,2362,2594,,,,70,1
60f329e791509f40c74a87ad,7ml272oue2,Ex2A_Prolific,1,47,2024-02-28T00:05:36+00:00,3.9298708438873,6,Stim_B.csv,Item.csv,Item,B,chocolate,,A7,,,32,JOL,User,1.25,"How likely are you to correctly recall the second item in the pair?|Type your response on a scale from 0-100 and then press Enter.",Anger,A7,3635,,,3219,3474,,,,70,1
60f329e791509f40c74a87ad,7ml272oue2,Ex2A_Prolific,1,48,2024-02-28T00:05:39+00:00,2.7683820724487,6,Stim_B.csv,Item.csv,Item,B,nice,,A8,,,33,JOL,User,1.25,"How likely are you to correctly recall the second item in the pair?|Type your response on a scale from 0-100 and then press Enter.",Anger,A8,2472,,,2087,2240,,,,50,1
60f329e791509f40c74a87ad,7ml272oue2,Ex2A_Prolific,1,49,2024-02-28T00:05:41+00:00,2.0528559684753,6,Stim_B.csv,Item.csv,Item,B,taste,,A9,,,34,JOL,User,1.25,"How likely are you to correctly recall the second item in the pair?|Type your response on a scale from 0-100 and then press Enter.",Anger,A9,1764,,,1109,1245,,,,50,1
60f329e791509f40c74a87ad,7ml272oue2,Ex2A_Prolific,1,50,2024-02-28T00:05:43+00:00,2.4997091293335,6,Stim_B.csv,Item.csv,Item,B,cake,,A10,,,35,JOL,User,1.25,"How likely are you to correctly recall the second item in the pair?|Type your response on a scale from 0-100 and then press Enter.",Anger,A10,2184,,,1759,1879,,,,50,1
60f329e791509f40c74a87ad,7ml272oue2,Ex2A_Prolific,1,51,2024-02-28T00:05:48+00:00,4.1014978885651,6,Stim_B.csv,Item.csv,Item,B,good,,A11,,,36,JOL,User,1.25,"How likely are you to correctly recall the second item in the pair?|Type your response on a scale from 0-100 and then press Enter.",Anger,A11,3813,,,2525,2621,,,,50,1
60f329e791509f40c74a87ad,7ml272oue2,Ex2A_Prolific,1,52,2024-02-28T00:05:50+00:00,2.544007062912,6,Stim_B.csv,Item.csv,Item,B,tooth,,A12,,,37,JOL,User,1.25,"How likely are you to correctly recall the second item in the pair?|Type your response on a scale from 0-100 and then press Enter.",Anger,A12,2253,,,1813,1949,,,,70,1
60f329e791509f40c74a87ad,7ml272oue2,Ex2A_Prolific,1,53,2024-02-28T00:05:55+00:00,5.1675810813904,6,Stim_B.csv,Item.csv,Item,B,,,,,,0,Instruct,User,4,"You have completed this section. Please click next.",,Instruct166,4873,,,-1,-1,,,,,1
60f329e791509f40c74a87ad,7ml272oue2,Ex2A_Prolific,1,54,2024-02-28T00:06:26+00:00,30.299817800522,6,Stim_B.csv,Item.csv,Item,B,,,,,,0,FreeRecall,30,30,"Please type as many words as you can that begin with the letter ""W"". The computer will automatically advance to the next screen in 30 seconds.",,FILLER,30004,"word wake wimp worm why where when what who white woke would wood woman w",0,1820,30002,0,0,,,1
60f329e791509f40c74a87ad,7ml272oue2,Ex2A_Prolific,1,55,2024-02-28T00:06:28+00:00,1.9308931827545,6,Stim_B.csv,Item.csv,Item,B,,,,,,0,Instruct,User,-,"You have completed this section. Please click next.",,Instruct166,1639,,,-1,-1,,,,,1
60f329e791509f40c74a87ad,7ml272oue2,Ex2A_Prolific,1,56,2024-02-28T00:06:32+00:00,4.8188238143921,6,Stim_B.csv,Item.csv,Item,B,,,,,,0,Instruct,User,4,"You will now complete a memory test for the words you just studied. Please type as many words from the previous list as you can seperated by a comma. Spelling will not count against you and you can recall the words in any order. This test will be timed for one minute, and the computer will automatically advance once time is up. Click next when you are ready to begin.",,Instruct1666,4522,,,-1,-1,,,,,1
60f329e791509f40c74a87ad,7ml272oue2,Ex2A_Prolific,1,57,2024-02-28T00:07:33+00:00,60.299141168594,6,Stim_B.csv,Item.csv,Item,B,,,,,,0,FreeRecall,60,60,"Please type as many words as you can from the previous study list in any order. Please separate each word with a comma. Spelling will not count against you. This screen will automatically advance in one minute.",,RECALL_Test,60001,"tooth, cake, honey, sweet, sour, bitter, taste, sugar, candy,",0,908,43914,0,0,,,1
60f329e791509f40c74a87ad,7ml272oue2,Ex2A_Prolific,1,58,2024-02-28T00:07:36+00:00,3.8544158935547,6,Stim_B.csv,Item.csv,Item,B,,,,,,0,Instruct,User,3,"You will now be presented with a new study list. Click next when you are ready to begin.",,NEXT_LIST,3568,,,-1,-1,,,,,1
60f329e791509f40c74a87ad,7ml272oue2,Ex2A_Prolific,1,59,2024-02-28T00:07:40+00:00,3.4880311489105,6,Stim_B.csv,Item.csv,Item,B,table,,T1,,,38,JOL,User,1.25,"How likely are you to correctly recall the second item in the pair?|Type your response on a scale from 0-100 and then press Enter.",Trash,T1,3104,,,2655,2808,,,,80,1
60f329e791509f40c74a87ad,7ml272oue2,Ex2A_Prolific,1,60,2024-02-28T00:07:43+00:00,2.8135278224945,6,Stim_B.csv,Item.csv,Item,B,swivel,,T2,,,39,JOL,User,1.25,"How likely are you to correctly recall the second item in the pair?|Type your response on a scale from 0-100 and then press Enter.",Trash,T2,2524,,,2069,2196,,,,70,1
60f329e791509f40c74a87ad,7ml272oue2,Ex2A_Prolific,1,61,2024-02-28T00:07:46+00:00,3.5588200092316,6,Stim_B.csv,Item.csv,Item,B,rocking,,T3,,,40,JOL,User,1.25,"How likely are you to correctly recall the second item in the pair?|Type your response on a scale from 0-100 and then press Enter.",Trash,T3,3269,,,2421,2605,,,,70,1
60f329e791509f40c74a87ad,7ml272oue2,Ex2A_Prolific,1,62,2024-02-28T00:07:49+00:00,2.9353749752045,6,Stim_B.csv,Item.csv,Item,B,recliner,,T4,,,41,JOL,User,1.25,"How likely are you to correctly recall the second item in the pair?|Type your response on a scale from 0-100 and then press Enter.",Trash,T4,2644,,,1909,2068,,,,70,1
60f329e791509f40c74a87ad,7ml272oue2,Ex2A_Prolific,1,63,2024-02-28T00:07:52+00:00,2.6360721588135,6,Stim_B.csv,Item.csv,Item,B,seat,,T5,,,42,JOL,User,1.25,"How likely are you to correctly recall the second item in the pair?|Type your response on a scale from 0-100 and then press Enter.",Trash,T5,2343,,,1840,1967,,,,70,1
60f329e791509f40c74a87ad,7ml272oue2,Ex2A_Prolific,1,64,2024-02-28T00:08:01+00:00,9.0400550365448,6,Stim_B.csv,Item.csv,Item,B,stool,,T6,,,43,JOL,User,1.25,"How likely are you to correctly recall the second item in the pair?|Type your response on a scale from 0-100 and then press Enter.",Trash,T6,8744,,,8265,8431,,,,60,1
60f329e791509f40c74a87ad,7ml272oue2,Ex2A_Prolific,1,65,2024-02-28T00:08:04+00:00,2.7299168109894,6,Stim_B.csv,Item.csv,Item,B,desk,,T7,,,44,JOL,User,1.25,"How likely are you to correctly recall the second item in the pair?|Type your response on a scale from 0-100 and then press Enter.",Trash,T7,2342,,,1886,2046,,,,60,1
60f329e791509f40c74a87ad,7ml272oue2,Ex2A_Prolific,1,66,2024-02-28T00:08:06+00:00,2.5634021759033,6,Stim_B.csv,Item.csv,Item,B,couch,,T8,,,45,JOL,User,1.25,"How likely are you to correctly recall the second item in the pair?|Type your response on a scale from 0-100 and then press Enter.",Trash,T8,2271,,,1631,1742,,,,60,1
60f329e791509f40c74a87ad,7ml272oue2,Ex2A_Prolific,1,67,2024-02-28T00:08:09+00:00,3.0325989723206,6,Stim_B.csv,Item.csv,Item,B,sit,,T9,,,46,JOL,User,1.25,"How likely are you to correctly recall the second item in the pair?|Type your response on a scale from 0-100 and then press Enter.",Trash,T9,2740,,,2236,2348,,,,50,1
60f329e791509f40c74a87ad,7ml272oue2,Ex2A_Prolific,1,68,2024-02-28T00:08:11+00:00,1.934506893158,6,Stim_B.csv,Item.csv,Item,B,sofa,,T10,,,47,JOL,User,1.25,"How likely are you to correctly recall the second item in the pair?|Type your response on a scale from 0-100 and then press Enter.",Trash,T10,1645,,,1086,1269,,,,50,1
60f329e791509f40c74a87ad,7ml272oue2,Ex2A_Prolific,1,69,2024-02-28T00:08:14+00:00,2.5298309326172,6,Stim_B.csv,Item.csv,Item,B,bench,,T11,,,48,JOL,User,1.25,"How likely are you to correctly recall the second item in the pair?|Type your response on a scale from 0-100 and then press Enter.",Trash,T11,2237,,,1838,1966,,,,60,1
60f329e791509f40c74a87ad,7ml272oue2,Ex2A_Prolific,1,70,2024-02-28T00:08:20+00:00,6.0155050754547,6,Stim_B.csv,Item.csv,Item,B,sitting,,T12,,,49,JOL,User,1.25,"How likely are you to correctly recall the second item in the pair?|Type your response on a scale from 0-100 and then press Enter.",Trash,T12,5728,,,5048,5200,,,,60,1
60f329e791509f40c74a87ad,7ml272oue2,Ex2A_Prolific,1,71,2024-02-28T00:08:25+00:00,5.2467660903931,6,Stim_B.csv,Item.csv,Item,B,,,,,,0,Instruct,User,4,"You have completed this section. Please click next.",,Instruct166,4948,,,-1,-1,,,,,1
60f329e791509f40c74a87ad,7ml272oue2,Ex2A_Prolific,1,72,2024-02-28T00:08:55+00:00,30.297431945801,6,Stim_B.csv,Item.csv,Item,B,,,,,,0,FreeRecall,30,30,"Please type as many words as you can that begin with the letter ""S"". The computer will automatically advance to the next screen in 30 seconds.",,FILLER,30001,"so sofa sit sitting standing some smile sweet sad soft secret secrecy soda solo sole soul ",0,2166,29598,0,0,,,1
60f329e791509f40c74a87ad,7ml272oue2,Ex2A_Prolific,1,73,2024-02-28T00:09:00+00:00,4.7797729969025,6,Stim_B.csv,Item.csv,Item,B,,,,,,0,Instruct,User,4,"You have completed this section. Please click next.",,Instruct166,4488,,,-1,-1,,,,,1
60f329e791509f40c74a87ad,7ml272oue2,Ex2A_Prolific,1,74,2024-02-28T00:09:05+00:00,4.7889139652252,6,Stim_B.csv,Item.csv,Item,B,,,,,,0,Instruct,User,4,"You will now complete a memory test for the words you just studied. Please type as many words from the previous list as you can seperated by a comma. Spelling will not count against you and you can recall the words in any order. This test will be timed for one minute, and the computer will automatically advance once time is up. Click next when you are ready to begin.",,Instruct1666,4495,,,-1,-1,,,,,1
60f329e791509f40c74a87ad,7ml272oue2,Ex2A_Prolific,1,75,2024-02-28T00:10:05+00:00,60.303002119064,6,Stim_B.csv,Item.csv,Item,B,,,,,,0,FreeRecall,60,60,"Please type as many words as you can from the previous study list in any order. Please separate each word with a comma. Spelling will not count against you. This screen will automatically advance in one minute.",,RECALL_Test,60001,"sit, sitting, sofa, bench, couch, table, recliner, desk, swivel, seat, ",0,788,31404,0,0,,,1
60f329e791509f40c74a87ad,7ml272oue2,Ex2A_Prolific,1,76,2024-02-28T00:10:09+00:00,3.9245219230652,6,Stim_B.csv,Item.csv,Item,B,,,,,,0,Instruct,User,3,"You will now be presented with a new study list. Click next when you are ready to begin.",,NEXT_LIST,3635,,,-1,-1,,,,,1
60f329e791509f40c74a87ad,7ml272oue2,Ex2A_Prolific,1,77,2024-02-28T00:10:13+00:00,3.6525239944458,6,Stim_B.csv,Item.csv,Item,B,climber,,D1,,,50,JOL,User,1.25,"How likely are you to correctly recall the second item in the pair?|Type your response on a scale from 0-100 and then press Enter.",Doctor,D1,3352,,,2937,3048,,,,70,1
60f329e791509f40c74a87ad,7ml272oue2,Ex2A_Prolific,1,78,2024-02-28T00:10:15+00:00,2.3870460987091,6,Stim_B.csv,Item.csv,Item,B,hill,,D2,,,51,JOL,User,1.25,"How likely are you to correctly recall the second item in the pair?|Type your response on a scale from 0-100 and then press Enter.",Doctor,D2,2091,,,1715,1843,,,,70,1
60f329e791509f40c74a87ad,7ml272oue2,Ex2A_Prolific,1,79,2024-02-28T00:10:17+00:00,2.3549149036407,6,Stim_B.csv,Item.csv,Item,B,climb,,D3,,,52,JOL,User,1.25,"How likely are you to correctly recall the second item in the pair?|Type your response on a scale from 0-100 and then press Enter.",Doctor,D3,2062,,,1446,1614,,,,70,1
60f329e791509f40c74a87ad,7ml272oue2,Ex2A_Prolific,1,80,2024-02-28T00:10:21+00:00,3.1352570056915,6,Stim_B.csv,Item.csv,Item,B,molehill,,D4,,,53,JOL,User,1.25,"How likely are you to correctly recall the second item in the pair?|Type your response on a scale from 0-100 and then press Enter.",Doctor,D4,2838,,,1822,2037,,,,70,1
60f329e791509f40c74a87ad,7ml272oue2,Ex2A_Prolific,1,81,2024-02-28T00:10:22+00:00,1.834489107132,6,Stim_B.csv,Item.csv,Item,B,peak,,D5,,,54,JOL,User,1.25,"How likely are you to correctly recall the second item in the pair?|Type your response on a scale from 0-100 and then press Enter.",Doctor,D5,1543,,,1120,1239,,,,60,1
60f329e791509f40c74a87ad,7ml272oue2,Ex2A_Prolific,1,82,2024-02-28T00:10:25+00:00,2.1105809211731,6,Stim_B.csv,Item.csv,Item,B,valley,,D6,,,55,JOL,User,1.25,"How likely are you to correctly recall the second item in the pair?|Type your response on a scale from 0-100 and then press Enter.",Doctor,D6,1811,,,1324,1460,,,,50,1
60f329e791509f40c74a87ad,7ml272oue2,Ex2A_Prolific,1,83,2024-02-28T00:10:27+00:00,2.0783560276031,6,Stim_B.csv,Item.csv,Item,B,summit,,D7,,,56,JOL,User,1.25,"How likely are you to correctly recall the second item in the pair?|Type your response on a scale from 0-100 and then press Enter.",Doctor,D7,1785,,,1290,1418,,,,60,1
60f329e791509f40c74a87ad,7ml272oue2,Ex2A_Prolific,1,84,2024-02-28T00:10:31+00:00,3.994796037674,6,Stim_B.csv,Item.csv,Item,B,steep,,D8,,,57,JOL,User,1.25,"How likely are you to correctly recall the second item in the pair?|Type your response on a scale from 0-100 and then press Enter.",Doctor,D8,3701,,,2300,2477,,,,50,1
60f329e791509f40c74a87ad,7ml272oue2,Ex2A_Prolific,1,85,2024-02-28T00:10:33+00:00,2.4424250125885,6,Stim_B.csv,Item.csv,Item,B,ski,,D9,,,58,JOL,User,1.25,"How likely are you to correctly recall the second item in the pair?|Type your response on a scale from 0-100 and then press Enter.",Doctor,D9,2141,,,1373,1549,,,,60,1
60f329e791509f40c74a87ad,7ml272oue2,Ex2A_Prolific,1,86,2024-02-28T00:10:36+00:00,3.0806539058685,6,Stim_B.csv,Item.csv,Item,B,bike,,D10,,,59,JOL,User,1.25,"How likely are you to correctly recall the second item in the pair?|Type your response on a scale from 0-100 and then press Enter.",Doctor,D10,2783,,,2222,2367,,,,40,1
60f329e791509f40c74a87ad,7ml272oue2,Ex2A_Prolific,1,87,2024-02-28T00:10:39+00:00,3.1245470046997,6,Stim_B.csv,Item.csv,Item,B,goat,,D11,,,60,JOL,User,1.25,"How likely are you to correctly recall the second item in the pair?|Type your response on a scale from 0-100 and then press Enter.",Doctor,D11,2831,,,1824,1967,,,,50,1
60f329e791509f40c74a87ad,7ml272oue2,Ex2A_Prolific,1,88,2024-02-28T00:10:42+00:00,2.7137439250946,6,Stim_B.csv,Item.csv,Item,B,glacier,,D12,,,61,JOL,User,1.25,"How likely are you to correctly recall the second item in the pair?|Type your response on a scale from 0-100 and then press Enter.",Doctor,D12,2418,,,1955,2066,,,,60,1
60f329e791509f40c74a87ad,7ml272oue2,Ex2A_Prolific,1,89,2024-02-28T00:10:49+00:00,7.3210251331329,6,Stim_B.csv,Item.csv,Item,B,,,,,,0,Instruct,User,4,"You have completed this section. Please click next.",,Instruct166,7029,,,-1,-1,,,,,1
60f329e791509f40c74a87ad,7ml272oue2,Ex2A_Prolific,1,90,2024-02-28T00:11:20+00:00,30.308495998383,6,Stim_B.csv,Item.csv,Item,B,,,,,,0,FreeRecall,30,30,"Please type as many words as you can that begin with the letter ""N"". The computer will automatically advance to the next screen in 30 seconds.",,FILLER,30000,"ski, summit, valley, goat, glacier, molehill, hill, climb, climber, bike, ",0,959,26079,0,0,,,1
60f329e791509f40c74a87ad,7ml272oue2,Ex2A_Prolific,1,91,2024-02-28T00:11:21+00:00,1.717857837677,6,Stim_B.csv,Item.csv,Item,B,,,,,,0,Instruct,User,-,"You have completed this section. Please click next.",,Instruct166,1423,,,-1,-1,,,,,1
60f329e791509f40c74a87ad,7ml272oue2,Ex2A_Prolific,1,92,2024-02-28T00:11:27+00:00,5.8739039897919,6,Stim_B.csv,Item.csv,Item,B,,,,,,0,Instruct,User,4,"You will now complete a memory test for the words you just studied. Please type as many words from the previous list as you can seperated by a comma. Spelling will not count against you and you can recall the words in any order. This test will be timed for one minute, and the computer will automatically advance once time is up. Click next when you are ready to begin.",,Instruct1666,5581,,,-1,-1,,,,,1
60f329e791509f40c74a87ad,7ml272oue2,Ex2A_Prolific,1,93,2024-02-28T00:12:28+00:00,60.297241210938,6,Stim_B.csv,Item.csv,Item,B,,,,,,0,FreeRecall,60,60,"Please type as many words as you can from the previous study list in any order. Please separate each word with a comma. Spelling will not count against you. This screen will automatically advance in one minute.",,RECALL_Test,60001,"summit, ski, climb, climber, bike, valley, goat, glacier, molehill, hill ",0,5613,46658,0,0,,,1
60f329e791509f40c74a87ad,7ml272oue2,Ex2A_Prolific,1,94,2024-02-28T00:12:31+00:00,3.7914807796478,6,Stim_B.csv,Item.csv,Item,B,,,,,,0,Instruct,User,3,"You will now be presented with a new study list. Click next when you are ready to begin.",,NEXT_LIST,3501,,,-1,-1,,,,,1
60f329e791509f40c74a87ad,7ml272oue2,Ex2A_Prolific,1,95,2024-02-28T00:12:35+00:00,4.0250661373138,6,Stim_B.csv,Item.csv,Item,B,band,,S1,,,62,JOL,User,1.25,"How likely are you to correctly recall the second item in the pair?|Type your response on a scale from 0-100 and then press Enter.",Slow,S1,3731,,,3131,3307,,,,60,1
60f329e791509f40c74a87ad,7ml272oue2,Ex2A_Prolific,1,96,2024-02-28T00:12:38+00:00,2.288281917572,6,Stim_B.csv,Item.csv,Item,B,concert,,S2,,,63,JOL,User,1.25,"How likely are you to correctly recall the second item in the pair?|Type your response on a scale from 0-100 and then press Enter.",Slow,S2,1992,,,1568,1704,,,,60,1
60f329e791509f40c74a87ad,7ml272oue2,Ex2A_Prolific,1,97,2024-02-28T00:12:41+00:00,3.6309261322021,6,Stim_B.csv,Item.csv,Item,B,jazz,,S3,,,64,JOL,User,1.25,"How likely are you to correctly recall the second item in the pair?|Type your response on a scale from 0-100 and then press Enter.",Slow,S3,3341,,,2804,2973,,,,60,1
60f329e791509f40c74a87ad,7ml272oue2,Ex2A_Prolific,1,98,2024-02-28T00:12:45+00:00,3.8893089294434,6,Stim_B.csv,Item.csv,Item,B,symphony,,S4,,,65,JOL,User,1.25,"How likely are you to correctly recall the second item in the pair?|Type your response on a scale from 0-100 and then press Enter.",Slow,S4,3468,,,2781,2892,,,,70,1
60f329e791509f40c74a87ad,7ml272oue2,Ex2A_Prolific,1,99,2024-02-28T00:12:47+00:00,2.0470929145813,6,Stim_B.csv,Item.csv,Item,B,orchestra,,S5,,,66,JOL,User,1.25,"How likely are you to correctly recall the second item in the pair?|Type your response on a scale from 0-100 and then press Enter.",Slow,S5,1755,,,1275,1402,,,,70,1
60f329e791509f40c74a87ad,7ml272oue2,Ex2A_Prolific,1,100,2024-02-28T00:12:53+00:00,6.0004541873932,6,Stim_B.csv,Item.csv,Item,B,rhythm,,S6,,,67,JOL,User,1.25,"How likely are you to correctly recall the second item in the pair?|Type your response on a scale from 0-100 and then press Enter.",Slow,S6,5708,,,4565,5308,,,,50,1
60f329e791509f40c74a87ad,7ml272oue2,Ex2A_Prolific,1,101,2024-02-28T00:12:56+00:00,3.0628888607025,6,Stim_B.csv,Item.csv,Item,B,radio,,S7,,,68,JOL,User,1.25,"How likely are you to correctly recall the second item in the pair?|Type your response on a scale from 0-100 and then press Enter.",Slow,S7,2769,,,2290,2441,,,,60,1
60f329e791509f40c74a87ad,7ml272oue2,Ex2A_Prolific,1,102,2024-02-28T00:12:59+00:00,3.0650360584259,6,Stim_B.csv,Item.csv,Item,B,melody,,S8,,,69,JOL,User,1.25,"How likely are you to correctly recall the second item in the pair?|Type your response on a scale from 0-100 and then press Enter.",Slow,S8,2770,,,2340,2443,,,,60,1
60f329e791509f40c74a87ad,7ml272oue2,Ex2A_Prolific,1,103,2024-02-28T00:13:03+00:00,4.006411075592,6,Stim_B.csv,Item.csv,Item,B,piano,,S9,,,70,JOL,User,1.25,"How likely are you to correctly recall the second item in the pair?|Type your response on a scale from 0-100 and then press Enter.",Slow,S9,3715,,,2891,3002,,,,60,1
60f329e791509f40c74a87ad,7ml272oue2,Ex2A_Prolific,1,104,2024-02-28T00:13:05+00:00,2.0901298522949,6,Stim_B.csv,Item.csv,Item,B,sound,,S10,,,71,JOL,User,1.25,"How likely are you to correctly recall the second item in the pair?|Type your response on a scale from 0-100 and then press Enter.",Slow,S10,1795,,,1388,1483,,,,60,1
60f329e791509f40c74a87ad,7ml272oue2,Ex2A_Prolific,1,105,2024-02-28T00:13:11+00:00,5.4739520549774,6,Stim_B.csv,Item.csv,Item,B,instrument,,S11,,,72,JOL,User,1.25,"How likely are you to correctly recall the second item in the pair?|Type your response on a scale from 0-100 and then press Enter.",Slow,S11,5178,,,4802,4914,,,,50,1
60f329e791509f40c74a87ad,7ml272oue2,Ex2A_Prolific,1,106,2024-02-28T00:13:13+00:00,2.0535910129547,6,Stim_B.csv,Item.csv,Item,B,note,,S12,,,73,JOL,User,1.25,"How likely are you to correctly recall the second item in the pair?|Type your response on a scale from 0-100 and then press Enter.",Slow,S12,1759,,,1402,1544,,,,50,1
60f329e791509f40c74a87ad,7ml272oue2,Ex2A_Prolific,1,107,2024-02-28T00:13:14+00:00,1.5030000209808,6,Stim_B.csv,Item.csv,Item,B,,,,,,0,Instruct,User,-,"You have completed this section. Please click next.",,Instruct166,1213,,,-1,-1,,,,,1
60f329e791509f40c74a87ad,7ml272oue2,Ex2A_Prolific,1,108,2024-02-28T00:13:45+00:00,30.311852931976,6,Stim_B.csv,Item.csv,Item,B,,,,,,0,FreeRecall,30,30,"Please type as many words as you can that begin with the letter ""R"". The computer will automatically advance to the next screen in 30 seconds.",,FILLER,30000,"rose rabbit right ream real reek rule remorse rodent rodeo ",0,1772,25002,0,0,,,1
60f329e791509f40c74a87ad,7ml272oue2,Ex2A_Prolific,1,109,2024-02-28T00:13:50+00:00,4.7642040252686,6,Stim_B.csv,Item.csv,Item,B,,,,,,0,Instruct,User,4,"You have completed this section. Please click next.",,Instruct166,4471,,,-1,-1,,,,,1
60f329e791509f40c74a87ad,7ml272oue2,Ex2A_Prolific,1,110,2024-02-28T00:13:54+00:00,4.8414471149445,6,Stim_B.csv,Item.csv,Item,B,,,,,,0,Instruct,User,4,"You will now complete a memory test for the words you just studied. Please type as many words from the previous list as you can seperated by a comma. Spelling will not count against you and you can recall the words in any order. This test will be timed for one minute, and the computer will automatically advance once time is up. Click next when you are ready to begin.",,Instruct1666,4546,,,-1,-1,,,,,1
60f329e791509f40c74a87ad,7ml272oue2,Ex2A_Prolific,1,111,2024-02-28T00:14:55+00:00,60.301390886307,6,Stim_B.csv,Item.csv,Item,B,,,,,,0,FreeRecall,60,60,"Please type as many words as you can from the previous study list in any order. Please separate each word with a comma. Spelling will not count against you. This screen will automatically advance in one minute.",,RECALL_Test,60002,"band, note, orchestra, rhythm, piano, radio, melody, jazz, concert,",0,928,52024,0,0,,,1
60f329e791509f40c74a87ad,7ml272oue2,Ex2A_Prolific,1,112,2024-02-28T00:14:59+00:00,3.929790019989,6,Stim_B.csv,Item.csv,Item,B,,,,,,0,Instruct,User,3,"You will now be presented with a new study list. Click next when you are ready to begin.",,NEXT_LIST,3638,,,-1,-1,,,,,1
60f329e791509f40c74a87ad,7ml272oue2,Ex2A_Prolific,1,113,2024-02-28T00:15:02+00:00,3.8940808773041,6,Stim_B.csv,Item.csv,Item,B,foam,,RR1,,,74,JOL,User,1.25,"How likely are you to correctly recall the second item in the pair?|Type your response on a scale from 0-100 and then press Enter.",River,RR1,3596,,,2852,3003,,,,80,1
60f329e791509f40c74a87ad,7ml272oue2,Ex2A_Prolific,1,114,2024-02-28T00:15:05+00:00,2.6731340885162,6,Stim_B.csv,Item.csv,Item,B,latex,,RR2,,,75,JOL,User,1.25,"How likely are you to correctly recall the second item in the pair?|Type your response on a scale from 0-100 and then press Enter.",River,RR2,2378,,,2033,2154,,,,70,1
60f329e791509f40c74a87ad,7ml272oue2,Ex2A_Prolific,1,115,2024-02-28T00:15:08+00:00,2.3738310337067,6,Stim_B.csv,Item.csv,Item,B,galoshes,,RR3,,,76,JOL,User,1.25,"How likely are you to correctly recall the second item in the pair?|Type your response on a scale from 0-100 and then press Enter.",River,RR3,2076,,,1718,1837,,,,70,1
60f329e791509f40c74a87ad,7ml272oue2,Ex2A_Prolific,1,116,2024-02-28T00:15:11+00:00,3.3844969272614,6,Stim_B.csv,Item.csv,Item,B,tire,,RR4,,,77,JOL,User,1.25,"How likely are you to correctly recall the second item in the pair?|Type your response on a scale from 0-100 and then press Enter.",River,RR4,3083,,,2644,2764,,,,60,1
60f329e791509f40c74a87ad,7ml272oue2,Ex2A_Prolific,1,117,2024-02-28T00:15:13+00:00,2.1440160274506,6,Stim_B.csv,Item.csv,Item,B,flexible,,RR5,,,78,JOL,User,1.25,"How likely are you to correctly recall the second item in the pair?|Type your response on a scale from 0-100 and then press Enter.",River,RR5,1846,,,1414,1526,,,,50,1
60f329e791509f40c74a87ad,7ml272oue2,Ex2A_Prolific,1,118,2024-02-28T00:15:16+00:00,3.020546913147,6,Stim_B.csv,Item.csv,Item,B,elastic,,RR6,,,79,JOL,User,1.25,"How likely are you to correctly recall the second item in the pair?|Type your response on a scale from 0-100 and then press Enter.",River,RR6,2728,,,2240,2376,,,,50,1
60f329e791509f40c74a87ad,7ml272oue2,Ex2A_Prolific,1,119,2024-02-28T00:15:21+00:00,4.802285194397,6,Stim_B.csv,Item.csv,Item,B,gloves,,RR7,,,80,JOL,User,1.25,"How likely are you to correctly recall the second item in the pair?|Type your response on a scale from 0-100 and then press Enter.",River,RR7,4517,,,3333,3669,,,,60,1
60f329e791509f40c74a87ad,7ml272oue2,Ex2A_Prolific,1,120,2024-02-28T00:15:24+00:00,3.2167479991913,6,Stim_B.csv,Item.csv,Item,B,eraser,,RR8,,,81,JOL,User,1.25,"How likely are you to correctly recall the second item in the pair?|Type your response on a scale from 0-100 and then press Enter.",River,RR8,2924,,,2484,2580,,,,50,1
60f329e791509f40c74a87ad,7ml272oue2,Ex2A_Prolific,1,121,2024-02-28T00:15:30+00:00,5.4649708271027,6,Stim_B.csv,Item.csv,Item,B,bounce,,RR9,,,82,JOL,User,1.25,"How likely are you to correctly recall the second item in the pair?|Type your response on a scale from 0-100 and then press Enter.",River,RR9,5172,,,3309,3501,,,,60,1
60f329e791509f40c74a87ad,7ml272oue2,Ex2A_Prolific,1,122,2024-02-28T00:15:32+00:00,2.0682570934296,6,Stim_B.csv,Item.csv,Item,B,ball,,RR10,,,83,JOL,User,1.25,"How likely are you to correctly recall the second item in the pair?|Type your response on a scale from 0-100 and then press Enter.",River,RR10,1757,,,1381,1477,,,,60,1
60f329e791509f40c74a87ad,7ml272oue2,Ex2A_Prolific,1,123,2024-02-28T00:15:34+00:00,2.2980000972748,6,Stim_B.csv,Item.csv,Item,B,soles,,RR11,,,84,JOL,User,1.25,"How likely are you to correctly recall the second item in the pair?|Type your response on a scale from 0-100 and then press Enter.",River,RR11,2001,,,1507,1696,,,,50,1
60f329e791509f40c74a87ad,7ml272oue2,Ex2A_Prolific,1,124,2024-02-28T00:15:36+00:00,2.0734879970551,6,Stim_B.csv,Item.csv,Item,B,springy,,RR12,,,85,JOL,User,1.25,"How likely are you to correctly recall the second item in the pair?|Type your response on a scale from 0-100 and then press Enter.",River,RR12,1780,,,1451,1539,,,,70,1
60f329e791509f40c74a87ad,7ml272oue2,Ex2A_Prolific,1,125,2024-02-28T00:15:38+00:00,1.8492908477783,6,Stim_B.csv,Item.csv,Item,B,,,,,,0,Instruct,User,-,"You have completed this section. Please click next.",,Instruct166,1556,,,-1,-1,,,,,1
60f329e791509f40c74a87ad,7ml272oue2,Ex2A_Prolific,1,126,2024-02-28T00:16:08+00:00,30.307338953018,6,Stim_B.csv,Item.csv,Item,B,,,,,,0,FreeRecall,30,30,"Please type as many words as you can that begin with the letter ""M"". The computer will automatically advance to the next screen in 30 seconds.",,FILLER,30001,"mother mad mandatory made might miss moot mute mollycoddle move mi",0,2486,26870,0,0,,,1
60f329e791509f40c74a87ad,7ml272oue2,Ex2A_Prolific,1,127,2024-02-28T00:16:09+00:00,0.42311310768127,6,Stim_B.csv,Item.csv,Item,B,,,,,,0,Instruct,User,-,"You have completed this section. Please click next.",,Instruct166,135,,,38,38,,,,,1
60f329e791509f40c74a87ad,7ml272oue2,Ex2A_Prolific,1,128,2024-02-28T00:16:13+00:00,4.809112071991,6,Stim_B.csv,Item.csv,Item,B,,,,,,0,Instruct,User,4,"You will now complete a memory test for the words you just studied. Please type as many words from the previous list as you can seperated by a comma. Spelling will not count against you and you can recall the words in any order. This test will be timed for one minute, and the computer will automatically advance once time is up. Click next when you are ready to begin.",,Instruct1666,4513,,,-1,-1,,,,,1
60f329e791509f40c74a87ad,7ml272oue2,Ex2A_Prolific,1,129,2024-02-28T00:17:14+00:00,60.302356958389,6,Stim_B.csv,Item.csv,Item,B,,,,,,0,FreeRecall,60,60,"Please type as many words as you can from the previous study list in any order. Please separate each word with a comma. Spelling will not count against you. This screen will automatically advance in one minute.",,RECALL_Test,60001,"elastic, springy, soles, latex, foam, flexible, ",0,1185,34824,0,0,,,1
60f329e791509f40c74a87ad,7ml272oue2,Ex2A_Prolific,1,130,2024-02-28T00:17:18+00:00,3.803111076355,6,Stim_B.csv,Item.csv,Item,B,,,,,,0,Instruct,User,3,"You will now be presented with a new study list. Click next when you are ready to begin.",,NEXT_LIST,3504,,,-1,-1,,,,,1
60f329e791509f40c74a87ad,7ml272oue2,Ex2A_Prolific,1,131,2024-02-28T00:17:21+00:00,3.8810429573059,6,Stim_B.csv,Item.csv,Item,B,toe,,B1,,,86,JOL,User,1.25,"How likely are you to correctly recall the second item in the pair?|Type your response on a scale from 0-100 and then press Enter.",Bread,B1,3587,,,2626,3131,,,,60,1
60f329e791509f40c74a87ad,7ml272oue2,Ex2A_Prolific,1,132,2024-02-28T00:17:24+00:00,3.008199930191,6,Stim_B.csv,Item.csv,Item,B,inch,,B2,,,87,JOL,User,1.25,"How likely are you to correctly recall the second item in the pair?|Type your response on a scale from 0-100 and then press Enter.",Bread,B2,2718,,,1597,2125,,,,60,1
60f329e791509f40c74a87ad,7ml272oue2,Ex2A_Prolific,1,133,2024-02-28T00:17:26+00:00,2.0050671100616,6,Stim_B.csv,Item.csv,Item,B,ankle,,B3,,,88,JOL,User,1.25,"How likely are you to correctly recall the second item in the pair?|Type your response on a scale from 0-100 and then press Enter.",Bread,B3,1712,,,1026,1137,,,,50,1
60f329e791509f40c74a87ad,7ml272oue2,Ex2A_Prolific,1,134,2024-02-28T00:17:28+00:00,1.7822599411011,6,Stim_B.csv,Item.csv,Item,B,shoe,,B4,,,89,JOL,User,1.25,"How likely are you to correctly recall the second item in the pair?|Type your response on a scale from 0-100 and then press Enter.",Bread,B4,1499,,,1147,1227,,,,50,1
60f329e791509f40c74a87ad,7ml272oue2,Ex2A_Prolific,1,135,2024-02-28T00:17:36+00:00,7.4323198795319,6,Stim_B.csv,Item.csv,Item,B,sandals,,B5,,,90,JOL,User,1.25,"How likely are you to correctly recall the second item in the pair?|Type your response on a scale from 0-100 and then press Enter.",Bread,B5,7141,,,6454,6671,,,,60,1
60f329e791509f40c74a87ad,7ml272oue2,Ex2A_Prolific,1,136,2024-02-28T00:17:41+00:00,5.8270790576935,6,Stim_B.csv,Item.csv,Item,B,sock,,B6,,,91,JOL,User,1.25,"How likely are you to correctly recall the second item in the pair?|Type your response on a scale from 0-100 and then press Enter.",Bread,B6,5534,,,5125,5230,,,,50,1
60f329e791509f40c74a87ad,7ml272oue2,Ex2A_Prolific,1,137,2024-02-28T00:17:46+00:00,4.4232759475708,6,Stim_B.csv,Item.csv,Item,B,hand,,B7,,,92,JOL,User,1.25,"How likely are you to correctly recall the second item in the pair?|Type your response on a scale from 0-100 and then press Enter.",Bread,B7,4128,,,3312,3817,,,,40,1
60f329e791509f40c74a87ad,7ml272oue2,Ex2A_Prolific,1,138,2024-02-28T00:17:52+00:00,5.8983170986176,6,Stim_B.csv,Item.csv,Item,B,boot,,B8,,,93,JOL,User,1.25,"How likely are you to correctly recall the second item in the pair?|Type your response on a scale from 0-100 and then press Enter.",Bread,B8,5600,,,3000,5344,,,,40,1
60f329e791509f40c74a87ad,7ml272oue2,Ex2A_Prolific,1,139,2024-02-28T00:17:57+00:00,5.4067239761353,6,Stim_B.csv,Item.csv,Item,B,yard,,B9,,,94,JOL,User,1.25,"How likely are you to correctly recall the second item in the pair?|Type your response on a scale from 0-100 and then press Enter.",Bread,B9,5117,,,4558,4813,,,,40,1
60f329e791509f40c74a87ad,7ml272oue2,Ex2A_Prolific,1,140,2024-02-28T00:18:07+00:00,9.9835438728333,6,Stim_B.csv,Item.csv,Item,B,kick,,B10,,,95,JOL,User,1.25,"How likely are you to correctly recall the second item in the pair?|Type your response on a scale from 0-100 and then press Enter.",Bread,B10,9689,,,8432,9081,,,,20,1
60f329e791509f40c74a87ad,7ml272oue2,Ex2A_Prolific,1,141,2024-02-28T00:18:11+00:00,3.8300521373749,6,Stim_B.csv,Item.csv,Item,B,knee,,B11,,,96,JOL,User,1.25,"How likely are you to correctly recall the second item in the pair?|Type your response on a scale from 0-100 and then press Enter.",Bread,B11,3538,,,3019,3242,,,,40,1
60f329e791509f40c74a87ad,7ml272oue2,Ex2A_Prolific,1,142,2024-02-28T00:18:13+00:00,2.4696910381317,6,Stim_B.csv,Item.csv,Item,B,walk,,B12,,,97,JOL,User,1.25,"How likely are you to correctly recall the second item in the pair?|Type your response on a scale from 0-100 and then press Enter.",Bread,B12,2173,,,1646,1813,,,,40,1
60f329e791509f40c74a87ad,7ml272oue2,Ex2A_Prolific,1,143,2024-02-28T00:18:19+00:00,5.4488348960876,6,Stim_B.csv,Item.csv,Item,B,,,,,,0,Instruct,User,4,"You have completed this section. Please click next.",,Instruct166,5158,,,-1,-1,,,,,1
60f329e791509f40c74a87ad,7ml272oue2,Ex2A_Prolific,1,144,2024-02-28T00:18:49+00:00,30.303278923035,6,Stim_B.csv,Item.csv,Item,B,,,,,,0,FreeRecall,30,30,"Please type as many words as you can that begin with the letter ""L"". The computer will automatically advance to the next screen in 30 seconds.",,FILLER,30001,"love light leap lose lost lemon lime loose lush luscious l",0,2016,26736,0,0,,,1
60f329e791509f40c74a87ad,7ml272oue2,Ex2A_Prolific,1,145,2024-02-28T00:18:51+00:00,2.225976228714,6,Stim_B.csv,Item.csv,Item,B,,,,,,0,Instruct,User,-,"You have completed this section. Please click next.",,Instruct166,1933,,,1062,1779,,,,,1
60f329e791509f40c74a87ad,7ml272oue2,Ex2A_Prolific,1,146,2024-02-28T00:18:56+00:00,4.8774659633636,6,Stim_B.csv,Item.csv,Item,B,,,,,,0,Instruct,User,4,"You will now complete a memory test for the words you just studied. Please type as many words from the previous list as you can seperated by a comma. Spelling will not count against you and you can recall the words in any order. This test will be timed for one minute, and the computer will automatically advance once time is up. Click next when you are ready to begin.",,Instruct1666,4580,,,-1,-1,,,,,1
60f329e791509f40c74a87ad,7ml272oue2,Ex2A_Prolific,1,147,2024-02-28T00:19:57+00:00,60.307814836502,6,Stim_B.csv,Item.csv,Item,B,,,,,,0,FreeRecall,60,60,"Please type as many words as you can from the previous study list in any order. Please separate each word with a comma. Spelling will not count against you. This screen will automatically advance in one minute.",,RECALL_Test,60001,"toe, boot, knee, ankle, hand, shoe, sock, sandals, ",0,2519,17496,0,0,,,1
60f329e791509f40c74a87ad,7ml272oue2,Ex2A_Prolific,1,148,2024-02-28T00:20:00+00:00,3.8307271003723,6,Stim_B.csv,Item.csv,Item,B,,,,,,0,Instruct,User,3,"You will now be presented with a new study list. Click next when you are ready to begin.",,NEXT_LIST,3535,,,-1,-1,,,,,1
60f329e791509f40c74a87ad,7ml272oue2,Ex2A_Prolific,1,149,2024-02-28T00:20:04+00:00,3.9619839191437,6,Stim_B.csv,Item.csv,Item,B,boy,,F1,,,98,JOL,User,1.25,"How likely are you to correctly recall the second item in the pair?|Type your response on a scale from 0-100 and then press Enter.",Flag,F1,3671,,,3248,3414,,,,80,1
60f329e791509f40c74a87ad,7ml272oue2,Ex2A_Prolific,1,150,2024-02-28T00:20:07+00:00,2.2994439601898,6,Stim_B.csv,Item.csv,Item,B,dolls,,F2,,,99,JOL,User,1.25,"How likely are you to correctly recall the second item in the pair?|Type your response on a scale from 0-100 and then press Enter.",Flag,F2,1995,,,1603,1731,,,,70,1
60f329e791509f40c74a87ad,7ml272oue2,Ex2A_Prolific,1,151,2024-02-28T00:20:10+00:00,3.2460181713104,6,Stim_B.csv,Item.csv,Item,B,pretty,,F3,,,100,JOL,User,1.25,"How likely are you to correctly recall the second item in the pair?|Type your response on a scale from 0-100 and then press Enter.",Flag,F3,2950,,,2110,2358,,,,50,1
60f329e791509f40c74a87ad,7ml272oue2,Ex2A_Prolific,1,152,2024-02-28T00:20:12+00:00,2.3018488883972,6,Stim_B.csv,Item.csv,Item,B,female,,F4,,,101,JOL,User,1.25,"How likely are you to correctly recall the second item in the pair?|Type your response on a scale from 0-100 and then press Enter.",Flag,F4,2013,,,1558,1677,,,,50,1
60f329e791509f40c74a87ad,7ml272oue2,Ex2A_Prolific,1,153,2024-02-28T00:20:16+00:00,4.238872051239,6,Stim_B.csv,Item.csv,Item,B,dress,,F5,,,102,JOL,User,1.25,"How likely are you to correctly recall the second item in the pair?|Type your response on a scale from 0-100 and then press Enter.",Flag,F5,3948,,,3117,3268,,,,50,1
60f329e791509f40c74a87ad,7ml272oue2,Ex2A_Prolific,1,154,2024-02-28T00:20:22+00:00,5.6076290607452,6,Stim_B.csv,Item.csv,Item,B,date,,F6,,,103,JOL,User,1.25,"How likely are you to correctly recall the second item in the pair?|Type your response on a scale from 0-100 and then press Enter.",Flag,F6,5316,,,4724,4868,,,,60,1
60f329e791509f40c74a87ad,7ml272oue2,Ex2A_Prolific,1,155,2024-02-28T00:20:25+00:00,2.4604959487915,6,Stim_B.csv,Item.csv,Item,B,beautiful,,F7,,,104,JOL,User,1.25,"How likely are you to correctly recall the second item in the pair?|Type your response on a scale from 0-100 and then press Enter.",Flag,F7,2167,,,1663,1791,,,,60,1
60f329e791509f40c74a87ad,7ml272oue2,Ex2A_Prolific,1,156,2024-02-28T00:20:27+00:00,2.2534980773926,6,Stim_B.csv,Item.csv,Item,B,daughter,,F8,,,105,JOL,User,1.25,"How likely are you to correctly recall the second item in the pair?|Type your response on a scale from 0-100 and then press Enter.",Flag,F8,1961,,,1536,1633,,,,40,1
60f329e791509f40c74a87ad,7ml272oue2,Ex2A_Prolific,1,157,2024-02-28T00:20:29+00:00,2.1361198425293,6,Stim_B.csv,Item.csv,Item,B,sister,,F9,,,106,JOL,User,1.25,"How likely are you to correctly recall the second item in the pair?|Type your response on a scale from 0-100 and then press Enter.",Flag,F9,1853,,,1213,1389,,,,40,1
60f329e791509f40c74a87ad,7ml272oue2,Ex2A_Prolific,1,158,2024-02-28T00:20:33+00:00,4.1858570575714,6,Stim_B.csv,Item.csv,Item,B,cute,,F10,,,107,JOL,User,1.25,"How likely are you to correctly recall the second item in the pair?|Type your response on a scale from 0-100 and then press Enter.",Flag,F10,3888,,,3488,3607,,,,30,1
60f329e791509f40c74a87ad,7ml272oue2,Ex2A_Prolific,1,159,2024-02-28T00:20:37+00:00,4.2988591194153,6,Stim_B.csv,Item.csv,Item,B,niece,,F11,,,108,JOL,User,1.25,"How likely are you to correctly recall the second item in the pair?|Type your response on a scale from 0-100 and then press Enter.",Flag,F11,4000,,,3630,3707,,,,60,1
60f329e791509f40c74a87ad,7ml272oue2,Ex2A_Prolific,1,160,2024-02-28T00:20:40+00:00,2.39719581604,6,Stim_B.csv,Item.csv,Item,B,young,,F12,,,109,JOL,User,1.25,"How likely are you to correctly recall the second item in the pair?|Type your response on a scale from 0-100 and then press Enter.",Flag,F12,2099,,,1708,1810,,,,50,1
60f329e791509f40c74a87ad,7ml272oue2,Ex2A_Prolific,1,161,2024-02-28T00:20:45+00:00,4.9830961227417,6,Stim_B.csv,Item.csv,Item,B,,,,,,0,Instruct,User,4,"You have completed this section. Please click next.",,Instruct166,4689,,,-1,-1,,,,,1
60f329e791509f40c74a87ad,7ml272oue2,Ex2A_Prolific,1,162,2024-02-28T00:21:15+00:00,30.306004047394,6,Stim_B.csv,Item.csv,Item,B,,,,,,0,FreeRecall,30,30,"Please type as many words as you can that begin with the letter ""M"". The computer will automatically advance to the next screen in 30 seconds.",,FILLER,30002,"moose muse mouse menace mole might meter metre meant must move ",0,2179,24948,0,0,,,1
60f329e791509f40c74a87ad,7ml272oue2,Ex2A_Prolific,1,163,2024-02-28T00:21:20+00:00,4.9768879413605,6,Stim_B.csv,Item.csv,Item,B,,,,,,0,Instruct,User,4,"You have completed this section. Please click next.",,Instruct166,4683,,,-1,-1,,,,,1
60f329e791509f40c74a87ad,7ml272oue2,Ex2A_Prolific,1,164,2024-02-28T00:21:25+00:00,4.9351139068604,6,Stim_B.csv,Item.csv,Item,B,,,,,,0,Instruct,User,4,"You will now complete a memory test for the words you just studied. Please type as many words from the previous list as you can seperated by a comma. Spelling will not count against you and you can recall the words in any order. This test will be timed for one minute, and the computer will automatically advance once time is up. Click next when you are ready to begin.",,Instruct1666,4647,,,-1,-1,,,,,1
60f329e791509f40c74a87ad,7ml272oue2,Ex2A_Prolific,1,165,2024-02-28T00:22:25+00:00,60.296700954437,6,Stim_B.csv,Item.csv,Item,B,,,,,,0,FreeRecall,60,60,"Please type as many words as you can from the previous study list in any order. Please separate each word with a comma. Spelling will not count against you. This screen will automatically advance in one minute.",,RECALL_Test,60001,"niece, daughter, sister, boy, doll, beautiful, dress, date, ",0,1047,19062,0,0,,,1
60f329e791509f40c74a87ad,7ml272oue2,Ex2A_Prolific,1,166,2024-02-28T00:22:29+00:00,3.7908701896667,6,Stim_B.csv,Item.csv,Item,B,,,,,,0,Instruct,User,3,"You will now be presented with a new study list. Click next when you are ready to begin.",,NEXT_LIST,3498,,,-1,-1,,,,,1
60f329e791509f40c74a87ad,7ml272oue2,Ex2A_Prolific,1,167,2024-02-28T00:22:33+00:00,3.6292209625244,6,Stim_B.csv,Item.csv,Item,B,white,,SS1,,,110,JOL,User,1.25,"How likely are you to correctly recall the second item in the pair?|Type your response on a scale from 0-100 and then press Enter.",Shirt,SS1,3335,,,2976,3062,,,,80,1
60f329e791509f40c74a87ad,7ml272oue2,Ex2A_Prolific,1,168,2024-02-28T00:22:36+00:00,2.9596798419952,6,Stim_B.csv,Item.csv,Item,B,gray,,SS2,,,111,JOL,User,1.25,"How likely are you to correctly recall the second item in the pair?|Type your response on a scale from 0-100 and then press Enter.",Shirt,SS2,2659,,,2211,2290,,,,60,1
60f329e791509f40c74a87ad,7ml272oue2,Ex2A_Prolific,1,169,2024-02-28T00:22:39+00:00,3.7065989971161,6,Stim_B.csv,Item.csv,Item,B,brown,,SS3,,,112,JOL,User,1.25,"How likely are you to correctly recall the second item in the pair?|Type your response on a scale from 0-100 and then press Enter.",Shirt,SS3,3401,,,2881,3033,,,,40,1
60f329e791509f40c74a87ad,7ml272oue2,Ex2A_Prolific,1,170,2024-02-28T00:22:42+00:00,3.0763881206512,6,Stim_B.csv,Item.csv,Item,B,coal,,SS4,,,113,JOL,User,1.25,"How likely are you to correctly recall the second item in the pair?|Type your response on a scale from 0-100 and then press Enter.",Shirt,SS4,2784,,,2345,2465,,,,60,1
60f329e791509f40c74a87ad,7ml272oue2,Ex2A_Prolific,1,171,2024-02-28T00:22:45+00:00,2.4266970157623,6,Stim_B.csv,Item.csv,Item,B,dark,,SS5,,,114,JOL,User,1.25,"How likely are you to correctly recall the second item in the pair?|Type your response on a scale from 0-100 and then press Enter.",Shirt,SS5,2127,,,1704,1824,,,,60,1
60f329e791509f40c74a87ad,7ml272oue2,Ex2A_Prolific,1,172,2024-02-28T00:22:48+00:00,3.0480768680573,6,Stim_B.csv,Item.csv,Item,B,color,,SS6,,,115,JOL,User,1.25,"How likely are you to correctly recall the second item in the pair?|Type your response on a scale from 0-100 and then press Enter.",Shirt,SS6,2752,,,2112,2408,,,,50,1
60f329e791509f40c74a87ad,7ml272oue2,Ex2A_Prolific,1,173,2024-02-28T00:22:51+00:00,2.7092800140381,6,Stim_B.csv,Item.csv,Item,B,funeral,,SS7,,,116,JOL,User,1.25,"How likely are you to correctly recall the second item in the pair?|Type your response on a scale from 0-100 and then press Enter.",Shirt,SS7,2416,,,1696,2128,,,,60,1
60f329e791509f40c74a87ad,7ml272oue2,Ex2A_Prolific,1,174,2024-02-28T00:22:54+00:00,2.9111030101776,6,Stim_B.csv,Item.csv,Item,B,blue,,SS8,,,117,JOL,User,1.25,"How likely are you to correctly recall the second item in the pair?|Type your response on a scale from 0-100 and then press Enter.",Shirt,SS8,2619,,,2036,2260,,,,70,1
60f329e791509f40c74a87ad,7ml272oue2,Ex2A_Prolific,1,175,2024-02-28T00:22:56+00:00,2.287369966507,6,Stim_B.csv,Item.csv,Item,B,charred,,SS9,,,118,JOL,User,1.25,"How likely are you to correctly recall the second item in the pair?|Type your response on a scale from 0-100 and then press Enter.",Shirt,SS9,1993,,,1433,1584,,,,60,1
60f329e791509f40c74a87ad,7ml272oue2,Ex2A_Prolific,1,176,2024-02-28T00:22:58+00:00,2.2032220363617,6,Stim_B.csv,Item.csv,Item,B,ink,,SS10,,,119,JOL,User,1.25,"How likely are you to correctly recall the second item in the pair?|Type your response on a scale from 0-100 and then press Enter.",Shirt,SS10,1907,,,1524,1596,,,,60,1
60f329e791509f40c74a87ad,7ml272oue2,Ex2A_Prolific,1,177,2024-02-28T00:23:01+00:00,2.5654489994049,6,Stim_B.csv,Item.csv,Item,B,death,,SS11,,,120,JOL,User,1.25,"How likely are you to correctly recall the second item in the pair?|Type your response on a scale from 0-100 and then press Enter.",Shirt,SS11,2274,,,1307,1443,,,,60,1
60f329e791509f40c74a87ad,7ml272oue2,Ex2A_Prolific,1,178,2024-02-28T00:23:03+00:00,2.0416619777679,6,Stim_B.csv,Item.csv,Item,B,cat,,SS12,,,121,JOL,User,1.25,"How likely are you to correctly recall the second item in the pair?|Type your response on a scale from 0-100 and then press Enter.",Shirt,SS12,1752,,,1297,1433,,,,60,1
60f329e791509f40c74a87ad,7ml272oue2,Ex2A_Prolific,1,179,2024-02-28T00:23:07+00:00,4.3032360076904,6,Stim_B.csv,Item.csv,Item,B,,,,,,0,Instruct,User,-,"You have completed this section. Please click next.",,Instruct166,4008,,,-1,-1,,,,,1
60f329e791509f40c74a87ad,7ml272oue2,Ex2A_Prolific,1,180,2024-02-28T00:23:37+00:00,30.302473068237,6,Stim_B.csv,Item.csv,Item,B,,,,,,0,FreeRecall,30,30,"Please type as many words as you can that begin with the letter ""T"". The computer will automatically advance to the next screen in 30 seconds.",,FILLER,30000,"tell tight trite true twist tell team told totem terrible ",0,2067,27682,0,0,,,1
60f329e791509f40c74a87ad,7ml272oue2,Ex2A_Prolific,1,181,2024-02-28T00:23:42+00:00,4.4567511081696,6,Stim_B.csv,Item.csv,Item,B,,,,,,0,Instruct,User,4,"You have completed this section. Please click next.",,Instruct166,4156,,,-1,-1,,,,,1
60f329e791509f40c74a87ad,7ml272oue2,Ex2A_Prolific,1,182,2024-02-28T00:23:47+00:00,4.8195099830627,6,Stim_B.csv,Item.csv,Item,B,,,,,,0,Instruct,User,4,"You will now complete a memory test for the words you just studied. Please type as many words from the previous list as you can seperated by a comma. Spelling will not count against you and you can recall the words in any order. This test will be timed for one minute, and the computer will automatically advance once time is up. Click next when you are ready to begin.",,Instruct1666,4518,,,-1,-1,,,,,1
60f329e791509f40c74a87ad,7ml272oue2,Ex2A_Prolific,1,183,2024-02-28T00:24:47+00:00,60.315119981766,6,Stim_B.csv,Item.csv,Item,B,,,,,,0,FreeRecall,60,60,"Please type as many words as you can from the previous study list in any order. Please separate each word with a comma. Spelling will not count against you. This screen will automatically advance in one minute.",,RECALL_Test,60001,"cat, funeral, color, white, gray, dark, death, blue, brown, ",0,988,37100,0,0,,,1
60f329e791509f40c74a87ad,7ml272oue2,Ex2A_Prolific,1,184,2024-02-28T00:24:49+00:00,2.2690019607544,6,Stim_B.csv,Item.csv,Item,B,,,,,,0,Instruct,User,-,"You have completed this section. Please click next.",,Instruct7,1979,,,-1,-1,,,,,1
60f329e791509f40c74a87ad,7ml272oue2,Ex2A_Prolific,1,185,2024-02-28T00:24:51+00:00,2.0144619941711,6,Stim_B.csv,Item.csv,Item,B,,,,,,0,Instruct,User,-,"The following screen will ask you a few questions abour your experience today. You must complete these questions to receive credit.",,Instruct8,1711,,,-1,-1,,,,,1
