Username,ID,ExperimentName,Session,Trial,Date,TimeDif,"Condition Number","Stimuli File","Order File","Condition Description","Condition Notes",Stimuli*Cue,Stimuli*Answer,Stimuli*Shuffle,"Stimuli*Stimuli Notes",Stimuli*Value,Procedure*Item,"Procedure*Trial Type","Procedure*Max Time","Procedure*Min Time",Procedure*Text,"Procedure*Procedure Notes",Procedure*Shuffle,Response*RT,Response*Response,Response*Accuracy,Response*RTfirst,Response*RTlast,Response*strictAcc,Response*lenientAcc,Response*focus,Response*JOL,Response*Focus
6012ed349807110d8eb941a6,eb8khw33k2,Ex2A_Prolific,1,1,2024-02-28T20:43:39+00:00,6.1430368423462,5,Stim_A.csv,Item.csv,Item,A,,,,,,0,Instruct,-,5,"In this section, you will be presented with a series of words. Please study each word carefully. Your memory will be tested!",Initial_Instruct,Instruct1,5813,,,-1,-1,,,,,1
6012ed349807110d8eb941a6,eb8khw33k2,Ex2A_Prolific,1,2,2024-02-28T20:44:21+00:00,41.682023048401,5,Stim_A.csv,Item.csv,Item,A,,,,,,0,Instruct,-,5,"As you study, you will be asked to rate your ability to remember each item on a later memory test using a 0-100 scale. For example, if you study the word DOG, a rating of 0 indicates that you would not remember DOG at test, while a rating of 100 indicates full certainty that you would remember the word DOG at test.",,Instruct13,41395,,,-1,-1,,,,,0.082
6012ed349807110d8eb941a6,eb8khw33k2,Ex2A_Prolific,1,3,2024-02-28T20:44:32+00:00,11.010280132294,5,Stim_A.csv,Item.csv,Item,A,,,,,,0,Instruct,-,10,"When making your ratings, it is criticial that you use the full range of the scale. You will be disqualified for only giving ratings of 0 or 100!",,Instruct15,10620,,,-1,-1,,,,,0.698
6012ed349807110d8eb941a6,eb8khw33k2,Ex2A_Prolific,1,4,2024-02-28T20:44:33+00:00,1.4325790405273,5,Stim_A.csv,Item.csv,Item,A,,,,,,0,Instruct,User,-,"You will now begin the study. Click next when you are ready to begin.",,Instruct16,1094,,,-1,-1,,,,,1
6012ed349807110d8eb941a6,eb8khw33k2,Ex2A_Prolific,1,5,2024-02-28T20:44:39+00:00,5.4907658100128,5,Stim_A.csv,Item.csv,Item,A,pane,,Win_1,,,2,JOL,User,1.25,"How likely are you to correctly recall the second item in the pair?|Type your response on a scale from 0-100 and then press Enter.",Window,Win_1,5221,,,3922,3992,,,,80,1
6012ed349807110d8eb941a6,eb8khw33k2,Ex2A_Prolific,1,6,2024-02-28T20:44:44+00:00,4.7614181041718,5,Stim_A.csv,Item.csv,Item,A,sill,,Win_2,,,3,JOL,User,1.25,"How likely are you to correctly recall the second item in the pair?|Type your response on a scale from 0-100 and then press Enter.",Window,Win_2,4500,,,3565,3646,,,,75,1
6012ed349807110d8eb941a6,eb8khw33k2,Ex2A_Prolific,1,7,2024-02-28T20:44:48+00:00,4.0131230354309,5,Stim_A.csv,Item.csv,Item,A,shutter,,Win_3,,,4,JOL,User,1.25,"How likely are you to correctly recall the second item in the pair?|Type your response on a scale from 0-100 and then press Enter.",Window,Win_3,3728,,,2719,2791,,,,90,1
6012ed349807110d8eb941a6,eb8khw33k2,Ex2A_Prolific,1,8,2024-02-28T20:44:52+00:00,4.0023620128632,5,Stim_A.csv,Item.csv,Item,A,curtain,,Win_4,,,5,JOL,User,1.25,"How likely are you to correctly recall the second item in the pair?|Type your response on a scale from 0-100 and then press Enter.",Window,Win_4,3714,,,2378,2539,,,,83,1
6012ed349807110d8eb941a6,eb8khw33k2,Ex2A_Prolific,1,9,2024-02-28T20:44:55+00:00,3.9032769203186,5,Stim_A.csv,Item.csv,Item,A,door,,Win_5,,,6,JOL,User,1.25,"How likely are you to correctly recall the second item in the pair?|Type your response on a scale from 0-100 and then press Enter.",Window,Win_5,3624,,,2494,2581,,,,75,1
6012ed349807110d8eb941a6,eb8khw33k2,Ex2A_Prolific,1,10,2024-02-28T20:44:59+00:00,3.8061408996582,5,Stim_A.csv,Item.csv,Item,A,ledge,,Win_6,,,7,JOL,User,1.25,"How likely are you to correctly recall the second item in the pair?|Type your response on a scale from 0-100 and then press Enter.",Window,Win_6,3535,,,2302,2350,,,,40,1
6012ed349807110d8eb941a6,eb8khw33k2,Ex2A_Prolific,1,11,2024-02-28T20:45:04+00:00,4.3205080032349,5,Stim_A.csv,Item.csv,Item,A,glass,,Win_7,,,8,JOL,User,1.25,"How likely are you to correctly recall the second item in the pair?|Type your response on a scale from 0-100 and then press Enter.",Window,Win_7,4052,,,2965,3012,,,,45,1
6012ed349807110d8eb941a6,eb8khw33k2,Ex2A_Prolific,1,12,2024-02-28T20:45:11+00:00,7.4136769771576,5,Stim_A.csv,Item.csv,Item,A,view,,Win_8,,,9,JOL,User,1.25,"How likely are you to correctly recall the second item in the pair?|Type your response on a scale from 0-100 and then press Enter.",Window,Win_8,7143,,,5986,6065,,,,20,1
6012ed349807110d8eb941a6,eb8khw33k2,Ex2A_Prolific,1,13,2024-02-28T20:45:15+00:00,4.4108772277832,5,Stim_A.csv,Item.csv,Item,A,screen,,Win_9,,,10,JOL,User,1.25,"How likely are you to correctly recall the second item in the pair?|Type your response on a scale from 0-100 and then press Enter.",Window,Win_9,4123,,,3077,3117,,,,30,1
6012ed349807110d8eb941a6,eb8khw33k2,Ex2A_Prolific,1,14,2024-02-28T20:45:20+00:00,4.9086978435516,5,Stim_A.csv,Item.csv,Item,A,shade,,Win_10,,,11,JOL,User,1.25,"How likely are you to correctly recall the second item in the pair?|Type your response on a scale from 0-100 and then press Enter.",Window,Win_10,4630,,,3181,3441,,,,50,1
6012ed349807110d8eb941a6,eb8khw33k2,Ex2A_Prolific,1,15,2024-02-28T20:45:25+00:00,4.2713429927826,5,Stim_A.csv,Item.csv,Item,A,open,,Win_11,,,12,JOL,User,1.25,"How likely are you to correctly recall the second item in the pair?|Type your response on a scale from 0-100 and then press Enter.",Window,Win_11,3991,,,2722,2857,,,,55,1
6012ed349807110d8eb941a6,eb8khw33k2,Ex2A_Prolific,1,16,2024-02-28T20:45:32+00:00,7.9087631702423,5,Stim_A.csv,Item.csv,Item,A,frame,,Win_12,,,13,JOL,User,1.25,"How likely are you to correctly recall the second item in the pair?|Type your response on a scale from 0-100 and then press Enter.",Window,Win_12,7612,,,6174,6365,,,,53,1
6012ed349807110d8eb941a6,eb8khw33k2,Ex2A_Prolific,1,17,2024-02-28T20:45:38+00:00,5.0735077857971,5,Stim_A.csv,Item.csv,Item,A,,,,,,0,Instruct,User,4,"You have completed this section. Please click next.",,Instruct166,4805,,,-1,-1,,,,,1
6012ed349807110d8eb941a6,eb8khw33k2,Ex2A_Prolific,1,18,2024-02-28T20:46:08+00:00,30.297166109085,5,Stim_A.csv,Item.csv,Item,A,,,,,,0,FreeRecall,30,30,"Please type as many words as you can that begin with the letter ""T"". The computer will automatically advance to the next screen in 30 seconds.",,FILLER,30001,"Pane, ledge, curtain, view, glass, rod, ",0,3337,28146,0,0,,,1
6012ed349807110d8eb941a6,eb8khw33k2,Ex2A_Prolific,1,19,2024-02-28T20:46:10+00:00,2.2882699966431,5,Stim_A.csv,Item.csv,Item,A,,,,,,0,Instruct,User,-,"You have completed this section. Please click next.",,Instruct166,1988,,,-1,-1,,,,,1
6012ed349807110d8eb941a6,eb8khw33k2,Ex2A_Prolific,1,20,2024-02-28T20:46:51+00:00,40.437196016312,5,Stim_A.csv,Item.csv,Item,A,,,,,,0,Instruct,User,4,"You will now complete a memory test for the words you just studied. Please type as many words from the previous list as you can seperated by a comma. Spelling will not count against you and you can recall the words in any order. This test will be timed for one minute, and the computer will automatically advance once time is up. Click next when you are ready to begin.",,Instruct1666,40149,,,-1,-1,,,,,0.1
6012ed349807110d8eb941a6,eb8khw33k2,Ex2A_Prolific,1,21,2024-02-28T20:47:51+00:00,60.326071977615,5,Stim_A.csv,Item.csv,Item,A,,,,,,0,FreeRecall,60,60,"Please type as many words as you can from the previous study list in any order. Please separate each word with a comma. Spelling will not count against you. This screen will automatically advance in one minute.",,RECALL_Test,60003,"Pane, glass, view, ledge, shutter, screen, rod, cur",0,2549,59991,0,0,,,0.953
6012ed349807110d8eb941a6,eb8khw33k2,Ex2A_Prolific,1,22,2024-02-28T20:47:57+00:00,6.3586449623108,5,Stim_A.csv,Item.csv,Item,A,,,,,,0,Instruct,User,3,"You will now be presented with a new study list. Click next when you are ready to begin.",,NEXT_LIST,6055,,,-1,-1,,,,,1
6012ed349807110d8eb941a6,eb8khw33k2,Ex2A_Prolific,1,23,2024-02-28T20:48:03+00:00,5.9283051490784,5,Stim_A.csv,Item.csv,Item,A,sandpaper,,R1,,,14,JOL,User,1.25,"How likely are you to correctly recall the second item in the pair?|Type your response on a scale from 0-100 and then press Enter.",Rough,R1,5639,,,4515,4554,,,,50,1
6012ed349807110d8eb941a6,eb8khw33k2,Ex2A_Prolific,1,24,2024-02-28T20:48:08+00:00,4.6589348316193,5,Stim_A.csv,Item.csv,Item,A,smooth,,R2,,,15,JOL,User,1.25,"How likely are you to correctly recall the second item in the pair?|Type your response on a scale from 0-100 and then press Enter.",Rough,R2,4374,,,2442,2647,,,,52,1
6012ed349807110d8eb941a6,eb8khw33k2,Ex2A_Prolific,1,25,2024-02-28T20:48:14+00:00,5.7779791355133,5,Stim_A.csv,Item.csv,Item,A,coarse,,R3,,,16,JOL,User,1.25,"How likely are you to correctly recall the second item in the pair?|Type your response on a scale from 0-100 and then press Enter.",Rough,R3,5489,,,4393,4432,,,,53,0.667
6012ed349807110d8eb941a6,eb8khw33k2,Ex2A_Prolific,1,26,2024-02-28T20:48:22+00:00,8.1058659553528,5,Stim_A.csv,Item.csv,Item,A,tough,,R4,,,17,JOL,User,1.25,"How likely are you to correctly recall the second item in the pair?|Type your response on a scale from 0-100 and then press Enter.",Rough,R4,7810,,,2365,6508,,,,56,1
6012ed349807110d8eb941a6,eb8khw33k2,Ex2A_Prolific,1,27,2024-02-28T20:48:35+00:00,13.72375202179,5,Stim_A.csv,Item.csv,Item,A,rugged,,R5,,,18,JOL,User,1.25,"How likely are you to correctly recall the second item in the pair?|Type your response on a scale from 0-100 and then press Enter.",Rough,R5,13417,,,12341,12396,,,,30,0.284
6012ed349807110d8eb941a6,eb8khw33k2,Ex2A_Prolific,1,28,2024-02-28T20:48:40+00:00,4.7306439876556,5,Stim_A.csv,Item.csv,Item,A,bumpy,,R6,,,19,JOL,User,1.25,"How likely are you to correctly recall the second item in the pair?|Type your response on a scale from 0-100 and then press Enter.",Rough,R6,4432,,,3240,3416,,,,32,1
6012ed349807110d8eb941a6,eb8khw33k2,Ex2A_Prolific,1,29,2024-02-28T20:48:46+00:00,5.6827259063721,5,Stim_A.csv,Item.csv,Item,A,jagged,,R7,,,20,JOL,User,1.25,"How likely are you to correctly recall the second item in the pair?|Type your response on a scale from 0-100 and then press Enter.",Rough,R7,5404,,,3494,4317,,,,21,1
6012ed349807110d8eb941a6,eb8khw33k2,Ex2A_Prolific,1,30,2024-02-28T20:48:51+00:00,4.7325260639191,5,Stim_A.csv,Item.csv,Item,A,riders,,R8,,,21,JOL,User,1.25,"How likely are you to correctly recall the second item in the pair?|Type your response on a scale from 0-100 and then press Enter.",Rough,R8,4460,,,3060,3060,,,,1,1
6012ed349807110d8eb941a6,eb8khw33k2,Ex2A_Prolific,1,31,2024-02-28T20:48:55+00:00,3.9876120090485,5,Stim_A.csv,Item.csv,Item,A,uneven,,R9,,,22,JOL,User,1.25,"How likely are you to correctly recall the second item in the pair?|Type your response on a scale from 0-100 and then press Enter.",Rough,R9,3703,,,2623,2692,,,,16,1
6012ed349807110d8eb941a6,eb8khw33k2,Ex2A_Prolific,1,32,2024-02-28T20:48:59+00:00,4.1580150127411,5,Stim_A.csv,Item.csv,Item,A,road,,R10,,,23,JOL,User,1.25,"How likely are you to correctly recall the second item in the pair?|Type your response on a scale from 0-100 and then press Enter.",Rough,R10,3882,,,2813,2814,,,,5,1
6012ed349807110d8eb941a6,eb8khw33k2,Ex2A_Prolific,1,33,2024-02-28T20:49:02+00:00,3.3506519794464,5,Stim_A.csv,Item.csv,Item,A,ready,,R11,,,24,JOL,User,1.25,"How likely are you to correctly recall the second item in the pair?|Type your response on a scale from 0-100 and then press Enter.",Rough,R11,3066,,,2166,2166,,,,7,1
6012ed349807110d8eb941a6,eb8khw33k2,Ex2A_Prolific,1,34,2024-02-28T20:49:06+00:00,4.0105299949646,5,Stim_A.csv,Item.csv,Item,A,sand,,R12,,,25,JOL,User,1.25,"How likely are you to correctly recall the second item in the pair?|Type your response on a scale from 0-100 and then press Enter.",Rough,R12,3731,,,2701,2785,,,,80,1
6012ed349807110d8eb941a6,eb8khw33k2,Ex2A_Prolific,1,35,2024-02-28T20:49:11+00:00,5.2991199493408,5,Stim_A.csv,Item.csv,Item,A,,,,,,0,Instruct,User,4,"You have completed this section. Please click next.",,Instruct166,5020,,,-1,-1,,,,,1
6012ed349807110d8eb941a6,eb8khw33k2,Ex2A_Prolific,1,36,2024-02-28T20:49:42+00:00,30.295565128326,5,Stim_A.csv,Item.csv,Item,A,,,,,,0,FreeRecall,30,30,"Please type as many words as you can that begin with the letter ""R"". The computer will automatically advance to the next screen in 30 seconds.",,FILLER,30002,"Sand, next, ready, sandpaper, coarse, smooth, ",0,1571,9120,0,0,,,1
6012ed349807110d8eb941a6,eb8khw33k2,Ex2A_Prolific,1,37,2024-02-28T20:49:47+00:00,4.9294958114624,5,Stim_A.csv,Item.csv,Item,A,,,,,,0,Instruct,User,4,"You have completed this section. Please click next.",,Instruct166,4630,,,-1,-1,,,,,1
6012ed349807110d8eb941a6,eb8khw33k2,Ex2A_Prolific,1,38,2024-02-28T20:49:52+00:00,5.0031950473785,5,Stim_A.csv,Item.csv,Item,A,,,,,,0,Instruct,User,4,"You will now complete a memory test for the words you just studied. Please type as many words from the previous list as you can seperated by a comma. Spelling will not count against you and you can recall the words in any order. This test will be timed for one minute, and the computer will automatically advance once time is up. Click next when you are ready to begin.",,Instruct1666,4722,,,-1,-1,,,,,1
6012ed349807110d8eb941a6,eb8khw33k2,Ex2A_Prolific,1,39,2024-02-28T20:50:52+00:00,60.301120042801,5,Stim_A.csv,Item.csv,Item,A,,,,,,0,FreeRecall,60,60,"Please type as many words as you can from the previous study list in any order. Please separate each word with a comma. Spelling will not count against you. This screen will automatically advance in one minute.",,RECALL_Test,60005,"Ready, next, coarse, smooth, sand, sandpaper, rough, bumpy",0,1243,13461,0,0,,,0.5
6012ed349807110d8eb941a6,eb8khw33k2,Ex2A_Prolific,1,40,2024-02-28T20:50:56+00:00,3.9265010356903,5,Stim_A.csv,Item.csv,Item,A,,,,,,0,Instruct,User,3,"You will now be presented with a new study list. Click next when you are ready to begin.",,NEXT_LIST,3450,,,-1,-1,,,,,0
6012ed349807110d8eb941a6,eb8khw33k2,Ex2A_Prolific,1,41,2024-02-28T20:51:00+00:00,4.5558240413666,5,Stim_A.csv,Item.csv,Item,A,rage,,A1,,,26,JOL,User,1.25,"How likely are you to correctly recall the second item in the pair?|Type your response on a scale from 0-100 and then press Enter.",Anger,A1,4276,,,3013,3067,,,,20,1
6012ed349807110d8eb941a6,eb8khw33k2,Ex2A_Prolific,1,42,2024-02-28T20:51:05+00:00,4.3237838745117,5,Stim_A.csv,Item.csv,Item,A,mad,,A2,,,27,JOL,User,1.25,"How likely are you to correctly recall the second item in the pair?|Type your response on a scale from 0-100 and then press Enter.",Anger,A2,4039,,,2916,3038,,,,21,1
6012ed349807110d8eb941a6,eb8khw33k2,Ex2A_Prolific,1,43,2024-02-28T20:51:08+00:00,3.5413739681244,5,Stim_A.csv,Item.csv,Item,A,enrage,,A3,,,28,JOL,User,1.25,"How likely are you to correctly recall the second item in the pair?|Type your response on a scale from 0-100 and then press Enter.",Anger,A3,3257,,,2208,2222,,,,50,1
6012ed349807110d8eb941a6,eb8khw33k2,Ex2A_Prolific,1,44,2024-02-28T20:51:12+00:00,3.8269851207733,5,Stim_A.csv,Item.csv,Item,A,fury,,A4,,,29,JOL,User,1.25,"How likely are you to correctly recall the second item in the pair?|Type your response on a scale from 0-100 and then press Enter.",Anger,A4,3552,,,2534,2580,,,,40,1
6012ed349807110d8eb941a6,eb8khw33k2,Ex2A_Prolific,1,45,2024-02-28T20:51:16+00:00,4.2887768745422,5,Stim_A.csv,Item.csv,Item,A,temper,,A5,,,30,JOL,User,1.25,"How likely are you to correctly recall the second item in the pair?|Type your response on a scale from 0-100 and then press Enter.",Anger,A5,4008,,,2254,2277,,,,30,1
6012ed349807110d8eb941a6,eb8khw33k2,Ex2A_Prolific,1,46,2024-02-28T20:51:20+00:00,3.3789231777191,5,Stim_A.csv,Item.csv,Item,A,ire,,A6,,,31,JOL,User,1.25,"How likely are you to correctly recall the second item in the pair?|Type your response on a scale from 0-100 and then press Enter.",Anger,A6,3079,,,2090,2090,,,,1,1
6012ed349807110d8eb941a6,eb8khw33k2,Ex2A_Prolific,1,47,2024-02-28T20:51:24+00:00,3.8297028541565,5,Stim_A.csv,Item.csv,Item,A,wrath,,A7,,,32,JOL,User,1.25,"How likely are you to correctly recall the second item in the pair?|Type your response on a scale from 0-100 and then press Enter.",Anger,A7,3550,,,2554,2578,,,,45,1
6012ed349807110d8eb941a6,eb8khw33k2,Ex2A_Prolific,1,48,2024-02-28T20:51:27+00:00,3.1942181587219,5,Stim_A.csv,Item.csv,Item,A,mean,,A8,,,33,JOL,User,1.25,"How likely are you to correctly recall the second item in the pair?|Type your response on a scale from 0-100 and then press Enter.",Anger,A8,2924,,,1876,1956,,,,80,1
6012ed349807110d8eb941a6,eb8khw33k2,Ex2A_Prolific,1,49,2024-02-28T20:51:33+00:00,5.8367478847504,5,Stim_A.csv,Item.csv,Item,A,hatred,,A9,,,34,JOL,User,1.25,"How likely are you to correctly recall the second item in the pair?|Type your response on a scale from 0-100 and then press Enter.",Anger,A9,5545,,,4381,4644,,,,18,1
6012ed349807110d8eb941a6,eb8khw33k2,Ex2A_Prolific,1,50,2024-02-28T20:51:36+00:00,3.7476029396057,5,Stim_A.csv,Item.csv,Item,A,fight,,A10,,,35,JOL,User,1.25,"How likely are you to correctly recall the second item in the pair?|Type your response on a scale from 0-100 and then press Enter.",Anger,A10,3464,,,2394,2463,,,,20,1
6012ed349807110d8eb941a6,eb8khw33k2,Ex2A_Prolific,1,51,2024-02-28T20:51:41+00:00,4.380704164505,5,Stim_A.csv,Item.csv,Item,A,hate,,A11,,,36,JOL,User,1.25,"How likely are you to correctly recall the second item in the pair?|Type your response on a scale from 0-100 and then press Enter.",Anger,A11,4098,,,3104,3134,,,,54,1
6012ed349807110d8eb941a6,eb8khw33k2,Ex2A_Prolific,1,52,2024-02-28T20:51:45+00:00,4.3821089267731,5,Stim_A.csv,Item.csv,Item,A,fear,,A12,,,37,JOL,User,1.25,"How likely are you to correctly recall the second item in the pair?|Type your response on a scale from 0-100 and then press Enter.",Anger,A12,4108,,,3111,3159,,,,23,1
6012ed349807110d8eb941a6,eb8khw33k2,Ex2A_Prolific,1,53,2024-02-28T20:51:47+00:00,1.733705997467,5,Stim_A.csv,Item.csv,Item,A,,,,,,0,Instruct,User,-,"You have completed this section. Please click next.",,Instruct166,1460,,,-1,-1,,,,,1
6012ed349807110d8eb941a6,eb8khw33k2,Ex2A_Prolific,1,54,2024-02-28T20:52:17+00:00,30.292831897736,5,Stim_A.csv,Item.csv,Item,A,,,,,,0,FreeRecall,30,30,"Please type as many words as you can that begin with the letter ""L"". The computer will automatically advance to the next screen in 30 seconds.",,FILLER,30001,"Fury, rage, hate, hatred, mad, fight, wrath, anger, ire, ",0,1608,25039,0,0,,,1
6012ed349807110d8eb941a6,eb8khw33k2,Ex2A_Prolific,1,55,2024-02-28T20:52:19+00:00,1.7256062030792,5,Stim_A.csv,Item.csv,Item,A,,,,,,0,Instruct,User,-,"You have completed this section. Please click next.",,Instruct166,1421,,,-1,-1,,,,,1
6012ed349807110d8eb941a6,eb8khw33k2,Ex2A_Prolific,1,56,2024-02-28T20:52:24+00:00,4.8357019424438,5,Stim_A.csv,Item.csv,Item,A,,,,,,0,Instruct,User,4,"You will now complete a memory test for the words you just studied. Please type as many words from the previous list as you can seperated by a comma. Spelling will not count against you and you can recall the words in any order. This test will be timed for one minute, and the computer will automatically advance once time is up. Click next when you are ready to begin.",,Instruct1666,4552,,,-1,-1,,,,,1
6012ed349807110d8eb941a6,eb8khw33k2,Ex2A_Prolific,1,57,2024-02-28T20:53:24+00:00,60.286157846451,5,Stim_A.csv,Item.csv,Item,A,,,,,,0,FreeRecall,60,60,"Please type as many words as you can from the previous study list in any order. Please separate each word with a comma. Spelling will not count against you. This screen will automatically advance in one minute.",,RECALL_Test,60001,"Rage, fury, hate, hatred, fight, mad, ire, anger, ire, wrath, temper",0,6820,28093,0,0,,,0.547
6012ed349807110d8eb941a6,eb8khw33k2,Ex2A_Prolific,1,58,2024-02-28T20:53:28+00:00,3.8146522045135,5,Stim_A.csv,Item.csv,Item,A,,,,,,0,Instruct,User,3,"You will now be presented with a new study list. Click next when you are ready to begin.",,NEXT_LIST,3532,,,-1,-1,,,,,0.056
6012ed349807110d8eb941a6,eb8khw33k2,Ex2A_Prolific,1,59,2024-02-28T20:53:31+00:00,3.2559897899628,5,Stim_A.csv,Item.csv,Item,A,garbage,,T1,,,38,JOL,User,1.25,"How likely are you to correctly recall the second item in the pair?|Type your response on a scale from 0-100 and then press Enter.",Trash,T1,2979,,,1992,2015,,,,50,1
6012ed349807110d8eb941a6,eb8khw33k2,Ex2A_Prolific,1,60,2024-02-28T20:53:34+00:00,3.3932070732117,5,Stim_A.csv,Item.csv,Item,A,rubbish,,T2,,,39,JOL,User,1.25,"How likely are you to correctly recall the second item in the pair?|Type your response on a scale from 0-100 and then press Enter.",Trash,T2,3113,,,1947,2129,,,,52,1
6012ed349807110d8eb941a6,eb8khw33k2,Ex2A_Prolific,1,61,2024-02-28T20:53:39+00:00,4.1208460330963,5,Stim_A.csv,Item.csv,Item,A,debris,,T3,,,40,JOL,User,1.25,"How likely are you to correctly recall the second item in the pair?|Type your response on a scale from 0-100 and then press Enter.",Trash,T3,3833,,,2673,2929,,,,40,1
6012ed349807110d8eb941a6,eb8khw33k2,Ex2A_Prolific,1,62,2024-02-28T20:53:44+00:00,4.9754109382629,5,Stim_A.csv,Item.csv,Item,A,dump,,T4,,,41,JOL,User,1.25,"How likely are you to correctly recall the second item in the pair?|Type your response on a scale from 0-100 and then press Enter.",Trash,T4,4658,,,3576,3615,,,,45,1
6012ed349807110d8eb941a6,eb8khw33k2,Ex2A_Prolific,1,63,2024-02-28T20:53:49+00:00,5.393972158432,5,Stim_A.csv,Item.csv,Item,A,litter,,T5,,,42,JOL,User,1.25,"How likely are you to correctly recall the second item in the pair?|Type your response on a scale from 0-100 and then press Enter.",Trash,T5,5109,,,3795,3978,,,,85,1
6012ed349807110d8eb941a6,eb8khw33k2,Ex2A_Prolific,1,64,2024-02-28T20:53:55+00:00,5.7495138645172,5,Stim_A.csv,Item.csv,Item,A,landfill,,T6,,,43,JOL,User,1.25,"How likely are you to correctly recall the second item in the pair?|Type your response on a scale from 0-100 and then press Enter.",Trash,T6,5456,,,4290,4345,,,,23,1
6012ed349807110d8eb941a6,eb8khw33k2,Ex2A_Prolific,1,65,2024-02-28T20:54:01+00:00,6.3594710826874,5,Stim_A.csv,Item.csv,Item,A,junk,,T7,,,44,JOL,User,1.25,"How likely are you to correctly recall the second item in the pair?|Type your response on a scale from 0-100 and then press Enter.",Trash,T7,6089,,,4890,5035,,,,29,1
6012ed349807110d8eb941a6,eb8khw33k2,Ex2A_Prolific,1,66,2024-02-28T20:54:04+00:00,2.6874740123749,5,Stim_A.csv,Item.csv,Item,A,waste,,T8,,,45,JOL,User,1.25,"How likely are you to correctly recall the second item in the pair?|Type your response on a scale from 0-100 and then press Enter.",Trash,T8,2413,,,1432,1470,,,,80,1
6012ed349807110d8eb941a6,eb8khw33k2,Ex2A_Prolific,1,67,2024-02-28T20:54:07+00:00,3.5284378528595,5,Stim_A.csv,Item.csv,Item,A,sewage,,T9,,,46,JOL,User,1.25,"How likely are you to correctly recall the second item in the pair?|Type your response on a scale from 0-100 and then press Enter.",Trash,T9,3253,,,2176,2255,,,,19,1
6012ed349807110d8eb941a6,eb8khw33k2,Ex2A_Prolific,1,68,2024-02-28T20:54:11+00:00,3.7490060329437,5,Stim_A.csv,Item.csv,Item,A,pile,,T10,,,47,JOL,User,1.25,"How likely are you to correctly recall the second item in the pair?|Type your response on a scale from 0-100 and then press Enter.",Trash,T10,3463,,,2498,2498,,,,5,1
6012ed349807110d8eb941a6,eb8khw33k2,Ex2A_Prolific,1,69,2024-02-28T20:54:15+00:00,3.4984929561615,5,Stim_A.csv,Item.csv,Item,A,scraps,,T11,,,48,JOL,User,1.25,"How likely are you to correctly recall the second item in the pair?|Type your response on a scale from 0-100 and then press Enter.",Trash,T11,3227,,,2203,2260,,,,40,1
6012ed349807110d8eb941a6,eb8khw33k2,Ex2A_Prolific,1,70,2024-02-28T20:54:18+00:00,3.3371241092682,5,Stim_A.csv,Item.csv,Item,A,refuse,,T12,,,49,JOL,User,1.25,"How likely are you to correctly recall the second item in the pair?|Type your response on a scale from 0-100 and then press Enter.",Trash,T12,3032,,,1951,2006,,,,20,1
6012ed349807110d8eb941a6,eb8khw33k2,Ex2A_Prolific,1,71,2024-02-28T20:54:23+00:00,4.8677749633789,5,Stim_A.csv,Item.csv,Item,A,,,,,,0,Instruct,User,4,"You have completed this section. Please click next.",,Instruct166,4589,,,-1,-1,,,,,1
6012ed349807110d8eb941a6,eb8khw33k2,Ex2A_Prolific,1,72,2024-02-28T20:54:53+00:00,30.305536031723,5,Stim_A.csv,Item.csv,Item,A,,,,,,0,FreeRecall,30,30,"Please type as many words as you can that begin with the letter ""C"". The computer will automatically advance to the next screen in 30 seconds.",,FILLER,30002,"Garbage, litter, refuse, dump, sewage, debris, rubbish, waste",0,819,22230,0,0,,,1
6012ed349807110d8eb941a6,eb8khw33k2,Ex2A_Prolific,1,73,2024-02-28T20:54:55+00:00,1.9484779834747,5,Stim_A.csv,Item.csv,Item,A,,,,,,0,Instruct,User,-,"You have completed this section. Please click next.",,Instruct166,1663,,,-1,-1,,,,,1
6012ed349807110d8eb941a6,eb8khw33k2,Ex2A_Prolific,1,74,2024-02-28T20:55:00+00:00,4.9695320129395,5,Stim_A.csv,Item.csv,Item,A,,,,,,0,Instruct,User,4,"You will now complete a memory test for the words you just studied. Please type as many words from the previous list as you can seperated by a comma. Spelling will not count against you and you can recall the words in any order. This test will be timed for one minute, and the computer will automatically advance once time is up. Click next when you are ready to begin.",,Instruct1666,4677,,,-1,-1,,,,,1
6012ed349807110d8eb941a6,eb8khw33k2,Ex2A_Prolific,1,75,2024-02-28T20:56:00+00:00,60.294977903366,5,Stim_A.csv,Item.csv,Item,A,,,,,,0,FreeRecall,60,60,"Please type as many words as you can from the previous study list in any order. Please separate each word with a comma. Spelling will not count against you. This screen will automatically advance in one minute.",,RECALL_Test,60001,"Litter, refuse, sewage, dump, waste, debris, rubbish, garbage ",0,5805,36582,0,0,,,0.69
6012ed349807110d8eb941a6,eb8khw33k2,Ex2A_Prolific,1,76,2024-02-28T20:56:22+00:00,22.028515100479,5,Stim_A.csv,Item.csv,Item,A,,,,,,0,Instruct,User,3,"You will now be presented with a new study list. Click next when you are ready to begin.",,NEXT_LIST,21718,,,-1,-1,,,,,0.009
6012ed349807110d8eb941a6,eb8khw33k2,Ex2A_Prolific,1,77,2024-02-28T20:56:30+00:00,8.1325500011444,5,Stim_A.csv,Item.csv,Item,A,physician,,D1,,,50,JOL,User,1.25,"How likely are you to correctly recall the second item in the pair?|Type your response on a scale from 0-100 and then press Enter.",Doctor,D1,7833,,,6836,6866,,,,20,1
6012ed349807110d8eb941a6,eb8khw33k2,Ex2A_Prolific,1,78,2024-02-28T20:56:37+00:00,6.5433039665222,5,Stim_A.csv,Item.csv,Item,A,nurse,,D2,,,51,JOL,User,1.25,"How likely are you to correctly recall the second item in the pair?|Type your response on a scale from 0-100 and then press Enter.",Doctor,D2,6254,,,5257,5350,,,,15,1
6012ed349807110d8eb941a6,eb8khw33k2,Ex2A_Prolific,1,79,2024-02-28T20:56:45+00:00,8.2013349533081,5,Stim_A.csv,Item.csv,Item,A,stethoscope,,D3,,,52,JOL,User,1.25,"How likely are you to correctly recall the second item in the pair?|Type your response on a scale from 0-100 and then press Enter.",Doctor,D3,7916,,,6786,6856,,,,30,1
6012ed349807110d8eb941a6,eb8khw33k2,Ex2A_Prolific,1,80,2024-02-28T20:56:49+00:00,4.1948161125183,5,Stim_A.csv,Item.csv,Item,A,surgeon,,D4,,,53,JOL,User,1.25,"How likely are you to correctly recall the second item in the pair?|Type your response on a scale from 0-100 and then press Enter.",Doctor,D4,3916,,,2095,2190,,,,20,1
6012ed349807110d8eb941a6,eb8khw33k2,Ex2A_Prolific,1,81,2024-02-28T20:56:56+00:00,6.6347630023956,5,Stim_A.csv,Item.csv,Item,A,patient,,D5,,,54,JOL,User,1.25,"How likely are you to correctly recall the second item in the pair?|Type your response on a scale from 0-100 and then press Enter.",Doctor,D5,6342,,,5092,5163,,,,50,1
6012ed349807110d8eb941a6,eb8khw33k2,Ex2A_Prolific,1,82,2024-02-28T20:57:03+00:00,6.6048400402069,5,Stim_A.csv,Item.csv,Item,A,clinic,,D6,,,55,JOL,User,1.25,"How likely are you to correctly recall the second item in the pair?|Type your response on a scale from 0-100 and then press Enter.",Doctor,D6,6328,,,5163,5247,,,,15,1
6012ed349807110d8eb941a6,eb8khw33k2,Ex2A_Prolific,1,83,2024-02-28T20:57:15+00:00,12.17112994194,5,Stim_A.csv,Item.csv,Item,A,dentist,,D7,,,56,JOL,User,1.25,"How likely are you to correctly recall the second item in the pair?|Type your response on a scale from 0-100 and then press Enter.",Doctor,D7,11887,,,10739,10740,,,,5,1
6012ed349807110d8eb941a6,eb8khw33k2,Ex2A_Prolific,1,84,2024-02-28T20:57:25+00:00,9.9681708812714,5,Stim_A.csv,Item.csv,Item,A,medicine,,D8,,,57,JOL,User,1.25,"How likely are you to correctly recall the second item in the pair?|Type your response on a scale from 0-100 and then press Enter.",Doctor,D8,9681,,,8296,8405,,,,70,1
6012ed349807110d8eb941a6,eb8khw33k2,Ex2A_Prolific,1,85,2024-02-28T20:57:32+00:00,7.6124939918518,5,Stim_A.csv,Item.csv,Item,A,lawyer,,D9,,,58,JOL,User,1.25,"How likely are you to correctly recall the second item in the pair?|Type your response on a scale from 0-100 and then press Enter.",Doctor,D9,7328,,,6301,6301,,,,1,1
6012ed349807110d8eb941a6,eb8khw33k2,Ex2A_Prolific,1,86,2024-02-28T20:57:41+00:00,9.1058170795441,5,Stim_A.csv,Item.csv,Item,A,health,,D10,,,59,JOL,User,1.25,"How likely are you to correctly recall the second item in the pair?|Type your response on a scale from 0-100 and then press Enter.",Doctor,D10,8831,,,7633,7662,,,,23,1
6012ed349807110d8eb941a6,eb8khw33k2,Ex2A_Prolific,1,87,2024-02-28T20:57:46+00:00,4.1145150661469,5,Stim_A.csv,Item.csv,Item,A,sick,,D11,,,60,JOL,User,1.25,"How likely are you to correctly recall the second item in the pair?|Type your response on a scale from 0-100 and then press Enter.",Doctor,D11,3838,,,2680,2759,,,,70,1
6012ed349807110d8eb941a6,eb8khw33k2,Ex2A_Prolific,1,88,2024-02-28T20:57:53+00:00,7.2391710281372,5,Stim_A.csv,Item.csv,Item,A,cure,,D12,,,61,JOL,User,1.25,"How likely are you to correctly recall the second item in the pair?|Type your response on a scale from 0-100 and then press Enter.",Doctor,D12,6961,,,5616,5631,,,,62,1
6012ed349807110d8eb941a6,eb8khw33k2,Ex2A_Prolific,1,89,2024-02-28T20:57:58+00:00,4.9832730293274,5,Stim_A.csv,Item.csv,Item,A,,,,,,0,Instruct,User,4,"You have completed this section. Please click next.",,Instruct166,4704,,,-1,-1,,,,,1
6012ed349807110d8eb941a6,eb8khw33k2,Ex2A_Prolific,1,90,2024-02-28T20:58:28+00:00,30.319172859192,5,Stim_A.csv,Item.csv,Item,A,,,,,,0,FreeRecall,30,30,"Please type as many words as you can that begin with the letter ""M"". The computer will automatically advance to the next screen in 30 seconds.",,FILLER,30001,"Sick, cure, health, medicine, surgeon, nurse, patient, stethoscope, den",0,3444,29918,0,0,,,1
6012ed349807110d8eb941a6,eb8khw33k2,Ex2A_Prolific,1,91,2024-02-28T20:58:33+00:00,4.7834179401398,5,Stim_A.csv,Item.csv,Item,A,,,,,,0,Instruct,User,4,"You have completed this section. Please click next.",,Instruct166,4487,,,-1,-1,,,,,1
6012ed349807110d8eb941a6,eb8khw33k2,Ex2A_Prolific,1,92,2024-02-28T20:58:38+00:00,5.3880569934845,5,Stim_A.csv,Item.csv,Item,A,,,,,,0,Instruct,User,4,"You will now complete a memory test for the words you just studied. Please type as many words from the previous list as you can seperated by a comma. Spelling will not count against you and you can recall the words in any order. This test will be timed for one minute, and the computer will automatically advance once time is up. Click next when you are ready to begin.",,Instruct1666,5089,,,-1,-1,,,,,1
6012ed349807110d8eb941a6,eb8khw33k2,Ex2A_Prolific,1,93,2024-02-28T20:59:39+00:00,60.307498216629,5,Stim_A.csv,Item.csv,Item,A,,,,,,0,FreeRecall,60,60,"Please type as many words as you can from the previous study list in any order. Please separate each word with a comma. Spelling will not count against you. This screen will automatically advance in one minute.",,RECALL_Test,60002,"Dentist, stethoscope, medicine, sick, cure, health, patient, surgeon, nurse",0,789,16646,0,0,,,0.33
6012ed349807110d8eb941a6,eb8khw33k2,Ex2A_Prolific,1,94,2024-02-28T20:59:44+00:00,5.3611710071564,5,Stim_A.csv,Item.csv,Item,A,,,,,,0,Instruct,User,3,"You will now be presented with a new study list. Click next when you are ready to begin.",,NEXT_LIST,4955,,,-1,-1,,,,,0
6012ed349807110d8eb941a6,eb8khw33k2,Ex2A_Prolific,1,95,2024-02-28T20:59:47+00:00,3.2821199893951,5,Stim_A.csv,Item.csv,Item,A,fast,,S1,,,62,JOL,User,1.25,"How likely are you to correctly recall the second item in the pair?|Type your response on a scale from 0-100 and then press Enter.",Slow,S1,2997,,,1779,1820,,,,20,1
6012ed349807110d8eb941a6,eb8khw33k2,Ex2A_Prolific,1,96,2024-02-28T20:59:52+00:00,4.4016909599304,5,Stim_A.csv,Item.csv,Item,A,snail,,S2,,,63,JOL,User,1.25,"How likely are you to correctly recall the second item in the pair?|Type your response on a scale from 0-100 and then press Enter.",Slow,S2,4120,,,2924,2955,,,,30,1
6012ed349807110d8eb941a6,eb8khw33k2,Ex2A_Prolific,1,97,2024-02-28T20:59:59+00:00,7.0412590503693,5,Stim_A.csv,Item.csv,Item,A,turtle,,S3,,,64,JOL,User,1.25,"How likely are you to correctly recall the second item in the pair?|Type your response on a scale from 0-100 and then press Enter.",Slow,S3,6761,,,5698,5793,,,,35,1
6012ed349807110d8eb941a6,eb8khw33k2,Ex2A_Prolific,1,98,2024-02-28T21:00:04+00:00,5.7129487991333,5,Stim_A.csv,Item.csv,Item,A,sluggish,,S4,,,65,JOL,User,1.25,"How likely are you to correctly recall the second item in the pair?|Type your response on a scale from 0-100 and then press Enter.",Slow,S4,5417,,,4261,4261,,,,5,1
6012ed349807110d8eb941a6,eb8khw33k2,Ex2A_Prolific,1,99,2024-02-28T21:00:12+00:00,7.5731539726257,5,Stim_A.csv,Item.csv,Item,A,quick,,S5,,,66,JOL,User,1.25,"How likely are you to correctly recall the second item in the pair?|Type your response on a scale from 0-100 and then press Enter.",Slow,S5,7288,,,3161,6330,,,,90,1
6012ed349807110d8eb941a6,eb8khw33k2,Ex2A_Prolific,1,100,2024-02-28T21:00:17+00:00,5.4926471710205,5,Stim_A.csv,Item.csv,Item,A,molasses,,S6,,,67,JOL,User,1.25,"How likely are you to correctly recall the second item in the pair?|Type your response on a scale from 0-100 and then press Enter.",Slow,S6,5202,,,4194,4194,,,,2,1
6012ed349807110d8eb941a6,eb8khw33k2,Ex2A_Prolific,1,101,2024-02-28T21:00:21+00:00,3.946035861969,5,Stim_A.csv,Item.csv,Item,A,lethargic,,S7,,,68,JOL,User,1.25,"How likely are you to correctly recall the second item in the pair?|Type your response on a scale from 0-100 and then press Enter.",Slow,S7,3675,,,2038,2038,,,,5,1
6012ed349807110d8eb941a6,eb8khw33k2,Ex2A_Prolific,1,102,2024-02-28T21:00:25+00:00,3.8049941062927,5,Stim_A.csv,Item.csv,Item,A,speed,,S8,,,69,JOL,User,1.25,"How likely are you to correctly recall the second item in the pair?|Type your response on a scale from 0-100 and then press Enter.",Slow,S8,3532,,,2396,2419,,,,45,1
6012ed349807110d8eb941a6,eb8khw33k2,Ex2A_Prolific,1,103,2024-02-28T21:00:33+00:00,7.3703520298004,5,Stim_A.csv,Item.csv,Item,A,delay,,S9,,,70,JOL,User,1.25,"How likely are you to correctly recall the second item in the pair?|Type your response on a scale from 0-100 and then press Enter.",Slow,S9,7087,,,5957,6099,,,,33,1
6012ed349807110d8eb941a6,eb8khw33k2,Ex2A_Prolific,1,104,2024-02-28T21:00:38+00:00,5.639762878418,5,Stim_A.csv,Item.csv,Item,A,hesitant,,S10,,,71,JOL,User,1.25,"How likely are you to correctly recall the second item in the pair?|Type your response on a scale from 0-100 and then press Enter.",Slow,S10,5362,,,4247,4247,,,,7,1
6012ed349807110d8eb941a6,eb8khw33k2,Ex2A_Prolific,1,105,2024-02-28T21:00:49+00:00,11.132825136185,5,Stim_A.csv,Item.csv,Item,A,cautious,,S11,,,72,JOL,User,1.25,"How likely are you to correctly recall the second item in the pair?|Type your response on a scale from 0-100 and then press Enter.",Slow,S11,10838,,,9659,9740,,,,18,1
6012ed349807110d8eb941a6,eb8khw33k2,Ex2A_Prolific,1,106,2024-02-28T21:00:55+00:00,5.2521138191223,5,Stim_A.csv,Item.csv,Item,A,traffic,,S12,,,73,JOL,User,1.25,"How likely are you to correctly recall the second item in the pair?|Type your response on a scale from 0-100 and then press Enter.",Slow,S12,4864,,,3522,3544,,,,15,1
6012ed349807110d8eb941a6,eb8khw33k2,Ex2A_Prolific,1,107,2024-02-28T21:01:00+00:00,5.4525291919708,5,Stim_A.csv,Item.csv,Item,A,,,,,,0,Instruct,User,-,"You have completed this section. Please click next.",,Instruct166,5173,,,-1,-1,,,,,1
6012ed349807110d8eb941a6,eb8khw33k2,Ex2A_Prolific,1,108,2024-02-28T21:01:30+00:00,30.305589914322,5,Stim_A.csv,Item.csv,Item,A,,,,,,0,FreeRecall,30,30,"Please type as many words as you can that begin with the letter ""N"". The computer will automatically advance to the next screen in 30 seconds.",,FILLER,30001,"Traffic, delay, quick, speed, fast, snail",0,3132,12541,0,0,,,0.553
6012ed349807110d8eb941a6,eb8khw33k2,Ex2A_Prolific,1,109,2024-02-28T21:01:35+00:00,4.3235130310059,5,Stim_A.csv,Item.csv,Item,A,,,,,,0,Instruct,User,-,"You have completed this section. Please click next.",,Instruct166,4014,,,-1,-1,,,,,0.05
6012ed349807110d8eb941a6,eb8khw33k2,Ex2A_Prolific,1,110,2024-02-28T21:02:06+00:00,31.062898874283,5,Stim_A.csv,Item.csv,Item,A,,,,,,0,Instruct,User,4,"You will now complete a memory test for the words you just studied. Please type as many words from the previous list as you can seperated by a comma. Spelling will not count against you and you can recall the words in any order. This test will be timed for one minute, and the computer will automatically advance once time is up. Click next when you are ready to begin.",,Instruct1666,30766,,,-1,-1,,,,,0.072
6012ed349807110d8eb941a6,eb8khw33k2,Ex2A_Prolific,1,111,2024-02-28T21:03:06+00:00,60.305224180222,5,Stim_A.csv,Item.csv,Item,A,,,,,,0,FreeRecall,60,60,"Please type as many words as you can from the previous study list in any order. Please separate each word with a comma. Spelling will not count against you. This screen will automatically advance in one minute.",,RECALL_Test,60001,"quick, traffic, delay, speed, cautious, turtle, snail, fast",0,1899,12930,0,0,,,0.267
6012ed349807110d8eb941a6,eb8khw33k2,Ex2A_Prolific,1,112,2024-02-28T21:03:10+00:00,3.9303538799286,5,Stim_A.csv,Item.csv,Item,A,,,,,,0,Instruct,User,3,"You will now be presented with a new study list. Click next when you are ready to begin.",,NEXT_LIST,3630,,,-1,-1,,,,,0
6012ed349807110d8eb941a6,eb8khw33k2,Ex2A_Prolific,1,113,2024-02-28T21:03:17+00:00,6.6413469314575,5,Stim_A.csv,Item.csv,Item,A,mississippi,,RR1,,,74,JOL,User,1.25,"How likely are you to correctly recall the second item in the pair?|Type your response on a scale from 0-100 and then press Enter.",River,RR1,6337,,,5051,5107,,,,80,0.581
6012ed349807110d8eb941a6,eb8khw33k2,Ex2A_Prolific,1,114,2024-02-28T21:03:28+00:00,10.955037117004,5,Stim_A.csv,Item.csv,Item,A,creek,,RR2,,,75,JOL,User,1.25,"How likely are you to correctly recall the second item in the pair?|Type your response on a scale from 0-100 and then press Enter.",River,RR2,10668,,,9630,9630,,,,5,1
6012ed349807110d8eb941a6,eb8khw33k2,Ex2A_Prolific,1,115,2024-02-28T21:03:32+00:00,4.717887878418,5,Stim_A.csv,Item.csv,Item,A,stream,,RR3,,,76,JOL,User,1.25,"How likely are you to correctly recall the second item in the pair?|Type your response on a scale from 0-100 and then press Enter.",River,RR3,4436,,,2651,3398,,,,10,1
6012ed349807110d8eb941a6,eb8khw33k2,Ex2A_Prolific,1,116,2024-02-28T21:03:39+00:00,6.8292350769043,5,Stim_A.csv,Item.csv,Item,A,flow,,RR4,,,77,JOL,User,1.25,"How likely are you to correctly recall the second item in the pair?|Type your response on a scale from 0-100 and then press Enter.",River,RR4,6545,,,5194,5514,,,,20,1
6012ed349807110d8eb941a6,eb8khw33k2,Ex2A_Prolific,1,117,2024-02-28T21:03:45+00:00,5.5413661003113,5,Stim_A.csv,Item.csv,Item,A,bridge,,RR5,,,78,JOL,User,1.25,"How likely are you to correctly recall the second item in the pair?|Type your response on a scale from 0-100 and then press Enter.",River,RR5,5269,,,3954,4016,,,,30,1
6012ed349807110d8eb941a6,eb8khw33k2,Ex2A_Prolific,1,118,2024-02-28T21:03:52+00:00,7.4362478256226,5,Stim_A.csv,Item.csv,Item,A,brook,,RR6,,,79,JOL,User,1.25,"How likely are you to correctly recall the second item in the pair?|Type your response on a scale from 0-100 and then press Enter.",River,RR6,7167,,,6032,6032,,,,3,1
6012ed349807110d8eb941a6,eb8khw33k2,Ex2A_Prolific,1,119,2024-02-28T21:03:56+00:00,4.3155210018158,5,Stim_A.csv,Item.csv,Item,A,lake,,RR7,,,80,JOL,User,1.25,"How likely are you to correctly recall the second item in the pair?|Type your response on a scale from 0-100 and then press Enter.",River,RR7,4021,,,2781,2844,,,,50,1
6012ed349807110d8eb941a6,eb8khw33k2,Ex2A_Prolific,1,120,2024-02-28T21:04:05+00:00,8.4188761711121,5,Stim_A.csv,Item.csv,Item,A,barge,,RR8,,,81,JOL,User,1.25,"How likely are you to correctly recall the second item in the pair?|Type your response on a scale from 0-100 and then press Enter.",River,RR8,8137,,,6256,6295,,,,15,1
6012ed349807110d8eb941a6,eb8khw33k2,Ex2A_Prolific,1,121,2024-02-28T21:04:09+00:00,3.6759579181671,5,Stim_A.csv,Item.csv,Item,A,water,,RR9,,,82,JOL,User,1.25,"How likely are you to correctly recall the second item in the pair?|Type your response on a scale from 0-100 and then press Enter.",River,RR9,3389,,,2326,2379,,,,90,1
6012ed349807110d8eb941a6,eb8khw33k2,Ex2A_Prolific,1,122,2024-02-28T21:04:14+00:00,5.538852930069,5,Stim_A.csv,Item.csv,Item,A,boat,,RR10,,,83,JOL,User,1.25,"How likely are you to correctly recall the second item in the pair?|Type your response on a scale from 0-100 and then press Enter.",River,RR10,5260,,,4074,4113,,,,60,1
6012ed349807110d8eb941a6,eb8khw33k2,Ex2A_Prolific,1,123,2024-02-28T21:04:20+00:00,6.4199421405792,5,Stim_A.csv,Item.csv,Item,A,tide,,RR11,,,84,JOL,User,1.25,"How likely are you to correctly recall the second item in the pair?|Type your response on a scale from 0-100 and then press Enter.",River,RR11,6144,,,4867,4921,,,,10,1
6012ed349807110d8eb941a6,eb8khw33k2,Ex2A_Prolific,1,124,2024-02-28T21:04:26+00:00,5.5039720535278,5,Stim_A.csv,Item.csv,Item,A,swim,,RR12,,,85,JOL,User,1.25,"How likely are you to correctly recall the second item in the pair?|Type your response on a scale from 0-100 and then press Enter.",River,RR12,5215,,,4170,4234,,,,70,1
6012ed349807110d8eb941a6,eb8khw33k2,Ex2A_Prolific,1,125,2024-02-28T21:04:31+00:00,4.5633859634399,5,Stim_A.csv,Item.csv,Item,A,,,,,,0,Instruct,User,-,"You have completed this section. Please click next.",,Instruct166,4290,,,-1,-1,,,,,1
6012ed349807110d8eb941a6,eb8khw33k2,Ex2A_Prolific,1,126,2024-02-28T21:05:01+00:00,30.294373035431,5,Stim_A.csv,Item.csv,Item,A,,,,,,0,FreeRecall,30,30,"Please type as many words as you can that begin with the letter ""K"". The computer will automatically advance to the next screen in 30 seconds.",,FILLER,30002,"swim, boat, water, lake, stream, flow",0,1520,7152,0,0,,,0.376
6012ed349807110d8eb941a6,eb8khw33k2,Ex2A_Prolific,1,127,2024-02-28T21:05:36+00:00,34.678650856018,5,Stim_A.csv,Item.csv,Item,A,,,,,,0,Instruct,User,4,"You have completed this section. Please click next.",,Instruct166,33767,,,-1,-1,,,,,0
6012ed349807110d8eb941a6,eb8khw33k2,Ex2A_Prolific,1,128,2024-02-28T21:05:40+00:00,4.9516880512238,5,Stim_A.csv,Item.csv,Item,A,,,,,,0,Instruct,User,4,"You will now complete a memory test for the words you just studied. Please type as many words from the previous list as you can seperated by a comma. Spelling will not count against you and you can recall the words in any order. This test will be timed for one minute, and the computer will automatically advance once time is up. Click next when you are ready to begin.",,Instruct1666,4654,,,-1,-1,,,,,1
6012ed349807110d8eb941a6,eb8khw33k2,Ex2A_Prolific,1,129,2024-02-28T21:06:41+00:00,60.293206930161,5,Stim_A.csv,Item.csv,Item,A,,,,,,0,FreeRecall,60,60,"Please type as many words as you can from the previous study list in any order. Please separate each word with a comma. Spelling will not count against you. This screen will automatically advance in one minute.",,RECALL_Test,60001,"bridge, stream, boat, water, swim, flow, mississippi",0,2018,23182,0,0,,,0.443
6012ed349807110d8eb941a6,eb8khw33k2,Ex2A_Prolific,1,130,2024-02-28T21:06:51+00:00,9.8643670082092,5,Stim_A.csv,Item.csv,Item,A,,,,,,0,Instruct,User,3,"You will now be presented with a new study list. Click next when you are ready to begin.",,NEXT_LIST,9541,,,-1,-1,,,,,0.021
6012ed349807110d8eb941a6,eb8khw33k2,Ex2A_Prolific,1,131,2024-02-28T21:07:01+00:00,10.082188129425,5,Stim_A.csv,Item.csv,Item,A,rye,,B1,,,86,JOL,User,1.25,"How likely are you to correctly recall the second item in the pair?|Type your response on a scale from 0-100 and then press Enter.",Bread,B1,9800,,,2589,2643,,,,90,1
6012ed349807110d8eb941a6,eb8khw33k2,Ex2A_Prolific,1,132,2024-02-28T21:07:04+00:00,2.8858568668365,5,Stim_A.csv,Item.csv,Item,A,loaf,,B2,,,87,JOL,User,1.25,"How likely are you to correctly recall the second item in the pair?|Type your response on a scale from 0-100 and then press Enter.",Bread,B2,2605,,,1517,1564,,,,80,1
6012ed349807110d8eb941a6,eb8khw33k2,Ex2A_Prolific,1,133,2024-02-28T21:07:09+00:00,5.0920450687408,5,Stim_A.csv,Item.csv,Item,A,butter,,B3,,,88,JOL,User,1.25,"How likely are you to correctly recall the second item in the pair?|Type your response on a scale from 0-100 and then press Enter.",Bread,B3,4821,,,3794,3825,,,,70,1
6012ed349807110d8eb941a6,eb8khw33k2,Ex2A_Prolific,1,134,2024-02-28T21:07:15+00:00,6.7629210948944,5,Stim_A.csv,Item.csv,Item,A,toast,,B4,,,89,JOL,User,1.25,"How likely are you to correctly recall the second item in the pair?|Type your response on a scale from 0-100 and then press Enter.",Bread,B4,6484,,,5371,5418,,,,75,1
6012ed349807110d8eb941a6,eb8khw33k2,Ex2A_Prolific,1,135,2024-02-28T21:07:22+00:00,6.562558889389,5,Stim_A.csv,Item.csv,Item,A,dough,,B5,,,90,JOL,User,1.25,"How likely are you to correctly recall the second item in the pair?|Type your response on a scale from 0-100 and then press Enter.",Bread,B5,6279,,,5040,5112,,,,30,1
6012ed349807110d8eb941a6,eb8khw33k2,Ex2A_Prolific,1,136,2024-02-28T21:07:28+00:00,5.7902679443359,5,Stim_A.csv,Item.csv,Item,A,crust,,B6,,,91,JOL,User,1.25,"How likely are you to correctly recall the second item in the pair?|Type your response on a scale from 0-100 and then press Enter.",Bread,B6,5511,,,4406,4445,,,,15,1
6012ed349807110d8eb941a6,eb8khw33k2,Ex2A_Prolific,1,137,2024-02-28T21:07:33+00:00,5.3872301578522,5,Stim_A.csv,Item.csv,Item,A,flour,,B7,,,92,JOL,User,1.25,"How likely are you to correctly recall the second item in the pair?|Type your response on a scale from 0-100 and then press Enter.",Bread,B7,5105,,,3968,4006,,,,60,1
6012ed349807110d8eb941a6,eb8khw33k2,Ex2A_Prolific,1,138,2024-02-28T21:07:39+00:00,5.9564759731293,5,Stim_A.csv,Item.csv,Item,A,sandwich,,B8,,,93,JOL,User,1.25,"How likely are you to correctly recall the second item in the pair?|Type your response on a scale from 0-100 and then press Enter.",Bread,B8,5679,,,4491,4577,,,,95,1
6012ed349807110d8eb941a6,eb8khw33k2,Ex2A_Prolific,1,139,2024-02-28T21:07:47+00:00,7.7983620166779,5,Stim_A.csv,Item.csv,Item,A,jam,,B9,,,94,JOL,User,1.25,"How likely are you to correctly recall the second item in the pair?|Type your response on a scale from 0-100 and then press Enter.",Bread,B9,7531,,,6247,6283,,,,35,1
6012ed349807110d8eb941a6,eb8khw33k2,Ex2A_Prolific,1,140,2024-02-28T21:07:54+00:00,7.3700308799744,5,Stim_A.csv,Item.csv,Item,A,jelly,,B10,,,95,JOL,User,1.25,"How likely are you to correctly recall the second item in the pair?|Type your response on a scale from 0-100 and then press Enter.",Bread,B10,7091,,,6060,6115,,,,45,1
6012ed349807110d8eb941a6,eb8khw33k2,Ex2A_Prolific,1,141,2024-02-28T21:08:01+00:00,6.1988580226898,5,Stim_A.csv,Item.csv,Item,A,slice,,B11,,,96,JOL,User,1.25,"How likely are you to correctly recall the second item in the pair?|Type your response on a scale from 0-100 and then press Enter.",Bread,B11,5926,,,5010,5010,,,,5,1
6012ed349807110d8eb941a6,eb8khw33k2,Ex2A_Prolific,1,142,2024-02-28T21:08:05+00:00,4.402487039566,5,Stim_A.csv,Item.csv,Item,A,milk,,B12,,,97,JOL,User,1.25,"How likely are you to correctly recall the second item in the pair?|Type your response on a scale from 0-100 and then press Enter.",Bread,B12,4114,,,2999,3028,,,,40,1
6012ed349807110d8eb941a6,eb8khw33k2,Ex2A_Prolific,1,143,2024-02-28T21:08:10+00:00,4.7933039665222,5,Stim_A.csv,Item.csv,Item,A,,,,,,0,Instruct,User,4,"You have completed this section. Please click next.",,Instruct166,4520,,,-1,-1,,,,,1
6012ed349807110d8eb941a6,eb8khw33k2,Ex2A_Prolific,1,144,2024-02-28T21:08:40+00:00,30.294224023819,5,Stim_A.csv,Item.csv,Item,A,,,,,,0,FreeRecall,30,30,"Please type as many words as you can that begin with the letter ""W"". The computer will automatically advance to the next screen in 30 seconds.",,FILLER,30001,"milk, sandwich, dough, flour, butter, rye, loaf, toast",0,1713,13137,0,0,,,0.653
6012ed349807110d8eb941a6,eb8khw33k2,Ex2A_Prolific,1,145,2024-02-28T21:08:43+00:00,3.0801529884338,5,Stim_A.csv,Item.csv,Item,A,,,,,,0,Instruct,User,-,"You have completed this section. Please click next.",,Instruct166,2785,,,-1,-1,,,,,0
6012ed349807110d8eb941a6,eb8khw33k2,Ex2A_Prolific,1,146,2024-02-28T21:08:48+00:00,5.3466129302979,5,Stim_A.csv,Item.csv,Item,A,,,,,,0,Instruct,User,4,"You will now complete a memory test for the words you just studied. Please type as many words from the previous list as you can seperated by a comma. Spelling will not count against you and you can recall the words in any order. This test will be timed for one minute, and the computer will automatically advance once time is up. Click next when you are ready to begin.",,Instruct1666,5066,,,-1,-1,,,,,1
6012ed349807110d8eb941a6,eb8khw33k2,Ex2A_Prolific,1,147,2024-02-28T21:09:49+00:00,60.307835102081,5,Stim_A.csv,Item.csv,Item,A,,,,,,0,FreeRecall,60,60,"Please type as many words as you can from the previous study list in any order. Please separate each word with a comma. Spelling will not count against you. This screen will automatically advance in one minute.",,RECALL_Test,60002,"dough, flour, rye, loaf, toast, butter, jelly, jam, milk, sandwich",0,3004,23027,0,0,,,0.417
6012ed349807110d8eb941a6,eb8khw33k2,Ex2A_Prolific,1,148,2024-02-28T21:09:52+00:00,3.7384510040283,5,Stim_A.csv,Item.csv,Item,A,,,,,,0,Instruct,User,3,"You will now be presented with a new study list. Click next when you are ready to begin.",,NEXT_LIST,3427,,,-1,-1,,,,,0
6012ed349807110d8eb941a6,eb8khw33k2,Ex2A_Prolific,1,149,2024-02-28T21:09:56+00:00,3.6595778465271,5,Stim_A.csv,Item.csv,Item,A,banner,,F1,,,98,JOL,User,1.25,"How likely are you to correctly recall the second item in the pair?|Type your response on a scale from 0-100 and then press Enter.",Flag,F1,3373,,,2354,2354,,,,7,1
6012ed349807110d8eb941a6,eb8khw33k2,Ex2A_Prolific,1,150,2024-02-28T21:10:00+00:00,4.1024360656738,5,Stim_A.csv,Item.csv,Item,A,checkered,,F2,,,99,JOL,User,1.25,"How likely are you to correctly recall the second item in the pair?|Type your response on a scale from 0-100 and then press Enter.",Flag,F2,3797,,,2826,2826,,,,9,1
6012ed349807110d8eb941a6,eb8khw33k2,Ex2A_Prolific,1,151,2024-02-28T21:10:04+00:00,4.1867799758911,5,Stim_A.csv,Item.csv,Item,A,american,,F3,,,100,JOL,User,1.25,"How likely are you to correctly recall the second item in the pair?|Type your response on a scale from 0-100 and then press Enter.",Flag,F3,3902,,,2455,2519,,,,90,1
6012ed349807110d8eb941a6,eb8khw33k2,Ex2A_Prolific,1,152,2024-02-28T21:10:21+00:00,16.480937004089,5,Stim_A.csv,Item.csv,Item,A,stripes,,F4,,,101,JOL,User,1.25,"How likely are you to correctly recall the second item in the pair?|Type your response on a scale from 0-100 and then press Enter.",Flag,F4,16109,,,14850,14873,,,,60,1
6012ed349807110d8eb941a6,eb8khw33k2,Ex2A_Prolific,1,153,2024-02-28T21:10:33+00:00,12.105515956879,5,Stim_A.csv,Item.csv,Item,A,pole,,F5,,,102,JOL,User,1.25,"How likely are you to correctly recall the second item in the pair?|Type your response on a scale from 0-100 and then press Enter.",Flag,F5,11814,,,4394,4394,,,,7,1
6012ed349807110d8eb941a6,eb8khw33k2,Ex2A_Prolific,1,154,2024-02-28T21:10:37+00:00,3.6024520397186,5,Stim_A.csv,Item.csv,Item,A,anthem,,F6,,,103,JOL,User,1.25,"How likely are you to correctly recall the second item in the pair?|Type your response on a scale from 0-100 and then press Enter.",Flag,F6,3323,,,2227,2379,,,,80,1
6012ed349807110d8eb941a6,eb8khw33k2,Ex2A_Prolific,1,155,2024-02-28T21:10:43+00:00,6.1370041370392,5,Stim_A.csv,Item.csv,Item,A,emblem,,F7,,,104,JOL,User,1.25,"How likely are you to correctly recall the second item in the pair?|Type your response on a scale from 0-100 and then press Enter.",Flag,F7,5857,,,4397,4440,,,,30,1
6012ed349807110d8eb941a6,eb8khw33k2,Ex2A_Prolific,1,156,2024-02-28T21:10:47+00:00,3.8386309146881,5,Stim_A.csv,Item.csv,Item,A,national,,F8,,,105,JOL,User,1.25,"How likely are you to correctly recall the second item in the pair?|Type your response on a scale from 0-100 and then press Enter.",Flag,F8,3566,,,2543,2606,,,,20,1
6012ed349807110d8eb941a6,eb8khw33k2,Ex2A_Prolific,1,157,2024-02-28T21:10:52+00:00,5.207818031311,5,Stim_A.csv,Item.csv,Item,A,freedom,,F9,,,106,JOL,User,1.25,"How likely are you to correctly recall the second item in the pair?|Type your response on a scale from 0-100 and then press Enter.",Flag,F9,4936,,,3652,3718,,,,40,1
6012ed349807110d8eb941a6,eb8khw33k2,Ex2A_Prolific,1,158,2024-02-28T21:10:57+00:00,5.1559369564056,5,Stim_A.csv,Item.csv,Item,A,symbol,,F10,,,107,JOL,User,1.25,"How likely are you to correctly recall the second item in the pair?|Type your response on a scale from 0-100 and then press Enter.",Flag,F10,4879,,,3277,3324,,,,30,1
6012ed349807110d8eb941a6,eb8khw33k2,Ex2A_Prolific,1,159,2024-02-28T21:11:01+00:00,4.248214006424,5,Stim_A.csv,Item.csv,Item,A,wave,,F11,,,108,JOL,User,1.25,"How likely are you to correctly recall the second item in the pair?|Type your response on a scale from 0-100 and then press Enter.",Flag,F11,3956,,,2928,2936,,,,15,1
6012ed349807110d8eb941a6,eb8khw33k2,Ex2A_Prolific,1,160,2024-02-28T21:11:05+00:00,3.739471912384,5,Stim_A.csv,Item.csv,Item,A,stars,,F12,,,109,JOL,User,1.25,"How likely are you to correctly recall the second item in the pair?|Type your response on a scale from 0-100 and then press Enter.",Flag,F12,3450,,,2300,2338,,,,70,1
6012ed349807110d8eb941a6,eb8khw33k2,Ex2A_Prolific,1,161,2024-02-28T21:11:09+00:00,4.1937210559845,5,Stim_A.csv,Item.csv,Item,A,,,,,,0,Instruct,User,-,"You have completed this section. Please click next.",,Instruct166,3905,,,-1,-1,,,,,1
6012ed349807110d8eb941a6,eb8khw33k2,Ex2A_Prolific,1,162,2024-02-28T21:11:39+00:00,30.315363168716,5,Stim_A.csv,Item.csv,Item,A,,,,,,0,FreeRecall,30,30,"Please type as many words as you can that begin with the letter ""M"". The computer will automatically advance to the next screen in 30 seconds.",,FILLER,30003,"stars, stripes, banner, American, pole, wave, emble",0,1268,27260,0,0,,,1
6012ed349807110d8eb941a6,eb8khw33k2,Ex2A_Prolific,1,163,2024-02-28T21:11:41+00:00,1.6322119235992,5,Stim_A.csv,Item.csv,Item,A,,,,,,0,Instruct,User,-,"You have completed this section. Please click next.",,Instruct166,1328,,,-1,-1,,,,,1
6012ed349807110d8eb941a6,eb8khw33k2,Ex2A_Prolific,1,164,2024-02-28T21:11:46+00:00,4.7294070720673,5,Stim_A.csv,Item.csv,Item,A,,,,,,0,Instruct,User,4,"You will now complete a memory test for the words you just studied. Please type as many words from the previous list as you can seperated by a comma. Spelling will not count against you and you can recall the words in any order. This test will be timed for one minute, and the computer will automatically advance once time is up. Click next when you are ready to begin.",,Instruct1666,4449,,,-1,-1,,,,,1
6012ed349807110d8eb941a6,eb8khw33k2,Ex2A_Prolific,1,165,2024-02-28T21:12:46+00:00,60.283485889435,5,Stim_A.csv,Item.csv,Item,A,,,,,,0,FreeRecall,60,60,"Please type as many words as you can from the previous study list in any order. Please separate each word with a comma. Spelling will not count against you. This screen will automatically advance in one minute.",,RECALL_Test,60001,"emblem, pole, banner, stripes, anthem, stars, American, freedom",0,1314,10264,0,0,,,0.213
6012ed349807110d8eb941a6,eb8khw33k2,Ex2A_Prolific,1,166,2024-02-28T21:13:11+00:00,25.28714799881,5,Stim_A.csv,Item.csv,Item,A,,,,,,0,Instruct,User,3,"You will now be presented with a new study list. Click next when you are ready to begin.",,NEXT_LIST,24962,,,-1,-1,,,,,0.008
6012ed349807110d8eb941a6,eb8khw33k2,Ex2A_Prolific,1,167,2024-02-28T21:13:16+00:00,4.3776750564575,5,Stim_A.csv,Item.csv,Item,A,blouse,,SS1,,,110,JOL,User,1.25,"How likely are you to correctly recall the second item in the pair?|Type your response on a scale from 0-100 and then press Enter.",Shirt,SS1,4100,,,2980,3027,,,,40,1
6012ed349807110d8eb941a6,eb8khw33k2,Ex2A_Prolific,1,168,2024-02-28T21:13:26+00:00,10.21452498436,5,Stim_A.csv,Item.csv,Item,A,sleeves,,SS2,,,111,JOL,User,1.25,"How likely are you to correctly recall the second item in the pair?|Type your response on a scale from 0-100 and then press Enter.",Shirt,SS2,9915,,,8929,8992,,,,50,1
6012ed349807110d8eb941a6,eb8khw33k2,Ex2A_Prolific,1,169,2024-02-28T21:13:30+00:00,3.5381519794464,5,Stim_A.csv,Item.csv,Item,A,collar,,SS3,,,112,JOL,User,1.25,"How likely are you to correctly recall the second item in the pair?|Type your response on a scale from 0-100 and then press Enter.",Shirt,SS3,3233,,,1925,1963,,,,30,1
6012ed349807110d8eb941a6,eb8khw33k2,Ex2A_Prolific,1,170,2024-02-28T21:13:33+00:00,3.0976040363312,5,Stim_A.csv,Item.csv,Item,A,shorts,,SS4,,,113,JOL,User,1.25,"How likely are you to correctly recall the second item in the pair?|Type your response on a scale from 0-100 and then press Enter.",Shirt,SS4,2816,,,1857,1896,,,,80,1
6012ed349807110d8eb941a6,eb8khw33k2,Ex2A_Prolific,1,171,2024-02-28T21:13:39+00:00,6.0816469192505,5,Stim_A.csv,Item.csv,Item,A,button,,SS5,,,114,JOL,User,1.25,"How likely are you to correctly recall the second item in the pair?|Type your response on a scale from 0-100 and then press Enter.",Shirt,SS5,5801,,,4556,4651,,,,40,1
6012ed349807110d8eb941a6,eb8khw33k2,Ex2A_Prolific,1,172,2024-02-28T21:13:46+00:00,6.9758870601654,5,Stim_A.csv,Item.csv,Item,A,pants,,SS6,,,115,JOL,User,1.25,"How likely are you to correctly recall the second item in the pair?|Type your response on a scale from 0-100 and then press Enter.",Shirt,SS6,6697,,,4843,5628,,,,70,1
6012ed349807110d8eb941a6,eb8khw33k2,Ex2A_Prolific,1,173,2024-02-28T21:13:52+00:00,6.0337760448456,5,Stim_A.csv,Item.csv,Item,A,polo,,SS7,,,116,JOL,User,1.25,"How likely are you to correctly recall the second item in the pair?|Type your response on a scale from 0-100 and then press Enter.",Shirt,SS7,5760,,,4730,4730,,,,7,1
6012ed349807110d8eb941a6,eb8khw33k2,Ex2A_Prolific,1,174,2024-02-28T21:13:57+00:00,5.540463924408,5,Stim_A.csv,Item.csv,Item,A,jersey,,SS8,,,117,JOL,User,1.25,"How likely are you to correctly recall the second item in the pair?|Type your response on a scale from 0-100 and then press Enter.",Shirt,SS8,5259,,,3810,4187,,,,60,1
6012ed349807110d8eb941a6,eb8khw33k2,Ex2A_Prolific,1,175,2024-02-28T21:14:03+00:00,5.867182970047,5,Stim_A.csv,Item.csv,Item,A,vest,,SS9,,,118,JOL,User,1.25,"How likely are you to correctly recall the second item in the pair?|Type your response on a scale from 0-100 and then press Enter.",Shirt,SS9,5591,,,4625,4657,,,,15,1
6012ed349807110d8eb941a6,eb8khw33k2,Ex2A_Prolific,1,176,2024-02-28T21:14:11+00:00,8.2653241157532,5,Stim_A.csv,Item.csv,Item,A,cuffs,,SS10,,,119,JOL,User,1.25,"How likely are you to correctly recall the second item in the pair?|Type your response on a scale from 0-100 and then press Enter.",Shirt,SS10,7983,,,6897,6930,,,,95,1
6012ed349807110d8eb941a6,eb8khw33k2,Ex2A_Prolific,1,177,2024-02-28T21:14:16+00:00,4.2320599555969,5,Stim_A.csv,Item.csv,Item,A,tie,,SS11,,,120,JOL,User,1.25,"How likely are you to correctly recall the second item in the pair?|Type your response on a scale from 0-100 and then press Enter.",Shirt,SS11,3942,,,2280,2333,,,,40,1
6012ed349807110d8eb941a6,eb8khw33k2,Ex2A_Prolific,1,178,2024-02-28T21:14:23+00:00,7.8372259140015,5,Stim_A.csv,Item.csv,Item,A,pocket,,SS12,,,121,JOL,User,1.25,"How likely are you to correctly recall the second item in the pair?|Type your response on a scale from 0-100 and then press Enter.",Shirt,SS12,7555,,,6493,6523,,,,75,1
6012ed349807110d8eb941a6,eb8khw33k2,Ex2A_Prolific,1,179,2024-02-28T21:14:28+00:00,5.0245900154114,5,Stim_A.csv,Item.csv,Item,A,,,,,,0,Instruct,User,4,"You have completed this section. Please click next.",,Instruct166,4748,,,-1,-1,,,,,1
6012ed349807110d8eb941a6,eb8khw33k2,Ex2A_Prolific,1,180,2024-02-28T21:14:59+00:00,30.289174079895,5,Stim_A.csv,Item.csv,Item,A,,,,,,0,FreeRecall,30,30,"Please type as many words as you can that begin with the letter ""S"". The computer will automatically advance to the next screen in 30 seconds.",,FILLER,30001,"pocket, blouse, button, pants, cuffs, tie",0,2061,11875,0,0,,,0.467
6012ed349807110d8eb941a6,eb8khw33k2,Ex2A_Prolific,1,181,2024-02-28T21:15:05+00:00,6.7285180091858,5,Stim_A.csv,Item.csv,Item,A,,,,,,0,Instruct,User,4,"You have completed this section. Please click next.",,Instruct166,6433,,,-1,-1,,,,,0
6012ed349807110d8eb941a6,eb8khw33k2,Ex2A_Prolific,1,182,2024-02-28T21:15:10+00:00,4.881178855896,5,Stim_A.csv,Item.csv,Item,A,,,,,,0,Instruct,User,4,"You will now complete a memory test for the words you just studied. Please type as many words from the previous list as you can seperated by a comma. Spelling will not count against you and you can recall the words in any order. This test will be timed for one minute, and the computer will automatically advance once time is up. Click next when you are ready to begin.",,Instruct1666,4598,,,-1,-1,,,,,1
6012ed349807110d8eb941a6,eb8khw33k2,Ex2A_Prolific,1,183,2024-02-28T21:16:11+00:00,60.282850980759,5,Stim_A.csv,Item.csv,Item,A,,,,,,0,FreeRecall,60,60,"Please type as many words as you can from the previous study list in any order. Please separate each word with a comma. Spelling will not count against you. This screen will automatically advance in one minute.",,RECALL_Test,60001,"blouse, button, tie, cuffs, pants, shorts, pocket, jersey",0,1780,13924,0,0,,,0.33
6012ed349807110d8eb941a6,eb8khw33k2,Ex2A_Prolific,1,184,2024-02-28T21:16:19+00:00,8.536877155304,5,Stim_A.csv,Item.csv,Item,A,,,,,,0,Instruct,User,-,"You have completed this section. Please click next.",,Instruct7,8219,,,-1,-1,,,,,0.024
6012ed349807110d8eb941a6,eb8khw33k2,Ex2A_Prolific,1,185,2024-02-28T21:16:21+00:00,1.9267148971558,5,Stim_A.csv,Item.csv,Item,A,,,,,,0,Instruct,User,-,"The following screen will ask you a few questions abour your experience today. You must complete these questions to receive credit.",,Instruct8,1647,,,-1,-1,,,,,1
