Username,ID,ExperimentName,Session,Trial,Date,TimeDif,"Condition Number","Stimuli File","Order File","Condition Description","Condition Notes",Stimuli*Cue,Stimuli*Answer,Stimuli*Shuffle,"Stimuli*Stimuli Notes",Stimuli*Value,Procedure*Item,"Procedure*Trial Type","Procedure*Max Time","Procedure*Min Time",Procedure*Text,"Procedure*Procedure Notes",Procedure*Shuffle,Response*RT,Response*Response,Response*Accuracy,Response*RTfirst,Response*RTlast,Response*strictAcc,Response*lenientAcc,Response*focus,Response*JOL,Response*Focus
6547b412f19087618a1f26b8,s5z3opayr2,Ex2A_Prolific,1,1,2024-02-28T21:34:46+00:00,26.219069957733,6,Stim_B.csv,Item.csv,Item,B,,,,,,0,Instruct,-,5,"In this section, you will be presented with a series of words. Please study each word carefully. Your memory will be tested!",Initial_Instruct,Instruct1,26002,,,-1,-1,,,,,1
6547b412f19087618a1f26b8,s5z3opayr2,Ex2A_Prolific,1,2,2024-02-28T21:34:55+00:00,9.1092529296875,6,Stim_B.csv,Item.csv,Item,B,,,,,,0,Instruct,-,5,"As you study, you will be asked to rate your ability to remember each item on a later memory test using a 0-100 scale. For example, if you study the word DOG, a rating of 0 indicates that you would not remember DOG at test, while a rating of 100 indicates full certainty that you would remember the word DOG at test.",,Instruct13,8877,,,-1,-1,,,,,1
6547b412f19087618a1f26b8,s5z3opayr2,Ex2A_Prolific,1,3,2024-02-28T21:35:06+00:00,11.098778963089,6,Stim_B.csv,Item.csv,Item,B,,,,,,0,Instruct,-,10,"When making your ratings, it is criticial that you use the full range of the scale. You will be disqualified for only giving ratings of 0 or 100!",,Instruct15,10864,,,-1,-1,,,,,1
6547b412f19087618a1f26b8,s5z3opayr2,Ex2A_Prolific,1,4,2024-02-28T21:35:09+00:00,2.5930211544037,6,Stim_B.csv,Item.csv,Item,B,,,,,,0,Instruct,User,-,"You will now begin the study. Click next when you are ready to begin.",,Instruct16,2451,,,-1,-1,,,,,1
6547b412f19087618a1f26b8,s5z3opayr2,Ex2A_Prolific,1,5,2024-02-28T21:35:17+00:00,8.0198268890381,6,Stim_B.csv,Item.csv,Item,B,aroma,,Win_1,,,2,JOL,User,1.25,"How likely are you to correctly recall the second item in the pair?|Type your response on a scale from 0-100 and then press Enter.",Window,Win_1,7785,,,5832,6613,,,,20,1
6547b412f19087618a1f26b8,s5z3opayr2,Ex2A_Prolific,1,6,2024-02-28T21:35:24+00:00,6.8217239379883,6,Stim_B.csv,Item.csv,Item,B,scent,,Win_2,,,3,JOL,User,1.25,"How likely are you to correctly recall the second item in the pair?|Type your response on a scale from 0-100 and then press Enter.",Window,Win_2,6595,,,2284,5561,,,,100,1
6547b412f19087618a1f26b8,s5z3opayr2,Ex2A_Prolific,1,7,2024-02-28T21:35:33+00:00,9.2178530693054,6,Stim_B.csv,Item.csv,Item,B,whiff,,Win_3,,,4,JOL,User,1.25,"How likely are you to correctly recall the second item in the pair?|Type your response on a scale from 0-100 and then press Enter.",Window,Win_3,8981,,,7602,7847,,,,14,1
6547b412f19087618a1f26b8,s5z3opayr2,Ex2A_Prolific,1,8,2024-02-28T21:35:36+00:00,3.2761790752411,6,Stim_B.csv,Item.csv,Item,B,stench,,Win_4,,,5,JOL,User,1.25,"How likely are you to correctly recall the second item in the pair?|Type your response on a scale from 0-100 and then press Enter.",Window,Win_4,3044,,,1894,2093,,,,27,1
6547b412f19087618a1f26b8,s5z3opayr2,Ex2A_Prolific,1,9,2024-02-28T21:35:42+00:00,5.5095188617706,6,Stim_B.csv,Item.csv,Item,B,reek,,Win_5,,,6,JOL,User,1.25,"How likely are you to correctly recall the second item in the pair?|Type your response on a scale from 0-100 and then press Enter.",Window,Win_5,5288,,,3872,4108,,,,50,1
6547b412f19087618a1f26b8,s5z3opayr2,Ex2A_Prolific,1,10,2024-02-28T21:35:47+00:00,4.9377582073212,6,Stim_B.csv,Item.csv,Item,B,sniff,,Win_6,,,7,JOL,User,1.25,"How likely are you to correctly recall the second item in the pair?|Type your response on a scale from 0-100 and then press Enter.",Window,Win_6,4717,,,3548,3660,,,,24,1
6547b412f19087618a1f26b8,s5z3opayr2,Ex2A_Prolific,1,11,2024-02-28T21:35:51+00:00,4.5155959129333,6,Stim_B.csv,Item.csv,Item,B,perfume,,Win_7,,,8,JOL,User,1.25,"How likely are you to correctly recall the second item in the pair?|Type your response on a scale from 0-100 and then press Enter.",Window,Win_7,4273,,,3051,3498,,,,30,1
6547b412f19087618a1f26b8,s5z3opayr2,Ex2A_Prolific,1,12,2024-02-28T21:35:57+00:00,5.506208896637,6,Stim_B.csv,Item.csv,Item,B,fragrance,,Win_8,,,9,JOL,User,1.25,"How likely are you to correctly recall the second item in the pair?|Type your response on a scale from 0-100 and then press Enter.",Window,Win_8,5263,,,3862,4356,,,,40,1
6547b412f19087618a1f26b8,s5z3opayr2,Ex2A_Prolific,1,13,2024-02-28T21:36:00+00:00,2.8191092014313,6,Stim_B.csv,Item.csv,Item,B,nose,,Win_9,,,10,JOL,User,1.25,"How likely are you to correctly recall the second item in the pair?|Type your response on a scale from 0-100 and then press Enter.",Window,Win_9,2688,,,2302,2423,,,,12,1
6547b412f19087618a1f26b8,s5z3opayr2,Ex2A_Prolific,1,14,2024-02-28T21:36:05+00:00,5.181058883667,6,Stim_B.csv,Item.csv,Item,B,rose,,Win_10,,,11,JOL,User,1.25,"How likely are you to correctly recall the second item in the pair?|Type your response on a scale from 0-100 and then press Enter.",Window,Win_10,4946,,,4412,4507,,,,20,1
6547b412f19087618a1f26b8,s5z3opayr2,Ex2A_Prolific,1,15,2024-02-28T21:36:08+00:00,3.0879650115967,6,Stim_B.csv,Item.csv,Item,B,salts,,Win_11,,,12,JOL,User,1.25,"How likely are you to correctly recall the second item in the pair?|Type your response on a scale from 0-100 and then press Enter.",Window,Win_11,2862,,,2267,2355,,,,25,1
6547b412f19087618a1f26b8,s5z3opayr2,Ex2A_Prolific,1,16,2024-02-28T21:36:10+00:00,2.2909710407257,6,Stim_B.csv,Item.csv,Item,B,breathe,,Win_12,,,13,JOL,User,1.25,"How likely are you to correctly recall the second item in the pair?|Type your response on a scale from 0-100 and then press Enter.",Window,Win_12,2153,,,1524,1694,,,,11,1
6547b412f19087618a1f26b8,s5z3opayr2,Ex2A_Prolific,1,17,2024-02-28T21:36:17+00:00,6.3743350505829,6,Stim_B.csv,Item.csv,Item,B,,,,,,0,Instruct,User,4,"You have completed this section. Please click next.",,Instruct166,6138,,,-1,-1,,,,,1
6547b412f19087618a1f26b8,s5z3opayr2,Ex2A_Prolific,1,18,2024-02-28T21:36:47+00:00,30.260061979294,6,Stim_B.csv,Item.csv,Item,B,,,,,,0,FreeRecall,30,30,"Please type as many words as you can that begin with the letter ""W"". The computer will automatically advance to the next screen in 30 seconds.",,FILLER,30003,whiff,0,6517,26916,0,0,,,1
6547b412f19087618a1f26b8,s5z3opayr2,Ex2A_Prolific,1,19,2024-02-28T21:36:49+00:00,2.1446850299835,6,Stim_B.csv,Item.csv,Item,B,,,,,,0,Instruct,User,-,"You have completed this section. Please click next.",,Instruct166,2000,,,-1,-1,,,,,1
6547b412f19087618a1f26b8,s5z3opayr2,Ex2A_Prolific,1,20,2024-02-28T21:36:55+00:00,6.0472469329834,6,Stim_B.csv,Item.csv,Item,B,,,,,,0,Instruct,User,4,"You will now complete a memory test for the words you just studied. Please type as many words from the previous list as you can seperated by a comma. Spelling will not count against you and you can recall the words in any order. This test will be timed for one minute, and the computer will automatically advance once time is up. Click next when you are ready to begin.",,Instruct1666,5828,,,-1,-1,,,,,1
6547b412f19087618a1f26b8,s5z3opayr2,Ex2A_Prolific,1,21,2024-02-28T21:37:55+00:00,60.237706899643,6,Stim_B.csv,Item.csv,Item,B,,,,,,0,FreeRecall,60,60,"Please type as many words as you can from the previous study list in any order. Please separate each word with a comma. Spelling will not count against you. This screen will automatically advance in one minute.",,RECALL_Test,60001,"whiff, sniff, rose, nose, fragrance, perfume, scent, stench, aroma",0,2498,14891,0,0,,,1
6547b412f19087618a1f26b8,s5z3opayr2,Ex2A_Prolific,1,22,2024-02-28T21:38:05+00:00,9.5057761669159,6,Stim_B.csv,Item.csv,Item,B,,,,,,0,Instruct,User,3,"You will now be presented with a new study list. Click next when you are ready to begin.",,NEXT_LIST,9273,,,-1,-1,,,,,1
6547b412f19087618a1f26b8,s5z3opayr2,Ex2A_Prolific,1,23,2024-02-28T21:38:11+00:00,5.9353549480438,6,Stim_B.csv,Item.csv,Item,B,hard,,R1,,,14,JOL,User,1.25,"How likely are you to correctly recall the second item in the pair?|Type your response on a scale from 0-100 and then press Enter.",Rough,R1,5691,,,4162,4206,,,,20,1
6547b412f19087618a1f26b8,s5z3opayr2,Ex2A_Prolific,1,24,2024-02-28T21:38:14+00:00,3.5907168388367,6,Stim_B.csv,Item.csv,Item,B,loud,,R2,,,15,JOL,User,1.25,"How likely are you to correctly recall the second item in the pair?|Type your response on a scale from 0-100 and then press Enter.",Rough,R2,3449,,,2435,2471,,,,25,1
6547b412f19087618a1f26b8,s5z3opayr2,Ex2A_Prolific,1,25,2024-02-28T21:38:17+00:00,2.392352104187,6,Stim_B.csv,Item.csv,Item,B,tender,,R3,,,16,JOL,User,1.25,"How likely are you to correctly recall the second item in the pair?|Type your response on a scale from 0-100 and then press Enter.",Rough,R3,2166,,,1687,1781,,,,12,1
6547b412f19087618a1f26b8,s5z3opayr2,Ex2A_Prolific,1,26,2024-02-28T21:38:19+00:00,2.4467170238495,6,Stim_B.csv,Item.csv,Item,B,fluffy,,R4,,,17,JOL,User,1.25,"How likely are you to correctly recall the second item in the pair?|Type your response on a scale from 0-100 and then press Enter.",Rough,R4,2301,,,1513,1625,,,,35,1
6547b412f19087618a1f26b8,s5z3opayr2,Ex2A_Prolific,1,27,2024-02-28T21:38:24+00:00,4.481162071228,6,Stim_B.csv,Item.csv,Item,B,pillow,,R5,,,18,JOL,User,1.25,"How likely are you to correctly recall the second item in the pair?|Type your response on a scale from 0-100 and then press Enter.",Rough,R5,4225,,,1909,2085,,,,25,1
6547b412f19087618a1f26b8,s5z3opayr2,Ex2A_Prolific,1,28,2024-02-28T21:38:28+00:00,4.3207688331604,6,Stim_B.csv,Item.csv,Item,B,downy,,R6,,,19,JOL,User,1.25,"How likely are you to correctly recall the second item in the pair?|Type your response on a scale from 0-100 and then press Enter.",Rough,R6,4077,,,3125,3218,,,,50,1
6547b412f19087618a1f26b8,s5z3opayr2,Ex2A_Prolific,1,29,2024-02-28T21:38:31+00:00,2.9526929855347,6,Stim_B.csv,Item.csv,Item,B,plush,,R7,,,20,JOL,User,1.25,"How likely are you to correctly recall the second item in the pair?|Type your response on a scale from 0-100 and then press Enter.",Rough,R7,2722,,,1353,1484,,,,40,1
6547b412f19087618a1f26b8,s5z3opayr2,Ex2A_Prolific,1,30,2024-02-28T21:38:36+00:00,4.7165529727936,6,Stim_B.csv,Item.csv,Item,B,cotton,,R8,,,21,JOL,User,1.25,"How likely are you to correctly recall the second item in the pair?|Type your response on a scale from 0-100 and then press Enter.",Rough,R8,4567,,,3581,3746,,,,60,1
6547b412f19087618a1f26b8,s5z3opayr2,Ex2A_Prolific,1,31,2024-02-28T21:38:39+00:00,3.4899160861969,6,Stim_B.csv,Item.csv,Item,B,skin,,R9,,,22,JOL,User,1.25,"How likely are you to correctly recall the second item in the pair?|Type your response on a scale from 0-100 and then press Enter.",Rough,R9,3246,,,2258,2391,,,,70,1
6547b412f19087618a1f26b8,s5z3opayr2,Ex2A_Prolific,1,32,2024-02-28T21:38:42+00:00,3.2424840927124,6,Stim_B.csv,Item.csv,Item,B,fur,,R10,,,23,JOL,User,1.25,"How likely are you to correctly recall the second item in the pair?|Type your response on a scale from 0-100 and then press Enter.",Rough,R10,2988,,,1948,2017,,,,50,1
6547b412f19087618a1f26b8,s5z3opayr2,Ex2A_Prolific,1,33,2024-02-28T21:38:44+00:00,1.8120830059052,6,Stim_B.csv,Item.csv,Item,B,touch,,R11,,,24,JOL,User,1.25,"How likely are you to correctly recall the second item in the pair?|Type your response on a scale from 0-100 and then press Enter.",Rough,R11,1657,,,866,925,,,,40,1
6547b412f19087618a1f26b8,s5z3opayr2,Ex2A_Prolific,1,34,2024-02-28T21:38:47+00:00,2.7475988864899,6,Stim_B.csv,Item.csv,Item,B,furry,,R12,,,25,JOL,User,1.25,"How likely are you to correctly recall the second item in the pair?|Type your response on a scale from 0-100 and then press Enter.",Rough,R12,2526,,,1762,1882,,,,20,1
6547b412f19087618a1f26b8,s5z3opayr2,Ex2A_Prolific,1,35,2024-02-28T21:38:52+00:00,4.7971329689026,6,Stim_B.csv,Item.csv,Item,B,,,,,,0,Instruct,User,4,"You have completed this section. Please click next.",,Instruct166,4559,,,-1,-1,,,,,1
6547b412f19087618a1f26b8,s5z3opayr2,Ex2A_Prolific,1,36,2024-02-28T21:39:22+00:00,30.249307155609,6,Stim_B.csv,Item.csv,Item,B,,,,,,0,FreeRecall,30,30,"Please type as many words as you can that begin with the letter ""L"". The computer will automatically advance to the next screen in 30 seconds.",,FILLER,30004,"lunch letter like lick link look lap lint lanky loop lit lad laugh",0,1663,27973,0,0,,,1
6547b412f19087618a1f26b8,s5z3opayr2,Ex2A_Prolific,1,37,2024-02-28T21:39:28+00:00,5.7923889160156,6,Stim_B.csv,Item.csv,Item,B,,,,,,0,Instruct,User,4,"You have completed this section. Please click next.",,Instruct166,5549,,,-1,-1,,,,,1
6547b412f19087618a1f26b8,s5z3opayr2,Ex2A_Prolific,1,38,2024-02-28T21:39:39+00:00,11.002264976501,6,Stim_B.csv,Item.csv,Item,B,,,,,,0,Instruct,User,4,"You will now complete a memory test for the words you just studied. Please type as many words from the previous list as you can seperated by a comma. Spelling will not count against you and you can recall the words in any order. This test will be timed for one minute, and the computer will automatically advance once time is up. Click next when you are ready to begin.",,Instruct1666,10761,,,-1,-1,,,,,1
6547b412f19087618a1f26b8,s5z3opayr2,Ex2A_Prolific,1,39,2024-02-28T21:40:39+00:00,60.25222992897,6,Stim_B.csv,Item.csv,Item,B,,,,,,0,FreeRecall,60,60,"Please type as many words as you can from the previous study list in any order. Please separate each word with a comma. Spelling will not count against you. This screen will automatically advance in one minute.",,RECALL_Test,60002,"tough, hard, loud, cotton, fluffy, fur, skin, furry, ",0,1992,19412,0,0,,,1
6547b412f19087618a1f26b8,s5z3opayr2,Ex2A_Prolific,1,40,2024-02-28T21:40:44+00:00,4.6656231880188,6,Stim_B.csv,Item.csv,Item,B,,,,,,0,Instruct,User,3,"You will now be presented with a new study list. Click next when you are ready to begin.",,NEXT_LIST,4440,,,-1,-1,,,,,1
6547b412f19087618a1f26b8,s5z3opayr2,Ex2A_Prolific,1,41,2024-02-28T21:40:49+00:00,5.0670139789581,6,Stim_B.csv,Item.csv,Item,B,honey,,A1,,,26,JOL,User,1.25,"How likely are you to correctly recall the second item in the pair?|Type your response on a scale from 0-100 and then press Enter.",Anger,A1,4807,,,3596,3686,,,,10,1
6547b412f19087618a1f26b8,s5z3opayr2,Ex2A_Prolific,1,42,2024-02-28T21:40:51+00:00,2.489804983139,6,Stim_B.csv,Item.csv,Item,B,bitter,,A2,,,27,JOL,User,1.25,"How likely are you to correctly recall the second item in the pair?|Type your response on a scale from 0-100 and then press Enter.",Anger,A2,2256,,,683,959,,,,14,1
6547b412f19087618a1f26b8,s5z3opayr2,Ex2A_Prolific,1,43,2024-02-28T21:40:53+00:00,1.709282875061,6,Stim_B.csv,Item.csv,Item,B,sugar,,A3,,,28,JOL,User,1.25,"How likely are you to correctly recall the second item in the pair?|Type your response on a scale from 0-100 and then press Enter.",Anger,A3,1576,,,663,1013,,,,17,1
6547b412f19087618a1f26b8,s5z3opayr2,Ex2A_Prolific,1,44,2024-02-28T21:40:55+00:00,2.229110956192,6,Stim_B.csv,Item.csv,Item,B,sour,,A4,,,29,JOL,User,1.25,"How likely are you to correctly recall the second item in the pair?|Type your response on a scale from 0-100 and then press Enter.",Anger,A4,2092,,,1300,1409,,,,30,1
6547b412f19087618a1f26b8,s5z3opayr2,Ex2A_Prolific,1,45,2024-02-28T21:40:57+00:00,2.1756291389465,6,Stim_B.csv,Item.csv,Item,B,candy,,A5,,,30,JOL,User,1.25,"How likely are you to correctly recall the second item in the pair?|Type your response on a scale from 0-100 and then press Enter.",Anger,A5,1937,,,1201,1333,,,,19,1
6547b412f19087618a1f26b8,s5z3opayr2,Ex2A_Prolific,1,46,2024-02-28T21:40:59+00:00,1.495992898941,6,Stim_B.csv,Item.csv,Item,B,tart,,A6,,,31,JOL,User,1.25,"How likely are you to correctly recall the second item in the pair?|Type your response on a scale from 0-100 and then press Enter.",Anger,A6,1347,,,430,580,,,,20,1
6547b412f19087618a1f26b8,s5z3opayr2,Ex2A_Prolific,1,47,2024-02-28T21:41:01+00:00,1.6508810520172,6,Stim_B.csv,Item.csv,Item,B,chocolate,,A7,,,32,JOL,User,1.25,"How likely are you to correctly recall the second item in the pair?|Type your response on a scale from 0-100 and then press Enter.",Anger,A7,1495,,,432,622,,,,23,1
6547b412f19087618a1f26b8,s5z3opayr2,Ex2A_Prolific,1,48,2024-02-28T21:41:02+00:00,1.8593759536743,6,Stim_B.csv,Item.csv,Item,B,nice,,A8,,,33,JOL,User,1.25,"How likely are you to correctly recall the second item in the pair?|Type your response on a scale from 0-100 and then press Enter.",Anger,A8,1618,,,440,666,,,,12,1
6547b412f19087618a1f26b8,s5z3opayr2,Ex2A_Prolific,1,49,2024-02-28T21:41:04+00:00,1.8888909816742,6,Stim_B.csv,Item.csv,Item,B,taste,,A9,,,34,JOL,User,1.25,"How likely are you to correctly recall the second item in the pair?|Type your response on a scale from 0-100 and then press Enter.",Anger,A9,1755,,,232,403,,,,31,1
6547b412f19087618a1f26b8,s5z3opayr2,Ex2A_Prolific,1,50,2024-02-28T21:41:07+00:00,2.5201251506805,6,Stim_B.csv,Item.csv,Item,B,cake,,A10,,,35,JOL,User,1.25,"How likely are you to correctly recall the second item in the pair?|Type your response on a scale from 0-100 and then press Enter.",Anger,A10,2275,,,510,1733,,,,31,1
6547b412f19087618a1f26b8,s5z3opayr2,Ex2A_Prolific,1,51,2024-02-28T21:41:09+00:00,1.7357079982758,6,Stim_B.csv,Item.csv,Item,B,good,,A11,,,36,JOL,User,1.25,"How likely are you to correctly recall the second item in the pair?|Type your response on a scale from 0-100 and then press Enter.",Anger,A11,1592,,,516,630,,,,21,1
6547b412f19087618a1f26b8,s5z3opayr2,Ex2A_Prolific,1,52,2024-02-28T21:41:13+00:00,4.2196619510651,6,Stim_B.csv,Item.csv,Item,B,tooth,,A12,,,37,JOL,User,1.25,"How likely are you to correctly recall the second item in the pair?|Type your response on a scale from 0-100 and then press Enter.",Anger,A12,3987,,,367,3388,,,,12,1
6547b412f19087618a1f26b8,s5z3opayr2,Ex2A_Prolific,1,53,2024-02-28T21:41:15+00:00,1.8654029369354,6,Stim_B.csv,Item.csv,Item,B,,,,,,0,Instruct,User,-,"You have completed this section. Please click next.",,Instruct166,1728,,,-1,-1,,,,,1
6547b412f19087618a1f26b8,s5z3opayr2,Ex2A_Prolific,1,54,2024-02-28T21:41:45+00:00,30.239721059799,6,Stim_B.csv,Item.csv,Item,B,,,,,,0,FreeRecall,30,30,"Please type as many words as you can that begin with the letter ""N"". The computer will automatically advance to the next screen in 30 seconds.",,FILLER,30000,"nope, nut, north, nine, not, nude, ",0,3715,28963,0,0,,,1
6547b412f19087618a1f26b8,s5z3opayr2,Ex2A_Prolific,1,55,2024-02-28T21:41:47+00:00,1.6857359409332,6,Stim_B.csv,Item.csv,Item,B,,,,,,0,Instruct,User,-,"You have completed this section. Please click next.",,Instruct166,1440,,,-1,-1,,,,,1
6547b412f19087618a1f26b8,s5z3opayr2,Ex2A_Prolific,1,56,2024-02-28T21:41:54+00:00,7.9353830814362,6,Stim_B.csv,Item.csv,Item,B,,,,,,0,Instruct,User,4,"You will now complete a memory test for the words you just studied. Please type as many words from the previous list as you can seperated by a comma. Spelling will not count against you and you can recall the words in any order. This test will be timed for one minute, and the computer will automatically advance once time is up. Click next when you are ready to begin.",,Instruct1666,7705,,,-1,-1,,,,,1
6547b412f19087618a1f26b8,s5z3opayr2,Ex2A_Prolific,1,57,2024-02-28T21:42:55+00:00,60.259840965271,6,Stim_B.csv,Item.csv,Item,B,,,,,,0,FreeRecall,60,60,"Please type as many words as you can from the previous study list in any order. Please separate each word with a comma. Spelling will not count against you. This screen will automatically advance in one minute.",,RECALL_Test,60004,"honey, bitter, sour, taste",0,1249,19370,0,0,,,1
6547b412f19087618a1f26b8,s5z3opayr2,Ex2A_Prolific,1,58,2024-02-28T21:43:10+00:00,14.807038068771,6,Stim_B.csv,Item.csv,Item,B,,,,,,0,Instruct,User,3,"You will now be presented with a new study list. Click next when you are ready to begin.",,NEXT_LIST,14568,,,-1,-1,,,,,1
6547b412f19087618a1f26b8,s5z3opayr2,Ex2A_Prolific,1,59,2024-02-28T21:43:14+00:00,4.43545794487,6,Stim_B.csv,Item.csv,Item,B,table,,T1,,,38,JOL,User,1.25,"How likely are you to correctly recall the second item in the pair?|Type your response on a scale from 0-100 and then press Enter.",Trash,T1,4197,,,3731,3817,,,,13,1
6547b412f19087618a1f26b8,s5z3opayr2,Ex2A_Prolific,1,60,2024-02-28T21:43:18+00:00,3.730947971344,6,Stim_B.csv,Item.csv,Item,B,swivel,,T2,,,39,JOL,User,1.25,"How likely are you to correctly recall the second item in the pair?|Type your response on a scale from 0-100 and then press Enter.",Trash,T2,3485,,,727,2740,,,,10,1
6547b412f19087618a1f26b8,s5z3opayr2,Ex2A_Prolific,1,61,2024-02-28T21:43:20+00:00,1.999990940094,6,Stim_B.csv,Item.csv,Item,B,rocking,,T3,,,40,JOL,User,1.25,"How likely are you to correctly recall the second item in the pair?|Type your response on a scale from 0-100 and then press Enter.",Trash,T3,1873,,,464,624,,,,13,1
6547b412f19087618a1f26b8,s5z3opayr2,Ex2A_Prolific,1,62,2024-02-28T21:43:23+00:00,3.3772490024567,6,Stim_B.csv,Item.csv,Item,B,recliner,,T4,,,41,JOL,User,1.25,"How likely are you to correctly recall the second item in the pair?|Type your response on a scale from 0-100 and then press Enter.",Trash,T4,3149,,,448,2424,,,,16,1
6547b412f19087618a1f26b8,s5z3opayr2,Ex2A_Prolific,1,63,2024-02-28T21:43:25+00:00,2.011078119278,6,Stim_B.csv,Item.csv,Item,B,seat,,T5,,,42,JOL,User,1.25,"How likely are you to correctly recall the second item in the pair?|Type your response on a scale from 0-100 and then press Enter.",Trash,T5,1868,,,304,1156,,,,21,1
6547b412f19087618a1f26b8,s5z3opayr2,Ex2A_Prolific,1,64,2024-02-28T21:43:27+00:00,1.9614369869232,6,Stim_B.csv,Item.csv,Item,B,stool,,T6,,,43,JOL,User,1.25,"How likely are you to correctly recall the second item in the pair?|Type your response on a scale from 0-100 and then press Enter.",Trash,T6,1723,,,495,648,,,,20,1
6547b412f19087618a1f26b8,s5z3opayr2,Ex2A_Prolific,1,65,2024-02-28T21:43:29+00:00,1.7829239368439,6,Stim_B.csv,Item.csv,Item,B,desk,,T7,,,44,JOL,User,1.25,"How likely are you to correctly recall the second item in the pair?|Type your response on a scale from 0-100 and then press Enter.",Trash,T7,1649,,,145,385,,,,31,1
6547b412f19087618a1f26b8,s5z3opayr2,Ex2A_Prolific,1,66,2024-02-28T21:43:30+00:00,1.632698059082,6,Stim_B.csv,Item.csv,Item,B,couch,,T8,,,45,JOL,User,1.25,"How likely are you to correctly recall the second item in the pair?|Type your response on a scale from 0-100 and then press Enter.",Trash,T8,1500,,,266,608,,,,19,1
6547b412f19087618a1f26b8,s5z3opayr2,Ex2A_Prolific,1,67,2024-02-28T21:43:32+00:00,1.9532380104065,6,Stim_B.csv,Item.csv,Item,B,sit,,T9,,,46,JOL,User,1.25,"How likely are you to correctly recall the second item in the pair?|Type your response on a scale from 0-100 and then press Enter.",Trash,T9,1708,,,444,515,,,,13,1
6547b412f19087618a1f26b8,s5z3opayr2,Ex2A_Prolific,1,68,2024-02-28T21:43:34+00:00,1.7508220672607,6,Stim_B.csv,Item.csv,Item,B,sofa,,T10,,,47,JOL,User,1.25,"How likely are you to correctly recall the second item in the pair?|Type your response on a scale from 0-100 and then press Enter.",Trash,T10,1607,,,52,180,,,,53,1
6547b412f19087618a1f26b8,s5z3opayr2,Ex2A_Prolific,1,69,2024-02-28T21:43:36+00:00,1.8843648433685,6,Stim_B.csv,Item.csv,Item,B,bench,,T11,,,48,JOL,User,1.25,"How likely are you to correctly recall the second item in the pair?|Type your response on a scale from 0-100 and then press Enter.",Trash,T11,1660,,,429,495,,,,13,1
6547b412f19087618a1f26b8,s5z3opayr2,Ex2A_Prolific,1,70,2024-02-28T21:43:39+00:00,3.1268899440765,6,Stim_B.csv,Item.csv,Item,B,sitting,,T12,,,49,JOL,User,1.25,"How likely are you to correctly recall the second item in the pair?|Type your response on a scale from 0-100 and then press Enter.",Trash,T12,2994,,,312,1716,,,,12,1
6547b412f19087618a1f26b8,s5z3opayr2,Ex2A_Prolific,1,71,2024-02-28T21:43:40+00:00,1.2640240192413,6,Stim_B.csv,Item.csv,Item,B,,,,,,0,Instruct,User,-,"You have completed this section. Please click next.",,Instruct166,1126,,,-1,-1,,,,,1
6547b412f19087618a1f26b8,s5z3opayr2,Ex2A_Prolific,1,72,2024-02-28T21:44:11+00:00,30.251279115677,6,Stim_B.csv,Item.csv,Item,B,,,,,,0,FreeRecall,30,30,"Please type as many words as you can that begin with the letter ""M"". The computer will automatically advance to the next screen in 30 seconds.",,FILLER,30005,"marksman, mole, mop, mad, mom, mink mother motel middle made ",0,927,29821,0,0,,,1
6547b412f19087618a1f26b8,s5z3opayr2,Ex2A_Prolific,1,73,2024-02-28T21:44:12+00:00,1.5556650161743,6,Stim_B.csv,Item.csv,Item,B,,,,,,0,Instruct,User,-,"You have completed this section. Please click next.",,Instruct166,1330,,,-1,-1,,,,,1
6547b412f19087618a1f26b8,s5z3opayr2,Ex2A_Prolific,1,74,2024-02-28T21:44:17+00:00,4.6707968711853,6,Stim_B.csv,Item.csv,Item,B,,,,,,0,Instruct,User,4,"You will now complete a memory test for the words you just studied. Please type as many words from the previous list as you can seperated by a comma. Spelling will not count against you and you can recall the words in any order. This test will be timed for one minute, and the computer will automatically advance once time is up. Click next when you are ready to begin.",,Instruct1666,4439,,,-1,-1,,,,,1
6547b412f19087618a1f26b8,s5z3opayr2,Ex2A_Prolific,1,75,2024-02-28T21:45:17+00:00,60.25888299942,6,Stim_B.csv,Item.csv,Item,B,,,,,,0,FreeRecall,60,60,"Please type as many words as you can from the previous study list in any order. Please separate each word with a comma. Spelling will not count against you. This screen will automatically advance in one minute.",,RECALL_Test,60002,"I forgot all the words sorry.",0,3431,13634,0,0,,,1
6547b412f19087618a1f26b8,s5z3opayr2,Ex2A_Prolific,1,76,2024-02-28T21:45:21+00:00,4.054915189743,6,Stim_B.csv,Item.csv,Item,B,,,,,,0,Instruct,User,3,"You will now be presented with a new study list. Click next when you are ready to begin.",,NEXT_LIST,3766,,,-1,-1,,,,,1
6547b412f19087618a1f26b8,s5z3opayr2,Ex2A_Prolific,1,77,2024-02-28T21:45:28+00:00,7.2050619125366,6,Stim_B.csv,Item.csv,Item,B,climber,,D1,,,50,JOL,User,1.25,"How likely are you to correctly recall the second item in the pair?|Type your response on a scale from 0-100 and then press Enter.",Doctor,D1,6967,,,5569,5936,,,,10,0.743
6547b412f19087618a1f26b8,s5z3opayr2,Ex2A_Prolific,1,78,2024-02-28T21:45:38+00:00,9.2451810836792,6,Stim_B.csv,Item.csv,Item,B,hill,,D2,,,51,JOL,User,1.25,"How likely are you to correctly recall the second item in the pair?|Type your response on a scale from 0-100 and then press Enter.",Doctor,D2,8995,,,8132,8262,,,,30,0.311
6547b412f19087618a1f26b8,s5z3opayr2,Ex2A_Prolific,1,79,2024-02-28T21:45:40+00:00,2.3276438713074,6,Stim_B.csv,Item.csv,Item,B,climb,,D3,,,52,JOL,User,1.25,"How likely are you to correctly recall the second item in the pair?|Type your response on a scale from 0-100 and then press Enter.",Doctor,D3,2184,,,754,906,,,,49,1
6547b412f19087618a1f26b8,s5z3opayr2,Ex2A_Prolific,1,80,2024-02-28T21:45:43+00:00,2.8439559936523,6,Stim_B.csv,Item.csv,Item,B,molehill,,D4,,,53,JOL,User,1.25,"How likely are you to correctly recall the second item in the pair?|Type your response on a scale from 0-100 and then press Enter.",Doctor,D4,2610,,,755,873,,,,32,1
6547b412f19087618a1f26b8,s5z3opayr2,Ex2A_Prolific,1,81,2024-02-28T21:45:45+00:00,2.2465159893036,6,Stim_B.csv,Item.csv,Item,B,peak,,D5,,,54,JOL,User,1.25,"How likely are you to correctly recall the second item in the pair?|Type your response on a scale from 0-100 and then press Enter.",Doctor,D5,2108,,,621,637,,,,12,1
6547b412f19087618a1f26b8,s5z3opayr2,Ex2A_Prolific,1,82,2024-02-28T21:45:54+00:00,8.8608450889587,6,Stim_B.csv,Item.csv,Item,B,valley,,D6,,,55,JOL,User,1.25,"How likely are you to correctly recall the second item in the pair?|Type your response on a scale from 0-100 and then press Enter.",Doctor,D6,8632,,,7927,8051,,,,31,0.364
6547b412f19087618a1f26b8,s5z3opayr2,Ex2A_Prolific,1,83,2024-02-28T21:45:56+00:00,1.8816549777985,6,Stim_B.csv,Item.csv,Item,B,summit,,D7,,,56,JOL,User,1.25,"How likely are you to correctly recall the second item in the pair?|Type your response on a scale from 0-100 and then press Enter.",Doctor,D7,1738,,,309,468,,,,21,1
6547b412f19087618a1f26b8,s5z3opayr2,Ex2A_Prolific,1,84,2024-02-28T21:45:58+00:00,1.8393669128418,6,Stim_B.csv,Item.csv,Item,B,steep,,D8,,,57,JOL,User,1.25,"How likely are you to correctly recall the second item in the pair?|Type your response on a scale from 0-100 and then press Enter.",Doctor,D8,1705,,,620,805,,,,53,1
6547b412f19087618a1f26b8,s5z3opayr2,Ex2A_Prolific,1,85,2024-02-28T21:46:04+00:00,6.708477973938,6,Stim_B.csv,Item.csv,Item,B,ski,,D9,,,58,JOL,User,1.25,"How likely are you to correctly recall the second item in the pair?|Type your response on a scale from 0-100 and then press Enter.",Doctor,D9,6484,,,5814,5875,,,,53,0.394
6547b412f19087618a1f26b8,s5z3opayr2,Ex2A_Prolific,1,86,2024-02-28T21:46:06+00:00,1.8867611885071,6,Stim_B.csv,Item.csv,Item,B,bike,,D10,,,59,JOL,User,1.25,"How likely are you to correctly recall the second item in the pair?|Type your response on a scale from 0-100 and then press Enter.",Doctor,D10,1663,,,621,791,,,,60,1
6547b412f19087618a1f26b8,s5z3opayr2,Ex2A_Prolific,1,87,2024-02-28T21:46:10+00:00,3.2285969257355,6,Stim_B.csv,Item.csv,Item,B,goat,,D11,,,60,JOL,User,1.25,"How likely are you to correctly recall the second item in the pair?|Type your response on a scale from 0-100 and then press Enter.",Doctor,D11,3085,,,545,2053,,,,80,1
6547b412f19087618a1f26b8,s5z3opayr2,Ex2A_Prolific,1,88,2024-02-28T21:46:14+00:00,4.9683139324188,6,Stim_B.csv,Item.csv,Item,B,glacier,,D12,,,61,JOL,User,1.25,"How likely are you to correctly recall the second item in the pair?|Type your response on a scale from 0-100 and then press Enter.",Doctor,D12,4720,,,3606,3896,,,,49,1
6547b412f19087618a1f26b8,s5z3opayr2,Ex2A_Prolific,1,89,2024-02-28T21:46:19+00:00,4.8220429420471,6,Stim_B.csv,Item.csv,Item,B,,,,,,0,Instruct,User,4,"You have completed this section. Please click next.",,Instruct166,4593,,,-1,-1,,,,,1
6547b412f19087618a1f26b8,s5z3opayr2,Ex2A_Prolific,1,90,2024-02-28T21:46:50+00:00,30.26166009903,6,Stim_B.csv,Item.csv,Item,B,,,,,,0,FreeRecall,30,30,"Please type as many words as you can that begin with the letter ""S"". The computer will automatically advance to the next screen in 30 seconds.",,FILLER,30002,"ski steep slope sling sprint spoke speak shut ",0,1407,28601,0,0,,,0.861
6547b412f19087618a1f26b8,s5z3opayr2,Ex2A_Prolific,1,91,2024-02-28T21:46:55+00:00,5.7265379428864,6,Stim_B.csv,Item.csv,Item,B,,,,,,0,Instruct,User,4,"You have completed this section. Please click next.",,Instruct166,5489,,,-1,-1,,,,,1
6547b412f19087618a1f26b8,s5z3opayr2,Ex2A_Prolific,1,92,2024-02-28T21:47:00+00:00,5.0765819549561,6,Stim_B.csv,Item.csv,Item,B,,,,,,0,Instruct,User,4,"You will now complete a memory test for the words you just studied. Please type as many words from the previous list as you can seperated by a comma. Spelling will not count against you and you can recall the words in any order. This test will be timed for one minute, and the computer will automatically advance once time is up. Click next when you are ready to begin.",,Instruct1666,4843,,,-1,-1,,,,,1
6547b412f19087618a1f26b8,s5z3opayr2,Ex2A_Prolific,1,93,2024-02-28T21:48:01+00:00,60.250285148621,6,Stim_B.csv,Item.csv,Item,B,,,,,,0,FreeRecall,60,60,"Please type as many words as you can from the previous study list in any order. Please separate each word with a comma. Spelling will not count against you. This screen will automatically advance in one minute.",,RECALL_Test,60001,"climber, climb, hill, molehill, valley, peak, steep, summit, ski, bike, goat",0,2035,23983,0,0,,,1
6547b412f19087618a1f26b8,s5z3opayr2,Ex2A_Prolific,1,94,2024-02-28T21:48:50+00:00,49.324251890182,6,Stim_B.csv,Item.csv,Item,B,,,,,,0,Instruct,User,3,"You will now be presented with a new study list. Click next when you are ready to begin.",,NEXT_LIST,49068,,,-1,-1,,,,,1
6547b412f19087618a1f26b8,s5z3opayr2,Ex2A_Prolific,1,95,2024-02-28T21:48:54+00:00,3.8047981262207,6,Stim_B.csv,Item.csv,Item,B,band,,S1,,,62,JOL,User,1.25,"How likely are you to correctly recall the second item in the pair?|Type your response on a scale from 0-100 and then press Enter.",Slow,S1,3557,,,2550,2690,,,,20,1
6547b412f19087618a1f26b8,s5z3opayr2,Ex2A_Prolific,1,96,2024-02-28T21:48:56+00:00,2.5579988956451,6,Stim_B.csv,Item.csv,Item,B,concert,,S2,,,63,JOL,User,1.25,"How likely are you to correctly recall the second item in the pair?|Type your response on a scale from 0-100 and then press Enter.",Slow,S2,2326,,,1140,1369,,,,23,1
6547b412f19087618a1f26b8,s5z3opayr2,Ex2A_Prolific,1,97,2024-02-28T21:48:58+00:00,1.7960751056671,6,Stim_B.csv,Item.csv,Item,B,jazz,,S3,,,64,JOL,User,1.25,"How likely are you to correctly recall the second item in the pair?|Type your response on a scale from 0-100 and then press Enter.",Slow,S3,1640,,,458,605,,,,41,1
6547b412f19087618a1f26b8,s5z3opayr2,Ex2A_Prolific,1,98,2024-02-28T21:49:04+00:00,6.3412179946899,6,Stim_B.csv,Item.csv,Item,B,symphony,,S4,,,65,JOL,User,1.25,"How likely are you to correctly recall the second item in the pair?|Type your response on a scale from 0-100 and then press Enter.",Slow,S4,6104,,,5376,5552,,,,32,0.387
6547b412f19087618a1f26b8,s5z3opayr2,Ex2A_Prolific,1,99,2024-02-28T21:49:06+00:00,1.4512219429016,6,Stim_B.csv,Item.csv,Item,B,orchestra,,S5,,,66,JOL,User,1.25,"How likely are you to correctly recall the second item in the pair?|Type your response on a scale from 0-100 and then press Enter.",Slow,S5,1314,,,432,488,,,,21,1
6547b412f19087618a1f26b8,s5z3opayr2,Ex2A_Prolific,1,100,2024-02-28T21:49:08+00:00,2.1071510314941,6,Stim_B.csv,Item.csv,Item,B,rhythm,,S6,,,67,JOL,User,1.25,"How likely are you to correctly recall the second item in the pair?|Type your response on a scale from 0-100 and then press Enter.",Slow,S6,1963,,,1058,1389,,,,53,1
6547b412f19087618a1f26b8,s5z3opayr2,Ex2A_Prolific,1,101,2024-02-28T21:49:18+00:00,10.370692014694,6,Stim_B.csv,Item.csv,Item,B,radio,,S7,,,68,JOL,User,1.25,"How likely are you to correctly recall the second item in the pair?|Type your response on a scale from 0-100 and then press Enter.",Slow,S7,10130,,,9234,9306,,,,21,0.235
6547b412f19087618a1f26b8,s5z3opayr2,Ex2A_Prolific,1,102,2024-02-28T21:49:25+00:00,6.6612019538879,6,Stim_B.csv,Item.csv,Item,B,melody,,S8,,,69,JOL,User,1.25,"How likely are you to correctly recall the second item in the pair?|Type your response on a scale from 0-100 and then press Enter.",Slow,S8,6421,,,5433,5547,,,,32,0.667
6547b412f19087618a1f26b8,s5z3opayr2,Ex2A_Prolific,1,103,2024-02-28T21:49:28+00:00,3.4005630016327,6,Stim_B.csv,Item.csv,Item,B,piano,,S9,,,70,JOL,User,1.25,"How likely are you to correctly recall the second item in the pair?|Type your response on a scale from 0-100 and then press Enter.",Slow,S9,3144,,,1812,1928,,,,12,1
6547b412f19087618a1f26b8,s5z3opayr2,Ex2A_Prolific,1,104,2024-02-28T21:49:37+00:00,8.3293879032135,6,Stim_B.csv,Item.csv,Item,B,sound,,S10,,,71,JOL,User,1.25,"How likely are you to correctly recall the second item in the pair?|Type your response on a scale from 0-100 and then press Enter.",Slow,S10,8097,,,5904,7299,,,,20,0.512
6547b412f19087618a1f26b8,s5z3opayr2,Ex2A_Prolific,1,105,2024-02-28T21:49:39+00:00,1.8607330322266,6,Stim_B.csv,Item.csv,Item,B,instrument,,S11,,,72,JOL,User,1.25,"How likely are you to correctly recall the second item in the pair?|Type your response on a scale from 0-100 and then press Enter.",Slow,S11,1714,,,740,901,,,,43,1
6547b412f19087618a1f26b8,s5z3opayr2,Ex2A_Prolific,1,106,2024-02-28T21:49:40+00:00,1.7880661487579,6,Stim_B.csv,Item.csv,Item,B,note,,S12,,,73,JOL,User,1.25,"How likely are you to correctly recall the second item in the pair?|Type your response on a scale from 0-100 and then press Enter.",Slow,S12,1652,,,561,633,,,,12,1
6547b412f19087618a1f26b8,s5z3opayr2,Ex2A_Prolific,1,107,2024-02-28T21:49:47+00:00,6.1744129657745,6,Stim_B.csv,Item.csv,Item,B,,,,,,0,Instruct,User,4,"You have completed this section. Please click next.",,Instruct166,5940,,,-1,-1,,,,,0.5
6547b412f19087618a1f26b8,s5z3opayr2,Ex2A_Prolific,1,108,2024-02-28T21:50:17+00:00,30.236130952835,6,Stim_B.csv,Item.csv,Item,B,,,,,,0,FreeRecall,30,30,"Please type as many words as you can that begin with the letter ""C"". The computer will automatically advance to the next screen in 30 seconds.",,FILLER,30002,"coat, cope, cut, cat, came come cull chill children church cog cigarette ciga",0,1173,29687,0,0,,,0.94
6547b412f19087618a1f26b8,s5z3opayr2,Ex2A_Prolific,1,109,2024-02-28T21:50:18+00:00,1.5717370510101,6,Stim_B.csv,Item.csv,Item,B,,,,,,0,Instruct,User,-,"You have completed this section. Please click next.",,Instruct166,1411,,,12,12,,,,,1
6547b412f19087618a1f26b8,s5z3opayr2,Ex2A_Prolific,1,110,2024-02-28T21:50:26+00:00,7.1533648967743,6,Stim_B.csv,Item.csv,Item,B,,,,,,0,Instruct,User,4,"You will now complete a memory test for the words you just studied. Please type as many words from the previous list as you can seperated by a comma. Spelling will not count against you and you can recall the words in any order. This test will be timed for one minute, and the computer will automatically advance once time is up. Click next when you are ready to begin.",,Instruct1666,6919,,,-1,-1,,,,,1
6547b412f19087618a1f26b8,s5z3opayr2,Ex2A_Prolific,1,111,2024-02-28T21:51:26+00:00,60.253499984741,6,Stim_B.csv,Item.csv,Item,B,,,,,,0,FreeRecall,60,60,"Please type as many words as you can from the previous study list in any order. Please separate each word with a comma. Spelling will not count against you. This screen will automatically advance in one minute.",,RECALL_Test,60001,"band, concert, jazz, symphony, orchestra, radio, melody, piano, sound, instrument, note",0,1735,20897,0,0,,,1
6547b412f19087618a1f26b8,s5z3opayr2,Ex2A_Prolific,1,112,2024-02-28T21:51:37+00:00,11.144901990891,6,Stim_B.csv,Item.csv,Item,B,,,,,,0,Instruct,User,3,"You will now be presented with a new study list. Click next when you are ready to begin.",,NEXT_LIST,10907,,,-1,-1,,,,,1
6547b412f19087618a1f26b8,s5z3opayr2,Ex2A_Prolific,1,113,2024-02-28T21:51:46+00:00,8.9032871723175,6,Stim_B.csv,Item.csv,Item,B,foam,,RR1,,,74,JOL,User,1.25,"How likely are you to correctly recall the second item in the pair?|Type your response on a scale from 0-100 and then press Enter.",River,RR1,8667,,,8203,8269,,,,12,1
6547b412f19087618a1f26b8,s5z3opayr2,Ex2A_Prolific,1,114,2024-02-28T21:51:48+00:00,1.8968858718872,6,Stim_B.csv,Item.csv,Item,B,latex,,RR2,,,75,JOL,User,1.25,"How likely are you to correctly recall the second item in the pair?|Type your response on a scale from 0-100 and then press Enter.",River,RR2,1649,,,783,874,,,,42,1
6547b412f19087618a1f26b8,s5z3opayr2,Ex2A_Prolific,1,115,2024-02-28T21:51:56+00:00,8.4322371482849,6,Stim_B.csv,Item.csv,Item,B,galoshes,,RR3,,,76,JOL,User,1.25,"How likely are you to correctly recall the second item in the pair?|Type your response on a scale from 0-100 and then press Enter.",River,RR3,8167,,,7384,7485,,,,13,0.22
6547b412f19087618a1f26b8,s5z3opayr2,Ex2A_Prolific,1,116,2024-02-28T21:51:58+00:00,1.8619329929352,6,Stim_B.csv,Item.csv,Item,B,tire,,RR4,,,77,JOL,User,1.25,"How likely are you to correctly recall the second item in the pair?|Type your response on a scale from 0-100 and then press Enter.",River,RR4,1721,,,314,490,,,,24,1
6547b412f19087618a1f26b8,s5z3opayr2,Ex2A_Prolific,1,117,2024-02-28T21:52:03+00:00,5.1336798667908,6,Stim_B.csv,Item.csv,Item,B,flexible,,RR5,,,78,JOL,User,1.25,"How likely are you to correctly recall the second item in the pair?|Type your response on a scale from 0-100 and then press Enter.",River,RR5,4898,,,3952,4007,,,,42,0.4
6547b412f19087618a1f26b8,s5z3opayr2,Ex2A_Prolific,1,118,2024-02-28T21:52:05+00:00,1.7666139602661,6,Stim_B.csv,Item.csv,Item,B,elastic,,RR6,,,79,JOL,User,1.25,"How likely are you to correctly recall the second item in the pair?|Type your response on a scale from 0-100 and then press Enter.",River,RR6,1626,,,352,463,,,,13,1
6547b412f19087618a1f26b8,s5z3opayr2,Ex2A_Prolific,1,119,2024-02-28T21:52:07+00:00,1.8739671707153,6,Stim_B.csv,Item.csv,Item,B,gloves,,RR7,,,80,JOL,User,1.25,"How likely are you to correctly recall the second item in the pair?|Type your response on a scale from 0-100 and then press Enter.",River,RR7,1636,,,218,757,,,,24,1
6547b412f19087618a1f26b8,s5z3opayr2,Ex2A_Prolific,1,120,2024-02-28T21:52:13+00:00,6.3400869369507,6,Stim_B.csv,Item.csv,Item,B,eraser,,RR8,,,81,JOL,User,1.25,"How likely are you to correctly recall the second item in the pair?|Type your response on a scale from 0-100 and then press Enter.",River,RR8,6102,,,5260,5321,,,,31,0.323
6547b412f19087618a1f26b8,s5z3opayr2,Ex2A_Prolific,1,121,2024-02-28T21:52:15+00:00,1.5908319950104,6,Stim_B.csv,Item.csv,Item,B,bounce,,RR9,,,82,JOL,User,1.25,"How likely are you to correctly recall the second item in the pair?|Type your response on a scale from 0-100 and then press Enter.",River,RR9,1454,,,390,514,,,,21,1
6547b412f19087618a1f26b8,s5z3opayr2,Ex2A_Prolific,1,122,2024-02-28T21:52:17+00:00,2.6484770774841,6,Stim_B.csv,Item.csv,Item,B,ball,,RR10,,,83,JOL,User,1.25,"How likely are you to correctly recall the second item in the pair?|Type your response on a scale from 0-100 and then press Enter.",River,RR10,2407,,,303,1595,,,,34,1
6547b412f19087618a1f26b8,s5z3opayr2,Ex2A_Prolific,1,123,2024-02-28T21:52:23+00:00,6.0025207996368,6,Stim_B.csv,Item.csv,Item,B,soles,,RR11,,,84,JOL,User,1.25,"How likely are you to correctly recall the second item in the pair?|Type your response on a scale from 0-100 and then press Enter.",River,RR11,5765,,,4919,5001,,,,24,0.379
6547b412f19087618a1f26b8,s5z3opayr2,Ex2A_Prolific,1,124,2024-02-28T21:52:25+00:00,1.8447391986847,6,Stim_B.csv,Item.csv,Item,B,springy,,RR12,,,85,JOL,User,1.25,"How likely are you to correctly recall the second item in the pair?|Type your response on a scale from 0-100 and then press Enter.",River,RR12,1694,,,535,648,,,,25,1
6547b412f19087618a1f26b8,s5z3opayr2,Ex2A_Prolific,1,125,2024-02-28T21:52:30+00:00,5.1924858093262,6,Stim_B.csv,Item.csv,Item,B,,,,,,0,Instruct,User,4,"You have completed this section. Please click next.",,Instruct166,4949,,,-1,-1,,,,,0.52
6547b412f19087618a1f26b8,s5z3opayr2,Ex2A_Prolific,1,126,2024-02-28T21:53:01+00:00,30.26393198967,6,Stim_B.csv,Item.csv,Item,B,,,,,,0,FreeRecall,30,30,"Please type as many words as you can that begin with the letter ""K"". The computer will automatically advance to the next screen in 30 seconds.",,FILLER,30003,"kill kangaroo kick knock knit kneel keep kept",0,1422,26296,0,0,,,1
6547b412f19087618a1f26b8,s5z3opayr2,Ex2A_Prolific,1,127,2024-02-28T21:53:02+00:00,1.6513650417328,6,Stim_B.csv,Item.csv,Item,B,,,,,,0,Instruct,User,-,"You have completed this section. Please click next.",,Instruct166,1404,,,-1,-1,,,,,1
6547b412f19087618a1f26b8,s5z3opayr2,Ex2A_Prolific,1,128,2024-02-28T21:53:09+00:00,6.2115659713745,6,Stim_B.csv,Item.csv,Item,B,,,,,,0,Instruct,User,4,"You will now complete a memory test for the words you just studied. Please type as many words from the previous list as you can seperated by a comma. Spelling will not count against you and you can recall the words in any order. This test will be timed for one minute, and the computer will automatically advance once time is up. Click next when you are ready to begin.",,Instruct1666,5960,,,-1,-1,,,,,0.842
6547b412f19087618a1f26b8,s5z3opayr2,Ex2A_Prolific,1,129,2024-02-28T21:54:09+00:00,60.252957105637,6,Stim_B.csv,Item.csv,Item,B,,,,,,0,FreeRecall,60,60,"Please type as many words as you can from the previous study list in any order. Please separate each word with a comma. Spelling will not count against you. This screen will automatically advance in one minute.",,RECALL_Test,60003,"foam, latex, galoshes, tire, flexible, elastic, glove, eraser, bounce, ball, soles, springy",0,1745,25169,0,0,,,1
6547b412f19087618a1f26b8,s5z3opayr2,Ex2A_Prolific,1,130,2024-02-28T21:54:16+00:00,6.7831430435181,6,Stim_B.csv,Item.csv,Item,B,,,,,,0,Instruct,User,3,"You will now be presented with a new study list. Click next when you are ready to begin.",,NEXT_LIST,6530,,,-1,-1,,,,,1
6547b412f19087618a1f26b8,s5z3opayr2,Ex2A_Prolific,1,131,2024-02-28T21:54:31+00:00,15.798358917236,6,Stim_B.csv,Item.csv,Item,B,toe,,B1,,,86,JOL,User,1.25,"How likely are you to correctly recall the second item in the pair?|Type your response on a scale from 0-100 and then press Enter.",Bread,B1,15541,,,13946,14100,,,,12,0.897
6547b412f19087618a1f26b8,s5z3opayr2,Ex2A_Prolific,1,132,2024-02-28T21:54:33+00:00,1.8934841156006,6,Stim_B.csv,Item.csv,Item,B,inch,,B2,,,87,JOL,User,1.25,"How likely are you to correctly recall the second item in the pair?|Type your response on a scale from 0-100 and then press Enter.",Bread,B2,1752,,,383,520,,,,41,1
6547b412f19087618a1f26b8,s5z3opayr2,Ex2A_Prolific,1,133,2024-02-28T21:54:36+00:00,2.5998129844666,6,Stim_B.csv,Item.csv,Item,B,ankle,,B3,,,88,JOL,User,1.25,"How likely are you to correctly recall the second item in the pair?|Type your response on a scale from 0-100 and then press Enter.",Bread,B3,2465,,,1448,1470,,,,13,1
6547b412f19087618a1f26b8,s5z3opayr2,Ex2A_Prolific,1,134,2024-02-28T21:54:38+00:00,2.1512789726257,6,Stim_B.csv,Item.csv,Item,B,shoe,,B4,,,89,JOL,User,1.25,"How likely are you to correctly recall the second item in the pair?|Type your response on a scale from 0-100 and then press Enter.",Bread,B4,1913,,,342,603,,,,42,1
6547b412f19087618a1f26b8,s5z3opayr2,Ex2A_Prolific,1,135,2024-02-28T21:54:48+00:00,10.124399900436,6,Stim_B.csv,Item.csv,Item,B,sandals,,B5,,,90,JOL,User,1.25,"How likely are you to correctly recall the second item in the pair?|Type your response on a scale from 0-100 and then press Enter.",Bread,B5,9868,,,9184,9241,,,,21,0.26
6547b412f19087618a1f26b8,s5z3opayr2,Ex2A_Prolific,1,136,2024-02-28T21:54:50+00:00,1.6467270851135,6,Stim_B.csv,Item.csv,Item,B,sock,,B6,,,91,JOL,User,1.25,"How likely are you to correctly recall the second item in the pair?|Type your response on a scale from 0-100 and then press Enter.",Bread,B6,1486,,,502,538,,,,32,1
6547b412f19087618a1f26b8,s5z3opayr2,Ex2A_Prolific,1,137,2024-02-28T21:54:51+00:00,1.5340809822083,6,Stim_B.csv,Item.csv,Item,B,hand,,B7,,,92,JOL,User,1.25,"How likely are you to correctly recall the second item in the pair?|Type your response on a scale from 0-100 and then press Enter.",Bread,B7,1298,,,421,453,,,,21,1
6547b412f19087618a1f26b8,s5z3opayr2,Ex2A_Prolific,1,138,2024-02-28T21:55:02+00:00,10.502063035965,6,Stim_B.csv,Item.csv,Item,B,boot,,B8,,,93,JOL,User,1.25,"How likely are you to correctly recall the second item in the pair?|Type your response on a scale from 0-100 and then press Enter.",Bread,B8,10254,,,8081,9148,,,,41,0.615
6547b412f19087618a1f26b8,s5z3opayr2,Ex2A_Prolific,1,139,2024-02-28T21:55:04+00:00,2.5823929309845,6,Stim_B.csv,Item.csv,Item,B,yard,,B9,,,94,JOL,User,1.25,"How likely are you to correctly recall the second item in the pair?|Type your response on a scale from 0-100 and then press Enter.",Bread,B9,2414,,,1544,1676,,,,21,1
6547b412f19087618a1f26b8,s5z3opayr2,Ex2A_Prolific,1,140,2024-02-28T21:55:08+00:00,3.8094820976257,6,Stim_B.csv,Item.csv,Item,B,kick,,B10,,,95,JOL,User,1.25,"How likely are you to correctly recall the second item in the pair?|Type your response on a scale from 0-100 and then press Enter.",Bread,B10,3563,,,1413,1676,,,,53,1
6547b412f19087618a1f26b8,s5z3opayr2,Ex2A_Prolific,1,141,2024-02-28T21:55:14+00:00,5.7548267841339,6,Stim_B.csv,Item.csv,Item,B,knee,,B11,,,96,JOL,User,1.25,"How likely are you to correctly recall the second item in the pair?|Type your response on a scale from 0-100 and then press Enter.",Bread,B11,5531,,,4760,4937,,,,12,0.357
6547b412f19087618a1f26b8,s5z3opayr2,Ex2A_Prolific,1,142,2024-02-28T21:55:16+00:00,2.1651360988617,6,Stim_B.csv,Item.csv,Item,B,walk,,B12,,,97,JOL,User,1.25,"How likely are you to correctly recall the second item in the pair?|Type your response on a scale from 0-100 and then press Enter.",Bread,B12,1928,,,354,467,,,,32,1
6547b412f19087618a1f26b8,s5z3opayr2,Ex2A_Prolific,1,143,2024-02-28T21:55:20+00:00,4.0996150970459,6,Stim_B.csv,Item.csv,Item,B,,,,,,0,Instruct,User,-,"You have completed this section. Please click next.",,Instruct166,3957,,,-1,-1,,,,,0.45
6547b412f19087618a1f26b8,s5z3opayr2,Ex2A_Prolific,1,144,2024-02-28T21:55:51+00:00,30.265710830688,6,Stim_B.csv,Item.csv,Item,B,,,,,,0,FreeRecall,30,30,"Please type as many words as you can that begin with the letter ""M"". The computer will automatically advance to the next screen in 30 seconds.",,FILLER,30001,"minute, mark, marksman, million, map, made, mad, mill, mud, mole, mall, mink, ",0,1705,29241,0,0,,,1
6547b412f19087618a1f26b8,s5z3opayr2,Ex2A_Prolific,1,145,2024-02-28T21:55:58+00:00,7.0865499973297,6,Stim_B.csv,Item.csv,Item,B,,,,,,0,Instruct,User,4,"You have completed this section. Please click next.",,Instruct166,6855,,,-1,-1,,,,,1
6547b412f19087618a1f26b8,s5z3opayr2,Ex2A_Prolific,1,146,2024-02-28T21:56:08+00:00,10.541710138321,6,Stim_B.csv,Item.csv,Item,B,,,,,,0,Instruct,User,4,"You will now complete a memory test for the words you just studied. Please type as many words from the previous list as you can seperated by a comma. Spelling will not count against you and you can recall the words in any order. This test will be timed for one minute, and the computer will automatically advance once time is up. Click next when you are ready to begin.",,Instruct1666,10287,,,-1,-1,,,,,1
6547b412f19087618a1f26b8,s5z3opayr2,Ex2A_Prolific,1,147,2024-02-28T21:57:08+00:00,60.281725883484,6,Stim_B.csv,Item.csv,Item,B,,,,,,0,FreeRecall,60,60,"Please type as many words as you can from the previous study list in any order. Please separate each word with a comma. Spelling will not count against you. This screen will automatically advance in one minute.",,RECALL_Test,60003,"toe, inch, ankle, shoes, sandals, sock, hand, boot, yard, kick, knee, walk",0,2074,15335,0,0,,,1
6547b412f19087618a1f26b8,s5z3opayr2,Ex2A_Prolific,1,148,2024-02-28T21:57:23+00:00,14.306534051895,6,Stim_B.csv,Item.csv,Item,B,,,,,,0,Instruct,User,3,"You will now be presented with a new study list. Click next when you are ready to begin.",,NEXT_LIST,14054,,,-1,-1,,,,,1
6547b412f19087618a1f26b8,s5z3opayr2,Ex2A_Prolific,1,149,2024-02-28T21:57:29+00:00,5.9227061271667,6,Stim_B.csv,Item.csv,Item,B,boy,,F1,,,98,JOL,User,1.25,"How likely are you to correctly recall the second item in the pair?|Type your response on a scale from 0-100 and then press Enter.",Flag,F1,5673,,,5153,5175,,,,13,1
6547b412f19087618a1f26b8,s5z3opayr2,Ex2A_Prolific,1,150,2024-02-28T21:57:33+00:00,4.1166479587555,6,Stim_B.csv,Item.csv,Item,B,dolls,,F2,,,99,JOL,User,1.25,"How likely are you to correctly recall the second item in the pair?|Type your response on a scale from 0-100 and then press Enter.",Flag,F2,3859,,,776,3141,,,,13,1
6547b412f19087618a1f26b8,s5z3opayr2,Ex2A_Prolific,1,151,2024-02-28T21:57:36+00:00,2.7725729942322,6,Stim_B.csv,Item.csv,Item,B,pretty,,F3,,,100,JOL,User,1.25,"How likely are you to correctly recall the second item in the pair?|Type your response on a scale from 0-100 and then press Enter.",Flag,F3,2619,,,241,2093,,,,15,1
6547b412f19087618a1f26b8,s5z3opayr2,Ex2A_Prolific,1,152,2024-02-28T21:57:40+00:00,4.6097218990326,6,Stim_B.csv,Item.csv,Item,B,female,,F4,,,101,JOL,User,1.25,"How likely are you to correctly recall the second item in the pair?|Type your response on a scale from 0-100 and then press Enter.",Flag,F4,4360,,,662,3388,,,,31,1
6547b412f19087618a1f26b8,s5z3opayr2,Ex2A_Prolific,1,153,2024-02-28T21:57:49+00:00,9.0211560726166,6,Stim_B.csv,Item.csv,Item,B,dress,,F5,,,102,JOL,User,1.25,"How likely are you to correctly recall the second item in the pair?|Type your response on a scale from 0-100 and then press Enter.",Flag,F5,8779,,,7260,8216,,,,21,0.409
6547b412f19087618a1f26b8,s5z3opayr2,Ex2A_Prolific,1,154,2024-02-28T21:57:51+00:00,1.8957450389862,6,Stim_B.csv,Item.csv,Item,B,date,,F6,,,103,JOL,User,1.25,"How likely are you to correctly recall the second item in the pair?|Type your response on a scale from 0-100 and then press Enter.",Flag,F6,1755,,,393,537,,,,24,1
6547b412f19087618a1f26b8,s5z3opayr2,Ex2A_Prolific,1,155,2024-02-28T21:57:53+00:00,1.8288068771362,6,Stim_B.csv,Item.csv,Item,B,beautiful,,F7,,,104,JOL,User,1.25,"How likely are you to correctly recall the second item in the pair?|Type your response on a scale from 0-100 and then press Enter.",Flag,F7,1692,,,709,784,,,,25,1
6547b412f19087618a1f26b8,s5z3opayr2,Ex2A_Prolific,1,156,2024-02-28T21:57:55+00:00,1.6923429965973,6,Stim_B.csv,Item.csv,Item,B,daughter,,F8,,,105,JOL,User,1.25,"How likely are you to correctly recall the second item in the pair?|Type your response on a scale from 0-100 and then press Enter.",Flag,F8,1540,,,204,376,,,,21,1
6547b412f19087618a1f26b8,s5z3opayr2,Ex2A_Prolific,1,157,2024-02-28T21:58:06+00:00,11.851686954498,6,Stim_B.csv,Item.csv,Item,B,sister,,F9,,,106,JOL,User,1.25,"How likely are you to correctly recall the second item in the pair?|Type your response on a scale from 0-100 and then press Enter.",Flag,F9,11611,,,6650,11316,,,,34,0.542
6547b412f19087618a1f26b8,s5z3opayr2,Ex2A_Prolific,1,158,2024-02-28T21:58:08+00:00,1.8130621910095,6,Stim_B.csv,Item.csv,Item,B,cute,,F10,,,107,JOL,User,1.25,"How likely are you to correctly recall the second item in the pair?|Type your response on a scale from 0-100 and then press Enter.",Flag,F10,1667,,,500,685,,,,12,1
6547b412f19087618a1f26b8,s5z3opayr2,Ex2A_Prolific,1,159,2024-02-28T21:58:10+00:00,1.896821975708,6,Stim_B.csv,Item.csv,Item,B,niece,,F11,,,108,JOL,User,1.25,"How likely are you to correctly recall the second item in the pair?|Type your response on a scale from 0-100 and then press Enter.",Flag,F11,1745,,,363,507,,,,35,1
6547b412f19087618a1f26b8,s5z3opayr2,Ex2A_Prolific,1,160,2024-02-28T21:58:12+00:00,1.8982758522034,6,Stim_B.csv,Item.csv,Item,B,young,,F12,,,109,JOL,User,1.25,"How likely are you to correctly recall the second item in the pair?|Type your response on a scale from 0-100 and then press Enter.",Flag,F12,1658,,,464,567,,,,46,1
6547b412f19087618a1f26b8,s5z3opayr2,Ex2A_Prolific,1,161,2024-02-28T21:58:19+00:00,6.9510321617126,6,Stim_B.csv,Item.csv,Item,B,,,,,,0,Instruct,User,4,"You have completed this section. Please click next.",,Instruct166,6713,,,-1,-1,,,,,0.118
6547b412f19087618a1f26b8,s5z3opayr2,Ex2A_Prolific,1,162,2024-02-28T21:58:49+00:00,30.261570930481,6,Stim_B.csv,Item.csv,Item,B,,,,,,0,FreeRecall,30,30,"Please type as many words as you can that begin with the letter ""R"". The computer will automatically advance to the next screen in 30 seconds.",,FILLER,30003,"reap, read, rail, reed, red, rink, rope, rad, roll, row,",0,1898,28443,0,0,,,1
6547b412f19087618a1f26b8,s5z3opayr2,Ex2A_Prolific,1,163,2024-02-28T21:58:51+00:00,1.5387001037598,6,Stim_B.csv,Item.csv,Item,B,,,,,,0,Instruct,User,-,"You have completed this section. Please click next.",,Instruct166,1394,,,-1,-1,,,,,1
6547b412f19087618a1f26b8,s5z3opayr2,Ex2A_Prolific,1,164,2024-02-28T21:58:58+00:00,6.8938519954681,6,Stim_B.csv,Item.csv,Item,B,,,,,,0,Instruct,User,4,"You will now complete a memory test for the words you just studied. Please type as many words from the previous list as you can seperated by a comma. Spelling will not count against you and you can recall the words in any order. This test will be timed for one minute, and the computer will automatically advance once time is up. Click next when you are ready to begin.",,Instruct1666,6640,,,-1,-1,,,,,1
6547b412f19087618a1f26b8,s5z3opayr2,Ex2A_Prolific,1,165,2024-02-28T21:59:58+00:00,60.256338834763,6,Stim_B.csv,Item.csv,Item,B,,,,,,0,FreeRecall,60,60,"Please type as many words as you can from the previous study list in any order. Please separate each word with a comma. Spelling will not count against you. This screen will automatically advance in one minute.",,RECALL_Test,60000,"boy, dolls, pretty, female, dress, date, daughter, beautiful, sister, cute, niece, young",0,1300,19234,0,0,,,1
6547b412f19087618a1f26b8,s5z3opayr2,Ex2A_Prolific,1,166,2024-02-28T22:00:07+00:00,9.43860912323,6,Stim_B.csv,Item.csv,Item,B,,,,,,0,Instruct,User,3,"You will now be presented with a new study list. Click next when you are ready to begin.",,NEXT_LIST,9185,,,-1,-1,,,,,1
6547b412f19087618a1f26b8,s5z3opayr2,Ex2A_Prolific,1,167,2024-02-28T22:00:21+00:00,13.450193881989,6,Stim_B.csv,Item.csv,Item,B,white,,SS1,,,110,JOL,User,1.25,"How likely are you to correctly recall the second item in the pair?|Type your response on a scale from 0-100 and then press Enter.",Shirt,SS1,13202,,,12117,12247,,,,13,1
6547b412f19087618a1f26b8,s5z3opayr2,Ex2A_Prolific,1,168,2024-02-28T22:00:26+00:00,5.3069469928741,6,Stim_B.csv,Item.csv,Item,B,gray,,SS2,,,111,JOL,User,1.25,"How likely are you to correctly recall the second item in the pair?|Type your response on a scale from 0-100 and then press Enter.",Shirt,SS2,5069,,,1410,4355,,,,21,1
6547b412f19087618a1f26b8,s5z3opayr2,Ex2A_Prolific,1,169,2024-02-28T22:00:28+00:00,1.7999310493469,6,Stim_B.csv,Item.csv,Item,B,brown,,SS3,,,112,JOL,User,1.25,"How likely are you to correctly recall the second item in the pair?|Type your response on a scale from 0-100 and then press Enter.",Shirt,SS3,1650,,,283,425,,,,32,1
6547b412f19087618a1f26b8,s5z3opayr2,Ex2A_Prolific,1,170,2024-02-28T22:00:30+00:00,1.8323459625244,6,Stim_B.csv,Item.csv,Item,B,coal,,SS4,,,113,JOL,User,1.25,"How likely are you to correctly recall the second item in the pair?|Type your response on a scale from 0-100 and then press Enter.",Shirt,SS4,1684,,,691,1003,,,,12,1
6547b412f19087618a1f26b8,s5z3opayr2,Ex2A_Prolific,1,171,2024-02-28T22:00:37+00:00,7.4479479789734,6,Stim_B.csv,Item.csv,Item,B,dark,,SS5,,,114,JOL,User,1.25,"How likely are you to correctly recall the second item in the pair?|Type your response on a scale from 0-100 and then press Enter.",Shirt,SS5,7203,,,6055,6115,,,,32,0.27
6547b412f19087618a1f26b8,s5z3opayr2,Ex2A_Prolific,1,172,2024-02-28T22:00:39+00:00,1.817015171051,6,Stim_B.csv,Item.csv,Item,B,color,,SS6,,,115,JOL,User,1.25,"How likely are you to correctly recall the second item in the pair?|Type your response on a scale from 0-100 and then press Enter.",Shirt,SS6,1670,,,617,740,,,,21,1
6547b412f19087618a1f26b8,s5z3opayr2,Ex2A_Prolific,1,173,2024-02-28T22:00:41+00:00,1.8683037757874,6,Stim_B.csv,Item.csv,Item,B,funeral,,SS7,,,116,JOL,User,1.25,"How likely are you to correctly recall the second item in the pair?|Type your response on a scale from 0-100 and then press Enter.",Shirt,SS7,1716,,,263,683,,,,25,1
6547b412f19087618a1f26b8,s5z3opayr2,Ex2A_Prolific,1,174,2024-02-28T22:00:48+00:00,7.0539221763611,6,Stim_B.csv,Item.csv,Item,B,blue,,SS8,,,117,JOL,User,1.25,"How likely are you to correctly recall the second item in the pair?|Type your response on a scale from 0-100 and then press Enter.",Shirt,SS8,6811,,,5768,5910,,,,32,0.314
6547b412f19087618a1f26b8,s5z3opayr2,Ex2A_Prolific,1,175,2024-02-28T22:00:50+00:00,1.7757828235626,6,Stim_B.csv,Item.csv,Item,B,charred,,SS9,,,118,JOL,User,1.25,"How likely are you to correctly recall the second item in the pair?|Type your response on a scale from 0-100 and then press Enter.",Shirt,SS9,1636,,,503,661,,,,12,1
6547b412f19087618a1f26b8,s5z3opayr2,Ex2A_Prolific,1,176,2024-02-28T22:00:52+00:00,1.8926270008087,6,Stim_B.csv,Item.csv,Item,B,ink,,SS10,,,119,JOL,User,1.25,"How likely are you to correctly recall the second item in the pair?|Type your response on a scale from 0-100 and then press Enter.",Shirt,SS10,1648,,,322,423,,,,23,1
6547b412f19087618a1f26b8,s5z3opayr2,Ex2A_Prolific,1,177,2024-02-28T22:00:59+00:00,7.3789601325989,6,Stim_B.csv,Item.csv,Item,B,death,,SS11,,,120,JOL,User,1.25,"How likely are you to correctly recall the second item in the pair?|Type your response on a scale from 0-100 and then press Enter.",Shirt,SS11,7147,,,6404,6532,,,,31,0.361
6547b412f19087618a1f26b8,s5z3opayr2,Ex2A_Prolific,1,178,2024-02-28T22:01:01+00:00,1.780611038208,6,Stim_B.csv,Item.csv,Item,B,cat,,SS12,,,121,JOL,User,1.25,"How likely are you to correctly recall the second item in the pair?|Type your response on a scale from 0-100 and then press Enter.",Shirt,SS12,1635,,,340,475,,,,21,1
6547b412f19087618a1f26b8,s5z3opayr2,Ex2A_Prolific,1,179,2024-02-28T22:01:06+00:00,5.5932910442352,6,Stim_B.csv,Item.csv,Item,B,,,,,,0,Instruct,User,4,"You have completed this section. Please click next.",,Instruct166,5342,,,-1,-1,,,,,0.296
6547b412f19087618a1f26b8,s5z3opayr2,Ex2A_Prolific,1,180,2024-02-28T22:01:37+00:00,30.258242845535,6,Stim_B.csv,Item.csv,Item,B,,,,,,0,FreeRecall,30,30,"Please type as many words as you can that begin with the letter ""T"". The computer will automatically advance to the next screen in 30 seconds.",,FILLER,30002,"tint, toque, tool, tusk, treat, took, take, trill, tool",0,11336,29994,0,0,,,1
6547b412f19087618a1f26b8,s5z3opayr2,Ex2A_Prolific,1,181,2024-02-28T22:01:39+00:00,2.1594209671021,6,Stim_B.csv,Item.csv,Item,B,,,,,,0,Instruct,User,-,"You have completed this section. Please click next.",,Instruct166,2003,,,-1,-1,,,,,1
6547b412f19087618a1f26b8,s5z3opayr2,Ex2A_Prolific,1,182,2024-02-28T22:01:45+00:00,5.9838900566101,6,Stim_B.csv,Item.csv,Item,B,,,,,,0,Instruct,User,4,"You will now complete a memory test for the words you just studied. Please type as many words from the previous list as you can seperated by a comma. Spelling will not count against you and you can recall the words in any order. This test will be timed for one minute, and the computer will automatically advance once time is up. Click next when you are ready to begin.",,Instruct1666,5730,,,-1,-1,,,,,1
6547b412f19087618a1f26b8,s5z3opayr2,Ex2A_Prolific,1,183,2024-02-28T22:02:45+00:00,60.255109071732,6,Stim_B.csv,Item.csv,Item,B,,,,,,0,FreeRecall,60,60,"Please type as many words as you can from the previous study list in any order. Please separate each word with a comma. Spelling will not count against you. This screen will automatically advance in one minute.",,RECALL_Test,60000,"white, gray, brown, coal, dark, color, blue, funeral, charred, ink, death, cat",0,1340,47336,0,0,,,1
6547b412f19087618a1f26b8,s5z3opayr2,Ex2A_Prolific,1,184,2024-02-28T22:02:57+00:00,11.520088911057,6,Stim_B.csv,Item.csv,Item,B,,,,,,0,Instruct,User,-,"You have completed this section. Please click next.",,Instruct7,11290,,,-1,-1,,,,,1
6547b412f19087618a1f26b8,s5z3opayr2,Ex2A_Prolific,1,185,2024-02-28T22:02:58+00:00,1.6402959823608,6,Stim_B.csv,Item.csv,Item,B,,,,,,0,Instruct,User,-,"The following screen will ask you a few questions abour your experience today. You must complete these questions to receive credit.",,Instruct8,1484,,,-1,-1,,,,,1
