Username,ID,ExperimentName,Session,Trial,Date,TimeDif,"Condition Number","Stimuli File","Order File","Condition Description","Condition Notes",Stimuli*Cue,Stimuli*Answer,Stimuli*Shuffle,"Stimuli*Stimuli Notes",Stimuli*Value,Procedure*Item,"Procedure*Trial Type","Procedure*Max Time","Procedure*Min Time",Procedure*Text,"Procedure*Procedure Notes",Procedure*Shuffle,Response*RT,Response*Response,Response*Accuracy,Response*RTfirst,Response*RTlast,Response*strictAcc,Response*lenientAcc,Response*focus,Response*JOL,Response*Focus
5c3a5009fb7feb00014290f1,1w9598vxkm,Ex2A_Prolific,1,1,2024-02-28T23:52:13+00:00,7.2692940235138,6,Stim_B.csv,Item.csv,Item,B,,,,,,0,Instruct,-,5,"In this section, you will be presented with a series of words. Please study each word carefully. Your memory will be tested!",Initial_Instruct,Instruct1,7049,,,-1,-1,,,,,1
5c3a5009fb7feb00014290f1,1w9598vxkm,Ex2A_Prolific,1,2,2024-02-28T23:52:20+00:00,7.4161159992218,6,Stim_B.csv,Item.csv,Item,B,,,,,,0,Instruct,-,5,"As you study, you will be asked to rate your ability to remember each item on a later memory test using a 0-100 scale. For example, if you study the word DOG, a rating of 0 indicates that you would not remember DOG at test, while a rating of 100 indicates full certainty that you would remember the word DOG at test.",,Instruct13,7133,,,-1,-1,,,,,1
5c3a5009fb7feb00014290f1,1w9598vxkm,Ex2A_Prolific,1,3,2024-02-28T23:52:31+00:00,10.984488010406,6,Stim_B.csv,Item.csv,Item,B,,,,,,0,Instruct,-,10,"When making your ratings, it is criticial that you use the full range of the scale. You will be disqualified for only giving ratings of 0 or 100!",,Instruct15,10724,,,-1,-1,,,,,1
5c3a5009fb7feb00014290f1,1w9598vxkm,Ex2A_Prolific,1,4,2024-02-28T23:52:33+00:00,1.8755149841309,6,Stim_B.csv,Item.csv,Item,B,,,,,,0,Instruct,User,-,"You will now begin the study. Click next when you are ready to begin.",,Instruct16,1666,,,-1,-1,,,,,1
5c3a5009fb7feb00014290f1,1w9598vxkm,Ex2A_Prolific,1,5,2024-02-28T23:52:44+00:00,10.748732089996,6,Stim_B.csv,Item.csv,Item,B,aroma,,Win_1,,,2,JOL,User,1.25,"How likely are you to correctly recall the second item in the pair?|Type your response on a scale from 0-100 and then press Enter.",Window,Win_1,10486,,,4090,5567,,,,70,1
5c3a5009fb7feb00014290f1,1w9598vxkm,Ex2A_Prolific,1,6,2024-02-28T23:52:50+00:00,6.2395880222321,6,Stim_B.csv,Item.csv,Item,B,scent,,Win_2,,,3,JOL,User,1.25,"How likely are you to correctly recall the second item in the pair?|Type your response on a scale from 0-100 and then press Enter.",Window,Win_2,5957,,,4542,4907,,,,72,1
5c3a5009fb7feb00014290f1,1w9598vxkm,Ex2A_Prolific,1,7,2024-02-28T23:52:56+00:00,6.0767409801483,6,Stim_B.csv,Item.csv,Item,B,whiff,,Win_3,,,4,JOL,User,1.25,"How likely are you to correctly recall the second item in the pair?|Type your response on a scale from 0-100 and then press Enter.",Window,Win_3,5843,,,2839,4771,,,,70,1
5c3a5009fb7feb00014290f1,1w9598vxkm,Ex2A_Prolific,1,8,2024-02-28T23:53:00+00:00,4.298889875412,6,Stim_B.csv,Item.csv,Item,B,stench,,Win_4,,,5,JOL,User,1.25,"How likely are you to correctly recall the second item in the pair?|Type your response on a scale from 0-100 and then press Enter.",Window,Win_4,4090,,,2325,3054,,,,40,1
5c3a5009fb7feb00014290f1,1w9598vxkm,Ex2A_Prolific,1,9,2024-02-28T23:53:04+00:00,3.7211260795593,6,Stim_B.csv,Item.csv,Item,B,reek,,Win_5,,,6,JOL,User,1.25,"How likely are you to correctly recall the second item in the pair?|Type your response on a scale from 0-100 and then press Enter.",Window,Win_5,3509,,,1978,2418,,,,50,1
5c3a5009fb7feb00014290f1,1w9598vxkm,Ex2A_Prolific,1,10,2024-02-28T23:53:09+00:00,4.6875660419464,6,Stim_B.csv,Item.csv,Item,B,sniff,,Win_6,,,7,JOL,User,1.25,"How likely are you to correctly recall the second item in the pair?|Type your response on a scale from 0-100 and then press Enter.",Window,Win_6,4445,,,2763,3358,,,,40,1
5c3a5009fb7feb00014290f1,1w9598vxkm,Ex2A_Prolific,1,11,2024-02-28T23:53:12+00:00,3.5519738197327,6,Stim_B.csv,Item.csv,Item,B,perfume,,Win_7,,,8,JOL,User,1.25,"How likely are you to correctly recall the second item in the pair?|Type your response on a scale from 0-100 and then press Enter.",Window,Win_7,3299,,,2437,2617,,,,78,1
5c3a5009fb7feb00014290f1,1w9598vxkm,Ex2A_Prolific,1,12,2024-02-28T23:53:21+00:00,8.4524409770966,6,Stim_B.csv,Item.csv,Item,B,fragrance,,Win_8,,,9,JOL,User,1.25,"How likely are you to correctly recall the second item in the pair?|Type your response on a scale from 0-100 and then press Enter.",Window,Win_8,8191,,,4648,7434,,,,50,1
5c3a5009fb7feb00014290f1,1w9598vxkm,Ex2A_Prolific,1,13,2024-02-28T23:53:25+00:00,4.3797371387482,6,Stim_B.csv,Item.csv,Item,B,nose,,Win_9,,,10,JOL,User,1.25,"How likely are you to correctly recall the second item in the pair?|Type your response on a scale from 0-100 and then press Enter.",Window,Win_9,4168,,,2589,2595,,,,30,1
5c3a5009fb7feb00014290f1,1w9598vxkm,Ex2A_Prolific,1,14,2024-02-28T23:53:28+00:00,2.7914760112762,6,Stim_B.csv,Item.csv,Item,B,rose,,Win_10,,,11,JOL,User,1.25,"How likely are you to correctly recall the second item in the pair?|Type your response on a scale from 0-100 and then press Enter.",Window,Win_10,2563,,,1585,1606,,,,20,1
5c3a5009fb7feb00014290f1,1w9598vxkm,Ex2A_Prolific,1,15,2024-02-28T23:53:30+00:00,2.260223865509,6,Stim_B.csv,Item.csv,Item,B,salts,,Win_11,,,12,JOL,User,1.25,"How likely are you to correctly recall the second item in the pair?|Type your response on a scale from 0-100 and then press Enter.",Window,Win_11,2055,,,1276,1294,,,,10,1
5c3a5009fb7feb00014290f1,1w9598vxkm,Ex2A_Prolific,1,16,2024-02-28T23:53:33+00:00,2.5001101493835,6,Stim_B.csv,Item.csv,Item,B,breathe,,Win_12,,,13,JOL,User,1.25,"How likely are you to correctly recall the second item in the pair?|Type your response on a scale from 0-100 and then press Enter.",Window,Win_12,2286,,,1475,1539,,,,20,1
5c3a5009fb7feb00014290f1,1w9598vxkm,Ex2A_Prolific,1,17,2024-02-28T23:53:34+00:00,1.620167016983,6,Stim_B.csv,Item.csv,Item,B,,,,,,0,Instruct,User,-,"You have completed this section. Please click next.",,Instruct166,1417,,,-1,-1,,,,,1
5c3a5009fb7feb00014290f1,1w9598vxkm,Ex2A_Prolific,1,18,2024-02-28T23:54:05+00:00,30.306700944901,6,Stim_B.csv,Item.csv,Item,B,,,,,,0,FreeRecall,30,30,"Please type as many words as you can that begin with the letter ""L"". The computer will automatically advance to the next screen in 30 seconds.",,FILLER,30009,"Light Love Left Linger Lungs Lutheran Longevity Linguine List Li5c3a5009fb7feb00014290f1i",0,3052,28562,0,0,,,1
5c3a5009fb7feb00014290f1,1w9598vxkm,Ex2A_Prolific,1,19,2024-02-28T23:54:14+00:00,9.4092910289764,6,Stim_B.csv,Item.csv,Item,B,,,,,,0,Instruct,User,4,"You have completed this section. Please click next.",,Instruct166,9118,,,-1,-1,,,,,0.652
5c3a5009fb7feb00014290f1,1w9598vxkm,Ex2A_Prolific,1,20,2024-02-28T23:54:20+00:00,5.8261849880219,6,Stim_B.csv,Item.csv,Item,B,,,,,,0,Instruct,User,4,"You will now complete a memory test for the words you just studied. Please type as many words from the previous list as you can seperated by a comma. Spelling will not count against you and you can recall the words in any order. This test will be timed for one minute, and the computer will automatically advance once time is up. Click next when you are ready to begin.",,Instruct1666,5572,,,-1,-1,,,,,1
5c3a5009fb7feb00014290f1,1w9598vxkm,Ex2A_Prolific,1,21,2024-02-28T23:55:20+00:00,60.273766994476,6,Stim_B.csv,Item.csv,Item,B,,,,,,0,FreeRecall,60,60,"Please type as many words as you can from the previous study list in any order. Please separate each word with a comma. Spelling will not count against you. This screen will automatically advance in one minute.",,RECALL_Test,60014,"Stench Aroma Rose Nose Sniff Whiff Fragrance Perfume Scent Breathe",0,804,51988,0,0,,,0.923
5c3a5009fb7feb00014290f1,1w9598vxkm,Ex2A_Prolific,1,22,2024-02-28T23:55:24+00:00,4.1799628734589,6,Stim_B.csv,Item.csv,Item,B,,,,,,0,Instruct,User,3,"You will now be presented with a new study list. Click next when you are ready to begin.",,NEXT_LIST,3937,,,-1,-1,,,,,1
5c3a5009fb7feb00014290f1,1w9598vxkm,Ex2A_Prolific,1,23,2024-02-28T23:55:28+00:00,3.3999330997467,6,Stim_B.csv,Item.csv,Item,B,hard,,R1,,,14,JOL,User,1.25,"How likely are you to correctly recall the second item in the pair?|Type your response on a scale from 0-100 and then press Enter.",Rough,R1,3184,,,2088,2122,,,,50,1
5c3a5009fb7feb00014290f1,1w9598vxkm,Ex2A_Prolific,1,24,2024-02-28T23:55:30+00:00,2.6440329551697,6,Stim_B.csv,Item.csv,Item,B,loud,,R2,,,15,JOL,User,1.25,"How likely are you to correctly recall the second item in the pair?|Type your response on a scale from 0-100 and then press Enter.",Rough,R2,2396,,,1437,1469,,,,50,1
5c3a5009fb7feb00014290f1,1w9598vxkm,Ex2A_Prolific,1,25,2024-02-28T23:55:34+00:00,3.3855900764465,6,Stim_B.csv,Item.csv,Item,B,tender,,R3,,,16,JOL,User,1.25,"How likely are you to correctly recall the second item in the pair?|Type your response on a scale from 0-100 and then press Enter.",Rough,R3,3152,,,2413,2534,,,,55,1
5c3a5009fb7feb00014290f1,1w9598vxkm,Ex2A_Prolific,1,26,2024-02-28T23:55:37+00:00,3.4200210571289,6,Stim_B.csv,Item.csv,Item,B,fluffy,,R4,,,17,JOL,User,1.25,"How likely are you to correctly recall the second item in the pair?|Type your response on a scale from 0-100 and then press Enter.",Rough,R4,3190,,,2241,2285,,,,50,1
5c3a5009fb7feb00014290f1,1w9598vxkm,Ex2A_Prolific,1,27,2024-02-28T23:55:42+00:00,5.107293844223,6,Stim_B.csv,Item.csv,Item,B,pillow,,R5,,,18,JOL,User,1.25,"How likely are you to correctly recall the second item in the pair?|Type your response on a scale from 0-100 and then press Enter.",Rough,R5,4890,,,4021,4055,,,,40,1
5c3a5009fb7feb00014290f1,1w9598vxkm,Ex2A_Prolific,1,28,2024-02-28T23:55:47+00:00,4.6934561729431,6,Stim_B.csv,Item.csv,Item,B,downy,,R6,,,19,JOL,User,1.25,"How likely are you to correctly recall the second item in the pair?|Type your response on a scale from 0-100 and then press Enter.",Rough,R6,4492,,,3525,3560,,,,60,1
5c3a5009fb7feb00014290f1,1w9598vxkm,Ex2A_Prolific,1,29,2024-02-28T23:55:50+00:00,3.0036318302155,6,Stim_B.csv,Item.csv,Item,B,plush,,R7,,,20,JOL,User,1.25,"How likely are you to correctly recall the second item in the pair?|Type your response on a scale from 0-100 and then press Enter.",Rough,R7,2826,,,2141,2168,,,,50,1
5c3a5009fb7feb00014290f1,1w9598vxkm,Ex2A_Prolific,1,30,2024-02-28T23:55:53+00:00,3.0997459888458,6,Stim_B.csv,Item.csv,Item,B,cotton,,R8,,,21,JOL,User,1.25,"How likely are you to correctly recall the second item in the pair?|Type your response on a scale from 0-100 and then press Enter.",Rough,R8,2897,,,1190,2178,,,,30,1
5c3a5009fb7feb00014290f1,1w9598vxkm,Ex2A_Prolific,1,31,2024-02-28T23:55:56+00:00,3.2281100749969,6,Stim_B.csv,Item.csv,Item,B,skin,,R9,,,22,JOL,User,1.25,"How likely are you to correctly recall the second item in the pair?|Type your response on a scale from 0-100 and then press Enter.",Rough,R9,3008,,,2037,2233,,,,70,1
5c3a5009fb7feb00014290f1,1w9598vxkm,Ex2A_Prolific,1,32,2024-02-28T23:56:00+00:00,3.587954044342,6,Stim_B.csv,Item.csv,Item,B,fur,,R10,,,23,JOL,User,1.25,"How likely are you to correctly recall the second item in the pair?|Type your response on a scale from 0-100 and then press Enter.",Rough,R10,3386,,,1382,2593,,,,75,1
5c3a5009fb7feb00014290f1,1w9598vxkm,Ex2A_Prolific,1,33,2024-02-28T23:56:03+00:00,3.371906042099,6,Stim_B.csv,Item.csv,Item,B,touch,,R11,,,24,JOL,User,1.25,"How likely are you to correctly recall the second item in the pair?|Type your response on a scale from 0-100 and then press Enter.",Rough,R11,3190,,,1328,2550,,,,40,1
5c3a5009fb7feb00014290f1,1w9598vxkm,Ex2A_Prolific,1,34,2024-02-28T23:56:08+00:00,4.6561448574066,6,Stim_B.csv,Item.csv,Item,B,furry,,R12,,,25,JOL,User,1.25,"How likely are you to correctly recall the second item in the pair?|Type your response on a scale from 0-100 and then press Enter.",Rough,R12,4435,,,3453,3622,,,,80,1
5c3a5009fb7feb00014290f1,1w9598vxkm,Ex2A_Prolific,1,35,2024-02-28T23:56:13+00:00,4.9436891078949,6,Stim_B.csv,Item.csv,Item,B,,,,,,0,Instruct,User,4,"You have completed this section. Please click next.",,Instruct166,4730,,,-1,-1,,,,,1
5c3a5009fb7feb00014290f1,1w9598vxkm,Ex2A_Prolific,1,36,2024-02-28T23:56:43+00:00,30.332247972488,6,Stim_B.csv,Item.csv,Item,B,,,,,,0,FreeRecall,30,30,"Please type as many words as you can that begin with the letter ""C"". The computer will automatically advance to the next screen in 30 seconds.",,FILLER,30005,"Chiquita Chocolate Cherub Cholesterol Candid Cannabis Collate Christen Cayenne Comfort",0,1728,29955,0,0,,,1
5c3a5009fb7feb00014290f1,1w9598vxkm,Ex2A_Prolific,1,37,2024-02-28T23:56:44+00:00,1.4067189693451,6,Stim_B.csv,Item.csv,Item,B,,,,,,0,Instruct,User,-,"You have completed this section. Please click next.",,Instruct166,1210,,,-1,-1,,,,,1
5c3a5009fb7feb00014290f1,1w9598vxkm,Ex2A_Prolific,1,38,2024-02-28T23:56:50+00:00,5.1922669410706,6,Stim_B.csv,Item.csv,Item,B,,,,,,0,Instruct,User,4,"You will now complete a memory test for the words you just studied. Please type as many words from the previous list as you can seperated by a comma. Spelling will not count against you and you can recall the words in any order. This test will be timed for one minute, and the computer will automatically advance once time is up. Click next when you are ready to begin.",,Instruct1666,4940,,,-1,-1,,,,,1
5c3a5009fb7feb00014290f1,1w9598vxkm,Ex2A_Prolific,1,39,2024-02-28T23:57:50+00:00,60.250622034073,6,Stim_B.csv,Item.csv,Item,B,,,,,,0,FreeRecall,60,60,"Please type as many words as you can from the previous study list in any order. Please separate each word with a comma. Spelling will not count against you. This screen will automatically advance in one minute.",,RECALL_Test,60004,"Pillow, Fur, Furry, Skin, Cotton, Fluffy, Hard, Loud, Tender, Downy",0,2178,34416,0,0,,,0.657
5c3a5009fb7feb00014290f1,1w9598vxkm,Ex2A_Prolific,1,40,2024-02-28T23:57:54+00:00,4.0438890457153,6,Stim_B.csv,Item.csv,Item,B,,,,,,0,Instruct,User,3,"You will now be presented with a new study list. Click next when you are ready to begin.",,NEXT_LIST,3853,,,-1,-1,,,,,1
5c3a5009fb7feb00014290f1,1w9598vxkm,Ex2A_Prolific,1,41,2024-02-28T23:57:57+00:00,3.4077050685883,6,Stim_B.csv,Item.csv,Item,B,honey,,A1,,,26,JOL,User,1.25,"How likely are you to correctly recall the second item in the pair?|Type your response on a scale from 0-100 and then press Enter.",Anger,A1,3171,,,2277,2313,,,,50,1
5c3a5009fb7feb00014290f1,1w9598vxkm,Ex2A_Prolific,1,42,2024-02-28T23:58:01+00:00,3.8761529922485,6,Stim_B.csv,Item.csv,Item,B,bitter,,A2,,,27,JOL,User,1.25,"How likely are you to correctly recall the second item in the pair?|Type your response on a scale from 0-100 and then press Enter.",Anger,A2,3674,,,2071,2972,,,,50,1
5c3a5009fb7feb00014290f1,1w9598vxkm,Ex2A_Prolific,1,43,2024-02-28T23:58:04+00:00,2.795912027359,6,Stim_B.csv,Item.csv,Item,B,sugar,,A3,,,28,JOL,User,1.25,"How likely are you to correctly recall the second item in the pair?|Type your response on a scale from 0-100 and then press Enter.",Anger,A3,2571,,,1768,1808,,,,60,1
5c3a5009fb7feb00014290f1,1w9598vxkm,Ex2A_Prolific,1,44,2024-02-28T23:58:07+00:00,2.9567649364471,6,Stim_B.csv,Item.csv,Item,B,sour,,A4,,,29,JOL,User,1.25,"How likely are you to correctly recall the second item in the pair?|Type your response on a scale from 0-100 and then press Enter.",Anger,A4,2741,,,1997,2038,,,,50,1
5c3a5009fb7feb00014290f1,1w9598vxkm,Ex2A_Prolific,1,45,2024-02-28T23:58:10+00:00,3.0953228473663,6,Stim_B.csv,Item.csv,Item,B,candy,,A5,,,30,JOL,User,1.25,"How likely are you to correctly recall the second item in the pair?|Type your response on a scale from 0-100 and then press Enter.",Anger,A5,2905,,,1582,1747,,,,80,1
5c3a5009fb7feb00014290f1,1w9598vxkm,Ex2A_Prolific,1,46,2024-02-28T23:58:13+00:00,3.2079100608826,6,Stim_B.csv,Item.csv,Item,B,tart,,A6,,,31,JOL,User,1.25,"How likely are you to correctly recall the second item in the pair?|Type your response on a scale from 0-100 and then press Enter.",Anger,A6,2972,,,2211,2240,,,,50,1
5c3a5009fb7feb00014290f1,1w9598vxkm,Ex2A_Prolific,1,47,2024-02-28T23:58:16+00:00,2.8161449432373,6,Stim_B.csv,Item.csv,Item,B,chocolate,,A7,,,32,JOL,User,1.25,"How likely are you to correctly recall the second item in the pair?|Type your response on a scale from 0-100 and then press Enter.",Anger,A7,2600,,,1597,1785,,,,100,1
5c3a5009fb7feb00014290f1,1w9598vxkm,Ex2A_Prolific,1,48,2024-02-28T23:58:19+00:00,2.4638941287994,6,Stim_B.csv,Item.csv,Item,B,nice,,A8,,,33,JOL,User,1.25,"How likely are you to correctly recall the second item in the pair?|Type your response on a scale from 0-100 and then press Enter.",Anger,A8,2273,,,1463,1515,,,,50,1
5c3a5009fb7feb00014290f1,1w9598vxkm,Ex2A_Prolific,1,49,2024-02-28T23:58:22+00:00,3.4277849197388,6,Stim_B.csv,Item.csv,Item,B,taste,,A9,,,34,JOL,User,1.25,"How likely are you to correctly recall the second item in the pair?|Type your response on a scale from 0-100 and then press Enter.",Anger,A9,3235,,,2276,2514,,,,40,1
5c3a5009fb7feb00014290f1,1w9598vxkm,Ex2A_Prolific,1,50,2024-02-28T23:58:24+00:00,2.4691760540009,6,Stim_B.csv,Item.csv,Item,B,cake,,A10,,,35,JOL,User,1.25,"How likely are you to correctly recall the second item in the pair?|Type your response on a scale from 0-100 and then press Enter.",Anger,A10,2254,,,1522,1568,,,,20,1
5c3a5009fb7feb00014290f1,1w9598vxkm,Ex2A_Prolific,1,51,2024-02-28T23:58:28+00:00,3.5350360870361,6,Stim_B.csv,Item.csv,Item,B,good,,A11,,,36,JOL,User,1.25,"How likely are you to correctly recall the second item in the pair?|Type your response on a scale from 0-100 and then press Enter.",Anger,A11,3324,,,2623,2649,,,,20,1
5c3a5009fb7feb00014290f1,1w9598vxkm,Ex2A_Prolific,1,52,2024-02-28T23:58:33+00:00,5.2964618206024,6,Stim_B.csv,Item.csv,Item,B,tooth,,A12,,,37,JOL,User,1.25,"How likely are you to correctly recall the second item in the pair?|Type your response on a scale from 0-100 and then press Enter.",Anger,A12,5034,,,3991,4176,,,,100,1
5c3a5009fb7feb00014290f1,1w9598vxkm,Ex2A_Prolific,1,53,2024-02-28T23:58:35+00:00,1.495842218399,6,Stim_B.csv,Item.csv,Item,B,,,,,,0,Instruct,User,-,"You have completed this section. Please click next.",,Instruct166,1272,,,-1,-1,,,,,1
5c3a5009fb7feb00014290f1,1w9598vxkm,Ex2A_Prolific,1,54,2024-02-28T23:59:05+00:00,30.276661872864,6,Stim_B.csv,Item.csv,Item,B,,,,,,0,FreeRecall,30,30,"Please type as many words as you can that begin with the letter ""S"". The computer will automatically advance to the next screen in 30 seconds.",,FILLER,30011,"Snake Seraph Sweetness Syrup Slender Salvage Salvation Serenity Sorority Septegenarian Surreptitious Slov",0,1270,29872,0,0,,,1
5c3a5009fb7feb00014290f1,1w9598vxkm,Ex2A_Prolific,1,55,2024-02-28T23:59:11+00:00,5.6273589134216,6,Stim_B.csv,Item.csv,Item,B,,,,,,0,Instruct,User,4,"You have completed this section. Please click next.",,Instruct166,5358,,,-1,-1,,,,,1
5c3a5009fb7feb00014290f1,1w9598vxkm,Ex2A_Prolific,1,56,2024-02-28T23:59:16+00:00,5.1999781131744,6,Stim_B.csv,Item.csv,Item,B,,,,,,0,Instruct,User,4,"You will now complete a memory test for the words you just studied. Please type as many words from the previous list as you can seperated by a comma. Spelling will not count against you and you can recall the words in any order. This test will be timed for one minute, and the computer will automatically advance once time is up. Click next when you are ready to begin.",,Instruct1666,4947,,,-1,-1,,,,,1
5c3a5009fb7feb00014290f1,1w9598vxkm,Ex2A_Prolific,1,57,2024-02-29T00:00:16+00:00,60.275918960571,6,Stim_B.csv,Item.csv,Item,B,,,,,,0,FreeRecall,60,60,"Please type as many words as you can from the previous study list in any order. Please separate each word with a comma. Spelling will not count against you. This screen will automatically advance in one minute.",,RECALL_Test,60005,"Chocolate, Candy, Bitter, Honey, Tart, Sour, Taste, Tooth, Sugar",0,894,38351,0,0,,,0.828
5c3a5009fb7feb00014290f1,1w9598vxkm,Ex2A_Prolific,1,58,2024-02-29T00:00:21+00:00,4.8035819530487,6,Stim_B.csv,Item.csv,Item,B,,,,,,0,Instruct,User,3,"You will now be presented with a new study list. Click next when you are ready to begin.",,NEXT_LIST,4550,,,-1,-1,,,,,0
5c3a5009fb7feb00014290f1,1w9598vxkm,Ex2A_Prolific,1,59,2024-02-29T00:00:25+00:00,3.5922880172729,6,Stim_B.csv,Item.csv,Item,B,table,,T1,,,38,JOL,User,1.25,"How likely are you to correctly recall the second item in the pair?|Type your response on a scale from 0-100 and then press Enter.",Trash,T1,3381,,,1796,2593,,,,50,1
5c3a5009fb7feb00014290f1,1w9598vxkm,Ex2A_Prolific,1,60,2024-02-29T00:00:29+00:00,4.0562889575958,6,Stim_B.csv,Item.csv,Item,B,swivel,,T2,,,39,JOL,User,1.25,"How likely are you to correctly recall the second item in the pair?|Type your response on a scale from 0-100 and then press Enter.",Trash,T2,3856,,,2964,3021,,,,70,1
5c3a5009fb7feb00014290f1,1w9598vxkm,Ex2A_Prolific,1,61,2024-02-29T00:00:32+00:00,3.3077561855316,6,Stim_B.csv,Item.csv,Item,B,rocking,,T3,,,40,JOL,User,1.25,"How likely are you to correctly recall the second item in the pair?|Type your response on a scale from 0-100 and then press Enter.",Trash,T3,3111,,,2227,2279,,,,60,1
5c3a5009fb7feb00014290f1,1w9598vxkm,Ex2A_Prolific,1,62,2024-02-29T00:00:35+00:00,3.4348499774933,6,Stim_B.csv,Item.csv,Item,B,recliner,,T4,,,41,JOL,User,1.25,"How likely are you to correctly recall the second item in the pair?|Type your response on a scale from 0-100 and then press Enter.",Trash,T4,3216,,,2430,2470,,,,50,1
5c3a5009fb7feb00014290f1,1w9598vxkm,Ex2A_Prolific,1,63,2024-02-29T00:00:38+00:00,2.9640748500824,6,Stim_B.csv,Item.csv,Item,B,seat,,T5,,,42,JOL,User,1.25,"How likely are you to correctly recall the second item in the pair?|Type your response on a scale from 0-100 and then press Enter.",Trash,T5,2760,,,1933,1972,,,,40,1
5c3a5009fb7feb00014290f1,1w9598vxkm,Ex2A_Prolific,1,64,2024-02-29T00:00:40+00:00,1.9600269794464,6,Stim_B.csv,Item.csv,Item,B,stool,,T6,,,43,JOL,User,1.25,"How likely are you to correctly recall the second item in the pair?|Type your response on a scale from 0-100 and then press Enter.",Trash,T6,1732,,,699,812,,,,40,1
5c3a5009fb7feb00014290f1,1w9598vxkm,Ex2A_Prolific,1,65,2024-02-29T00:00:42+00:00,1.911689043045,6,Stim_B.csv,Item.csv,Item,B,desk,,T7,,,44,JOL,User,1.25,"How likely are you to correctly recall the second item in the pair?|Type your response on a scale from 0-100 and then press Enter.",Trash,T7,1694,,,873,934,,,,40,1
5c3a5009fb7feb00014290f1,1w9598vxkm,Ex2A_Prolific,1,66,2024-02-29T00:00:45+00:00,2.6720850467682,6,Stim_B.csv,Item.csv,Item,B,couch,,T8,,,45,JOL,User,1.25,"How likely are you to correctly recall the second item in the pair?|Type your response on a scale from 0-100 and then press Enter.",Trash,T8,2454,,,1263,1355,,,,40,1
5c3a5009fb7feb00014290f1,1w9598vxkm,Ex2A_Prolific,1,67,2024-02-29T00:00:49+00:00,3.9562740325928,6,Stim_B.csv,Item.csv,Item,B,sit,,T9,,,46,JOL,User,1.25,"How likely are you to correctly recall the second item in the pair?|Type your response on a scale from 0-100 and then press Enter.",Trash,T9,3774,,,2962,3005,,,,60,1
5c3a5009fb7feb00014290f1,1w9598vxkm,Ex2A_Prolific,1,68,2024-02-29T00:00:51+00:00,2.6199970245361,6,Stim_B.csv,Item.csv,Item,B,sofa,,T10,,,47,JOL,User,1.25,"How likely are you to correctly recall the second item in the pair?|Type your response on a scale from 0-100 and then press Enter.",Trash,T10,2390,,,1666,1706,,,,60,1
5c3a5009fb7feb00014290f1,1w9598vxkm,Ex2A_Prolific,1,69,2024-02-29T00:00:54+00:00,2.4285409450531,6,Stim_B.csv,Item.csv,Item,B,bench,,T11,,,48,JOL,User,1.25,"How likely are you to correctly recall the second item in the pair?|Type your response on a scale from 0-100 and then press Enter.",Trash,T11,2227,,,1464,1511,,,,50,1
5c3a5009fb7feb00014290f1,1w9598vxkm,Ex2A_Prolific,1,70,2024-02-29T00:00:58+00:00,3.9074358940125,6,Stim_B.csv,Item.csv,Item,B,sitting,,T12,,,49,JOL,User,1.25,"How likely are you to correctly recall the second item in the pair?|Type your response on a scale from 0-100 and then press Enter.",Trash,T12,3682,,,910,2893,,,,100,1
5c3a5009fb7feb00014290f1,1w9598vxkm,Ex2A_Prolific,1,71,2024-02-29T00:01:00+00:00,1.7397730350494,6,Stim_B.csv,Item.csv,Item,B,,,,,,0,Instruct,User,-,"You have completed this section. Please click next.",,Instruct166,1523,,,-1,-1,,,,,1
5c3a5009fb7feb00014290f1,1w9598vxkm,Ex2A_Prolific,1,72,2024-02-29T00:01:30+00:00,30.289292097092,6,Stim_B.csv,Item.csv,Item,B,,,,,,0,FreeRecall,30,30,"Please type as many words as you can that begin with the letter ""K"". The computer will automatically advance to the next screen in 30 seconds.",,FILLER,30010,"Kin Kind Kansas Kevlar Kitten Kitsch Kick Kerfuffle Kittywhompus Kinfolk Knock Kneel Kni",0,1377,29858,0,0,,,1
5c3a5009fb7feb00014290f1,1w9598vxkm,Ex2A_Prolific,1,73,2024-02-29T00:01:31+00:00,1.4752678871155,6,Stim_B.csv,Item.csv,Item,B,,,,,,0,Instruct,User,-,"You have completed this section. Please click next.",,Instruct166,1294,,,-1,-1,,,,,1
5c3a5009fb7feb00014290f1,1w9598vxkm,Ex2A_Prolific,1,74,2024-02-29T00:01:36+00:00,4.9222531318665,6,Stim_B.csv,Item.csv,Item,B,,,,,,0,Instruct,User,4,"You will now complete a memory test for the words you just studied. Please type as many words from the previous list as you can seperated by a comma. Spelling will not count against you and you can recall the words in any order. This test will be timed for one minute, and the computer will automatically advance once time is up. Click next when you are ready to begin.",,Instruct1666,4697,,,-1,-1,,,,,0.958
5c3a5009fb7feb00014290f1,1w9598vxkm,Ex2A_Prolific,1,75,2024-02-29T00:02:37+00:00,60.294805049896,6,Stim_B.csv,Item.csv,Item,B,,,,,,0,FreeRecall,60,60,"Please type as many words as you can from the previous study list in any order. Please separate each word with a comma. Spelling will not count against you. This screen will automatically advance in one minute.",,RECALL_Test,60004,"Sit, Sitting, Couch, Sofa, Bench, Swivel, Recliner, Desk, Stool, Table",0,732,56760,0,0,,,0.976
5c3a5009fb7feb00014290f1,1w9598vxkm,Ex2A_Prolific,1,76,2024-02-29T00:02:41+00:00,4.0583050251007,6,Stim_B.csv,Item.csv,Item,B,,,,,,0,Instruct,User,3,"You will now be presented with a new study list. Click next when you are ready to begin.",,NEXT_LIST,3829,,,-1,-1,,,,,1
5c3a5009fb7feb00014290f1,1w9598vxkm,Ex2A_Prolific,1,77,2024-02-29T00:02:44+00:00,3.7797498703003,6,Stim_B.csv,Item.csv,Item,B,climber,,D1,,,50,JOL,User,1.25,"How likely are you to correctly recall the second item in the pair?|Type your response on a scale from 0-100 and then press Enter.",Doctor,D1,3563,,,2341,2509,,,,100,1
5c3a5009fb7feb00014290f1,1w9598vxkm,Ex2A_Prolific,1,78,2024-02-29T00:02:47+00:00,2.4321410655975,6,Stim_B.csv,Item.csv,Item,B,hill,,D2,,,51,JOL,User,1.25,"How likely are you to correctly recall the second item in the pair?|Type your response on a scale from 0-100 and then press Enter.",Doctor,D2,2212,,,1444,1473,,,,50,1
5c3a5009fb7feb00014290f1,1w9598vxkm,Ex2A_Prolific,1,79,2024-02-29T00:02:49+00:00,2.4240779876709,6,Stim_B.csv,Item.csv,Item,B,climb,,D3,,,52,JOL,User,1.25,"How likely are you to correctly recall the second item in the pair?|Type your response on a scale from 0-100 and then press Enter.",Doctor,D3,2168,,,1272,1489,,,,100,1
5c3a5009fb7feb00014290f1,1w9598vxkm,Ex2A_Prolific,1,80,2024-02-29T00:02:52+00:00,2.4959590435028,6,Stim_B.csv,Item.csv,Item,B,molehill,,D4,,,53,JOL,User,1.25,"How likely are you to correctly recall the second item in the pair?|Type your response on a scale from 0-100 and then press Enter.",Doctor,D4,2270,,,1399,1579,,,,100,1
5c3a5009fb7feb00014290f1,1w9598vxkm,Ex2A_Prolific,1,81,2024-02-29T00:02:54+00:00,2.2710130214691,6,Stim_B.csv,Item.csv,Item,B,peak,,D5,,,54,JOL,User,1.25,"How likely are you to correctly recall the second item in the pair?|Type your response on a scale from 0-100 and then press Enter.",Doctor,D5,2056,,,1307,1331,,,,50,1
5c3a5009fb7feb00014290f1,1w9598vxkm,Ex2A_Prolific,1,82,2024-02-29T00:02:56+00:00,2.3794679641724,6,Stim_B.csv,Item.csv,Item,B,valley,,D6,,,55,JOL,User,1.25,"How likely are you to correctly recall the second item in the pair?|Type your response on a scale from 0-100 and then press Enter.",Doctor,D6,2147,,,1420,1475,,,,50,1
5c3a5009fb7feb00014290f1,1w9598vxkm,Ex2A_Prolific,1,83,2024-02-29T00:03:00+00:00,3.5683028697968,6,Stim_B.csv,Item.csv,Item,B,summit,,D7,,,56,JOL,User,1.25,"How likely are you to correctly recall the second item in the pair?|Type your response on a scale from 0-100 and then press Enter.",Doctor,D7,3318,,,2384,2420,,,,60,1
5c3a5009fb7feb00014290f1,1w9598vxkm,Ex2A_Prolific,1,84,2024-02-29T00:03:03+00:00,2.9116280078888,6,Stim_B.csv,Item.csv,Item,B,steep,,D8,,,57,JOL,User,1.25,"How likely are you to correctly recall the second item in the pair?|Type your response on a scale from 0-100 and then press Enter.",Doctor,D8,2683,,,1339,1942,,,,40,1
5c3a5009fb7feb00014290f1,1w9598vxkm,Ex2A_Prolific,1,85,2024-02-29T00:03:05+00:00,2.3919880390167,6,Stim_B.csv,Item.csv,Item,B,ski,,D9,,,58,JOL,User,1.25,"How likely are you to correctly recall the second item in the pair?|Type your response on a scale from 0-100 and then press Enter.",Doctor,D9,2172,,,1348,1377,,,,50,1
5c3a5009fb7feb00014290f1,1w9598vxkm,Ex2A_Prolific,1,86,2024-02-29T00:03:08+00:00,3.0157830715179,6,Stim_B.csv,Item.csv,Item,B,bike,,D10,,,59,JOL,User,1.25,"How likely are you to correctly recall the second item in the pair?|Type your response on a scale from 0-100 and then press Enter.",Doctor,D10,2768,,,1682,1686,,,,20,1
5c3a5009fb7feb00014290f1,1w9598vxkm,Ex2A_Prolific,1,87,2024-02-29T00:03:11+00:00,3.0164048671722,6,Stim_B.csv,Item.csv,Item,B,goat,,D11,,,60,JOL,User,1.25,"How likely are you to correctly recall the second item in the pair?|Type your response on a scale from 0-100 and then press Enter.",Doctor,D11,2767,,,727,2018,,,,100,1
5c3a5009fb7feb00014290f1,1w9598vxkm,Ex2A_Prolific,1,88,2024-02-29T00:03:14+00:00,2.9884760379791,6,Stim_B.csv,Item.csv,Item,B,glacier,,D12,,,61,JOL,User,1.25,"How likely are you to correctly recall the second item in the pair?|Type your response on a scale from 0-100 and then press Enter.",Doctor,D12,2811,,,1590,1617,,,,20,1
5c3a5009fb7feb00014290f1,1w9598vxkm,Ex2A_Prolific,1,89,2024-02-29T00:03:15+00:00,1.211571931839,6,Stim_B.csv,Item.csv,Item,B,,,,,,0,Instruct,User,-,"You have completed this section. Please click next.",,Instruct166,1020,,,-1,-1,,,,,1
5c3a5009fb7feb00014290f1,1w9598vxkm,Ex2A_Prolific,1,90,2024-02-29T00:03:46+00:00,30.2925760746,6,Stim_B.csv,Item.csv,Item,B,,,,,,0,FreeRecall,30,30,"Please type as many words as you can that begin with the letter ""N"". The computer will automatically advance to the next screen in 30 seconds.",,FILLER,30006,"Not Now Near Negative Netherworld Neanderthal Norseman Nightingale Nightmare Nere-do-well N",0,1079,28969,0,0,,,1
5c3a5009fb7feb00014290f1,1w9598vxkm,Ex2A_Prolific,1,91,2024-02-29T00:03:51+00:00,4.9591979980469,6,Stim_B.csv,Item.csv,Item,B,,,,,,0,Instruct,User,4,"You have completed this section. Please click next.",,Instruct166,4750,,,-1,-1,,,,,1
5c3a5009fb7feb00014290f1,1w9598vxkm,Ex2A_Prolific,1,92,2024-02-29T00:03:57+00:00,6.5282771587372,6,Stim_B.csv,Item.csv,Item,B,,,,,,0,Instruct,User,4,"You will now complete a memory test for the words you just studied. Please type as many words from the previous list as you can seperated by a comma. Spelling will not count against you and you can recall the words in any order. This test will be timed for one minute, and the computer will automatically advance once time is up. Click next when you are ready to begin.",,Instruct1666,6263,,,-1,-1,,,,,1
5c3a5009fb7feb00014290f1,1w9598vxkm,Ex2A_Prolific,1,93,2024-02-29T00:04:58+00:00,60.272632837296,6,Stim_B.csv,Item.csv,Item,B,,,,,,0,FreeRecall,60,60,"Please type as many words as you can from the previous study list in any order. Please separate each word with a comma. Spelling will not count against you. This screen will automatically advance in one minute.",,RECALL_Test,60011,"Peak, Valley, Summit, Glacier, Hill, Molehill, Climb, Climber, Steep",0,848,32205,0,0,,,0.997
5c3a5009fb7feb00014290f1,1w9598vxkm,Ex2A_Prolific,1,94,2024-02-29T00:05:02+00:00,4.0135531425476,6,Stim_B.csv,Item.csv,Item,B,,,,,,0,Instruct,User,3,"You will now be presented with a new study list. Click next when you are ready to begin.",,NEXT_LIST,3776,,,-1,-1,,,,,1
5c3a5009fb7feb00014290f1,1w9598vxkm,Ex2A_Prolific,1,95,2024-02-29T00:05:04+00:00,2.8382058143616,6,Stim_B.csv,Item.csv,Item,B,band,,S1,,,62,JOL,User,1.25,"How likely are you to correctly recall the second item in the pair?|Type your response on a scale from 0-100 and then press Enter.",Slow,S1,2428,,,1596,1611,,,,50,1
5c3a5009fb7feb00014290f1,1w9598vxkm,Ex2A_Prolific,1,96,2024-02-29T00:05:07+00:00,2.4242360591888,6,Stim_B.csv,Item.csv,Item,B,concert,,S2,,,63,JOL,User,1.25,"How likely are you to correctly recall the second item in the pair?|Type your response on a scale from 0-100 and then press Enter.",Slow,S2,2224,,,1505,1525,,,,60,1
5c3a5009fb7feb00014290f1,1w9598vxkm,Ex2A_Prolific,1,97,2024-02-29T00:05:09+00:00,2.1373000144958,6,Stim_B.csv,Item.csv,Item,B,jazz,,S3,,,64,JOL,User,1.25,"How likely are you to correctly recall the second item in the pair?|Type your response on a scale from 0-100 and then press Enter.",Slow,S3,1901,,,1055,1256,,,,100,1
5c3a5009fb7feb00014290f1,1w9598vxkm,Ex2A_Prolific,1,98,2024-02-29T00:05:11+00:00,1.9710319042206,6,Stim_B.csv,Item.csv,Item,B,symphony,,S4,,,65,JOL,User,1.25,"How likely are you to correctly recall the second item in the pair?|Type your response on a scale from 0-100 and then press Enter.",Slow,S4,1739,,,875,1062,,,,100,1
5c3a5009fb7feb00014290f1,1w9598vxkm,Ex2A_Prolific,1,99,2024-02-29T00:05:13+00:00,1.9562931060791,6,Stim_B.csv,Item.csv,Item,B,orchestra,,S5,,,66,JOL,User,1.25,"How likely are you to correctly recall the second item in the pair?|Type your response on a scale from 0-100 and then press Enter.",Slow,S5,1734,,,800,1001,,,,100,1
5c3a5009fb7feb00014290f1,1w9598vxkm,Ex2A_Prolific,1,100,2024-02-29T00:05:15+00:00,2.2912828922272,6,Stim_B.csv,Item.csv,Item,B,rhythm,,S6,,,67,JOL,User,1.25,"How likely are you to correctly recall the second item in the pair?|Type your response on a scale from 0-100 and then press Enter.",Slow,S6,2074,,,1206,1271,,,,50,1
5c3a5009fb7feb00014290f1,1w9598vxkm,Ex2A_Prolific,1,101,2024-02-29T00:05:17+00:00,2.2441191673279,6,Stim_B.csv,Item.csv,Item,B,radio,,S7,,,68,JOL,User,1.25,"How likely are you to correctly recall the second item in the pair?|Type your response on a scale from 0-100 and then press Enter.",Slow,S7,2031,,,1263,1298,,,,30,1
5c3a5009fb7feb00014290f1,1w9598vxkm,Ex2A_Prolific,1,102,2024-02-29T00:05:20+00:00,2.1516618728638,6,Stim_B.csv,Item.csv,Item,B,melody,,S8,,,69,JOL,User,1.25,"How likely are you to correctly recall the second item in the pair?|Type your response on a scale from 0-100 and then press Enter.",Slow,S8,1959,,,1180,1233,,,,30,1
5c3a5009fb7feb00014290f1,1w9598vxkm,Ex2A_Prolific,1,103,2024-02-29T00:05:22+00:00,2.8241419792175,6,Stim_B.csv,Item.csv,Item,B,piano,,S9,,,70,JOL,User,1.25,"How likely are you to correctly recall the second item in the pair?|Type your response on a scale from 0-100 and then press Enter.",Slow,S9,2630,,,1645,1857,,,,100,1
5c3a5009fb7feb00014290f1,1w9598vxkm,Ex2A_Prolific,1,104,2024-02-29T00:05:25+00:00,3.0004270076752,6,Stim_B.csv,Item.csv,Item,B,sound,,S10,,,71,JOL,User,1.25,"How likely are you to correctly recall the second item in the pair?|Type your response on a scale from 0-100 and then press Enter.",Slow,S10,2799,,,1317,1362,,,,50,1
5c3a5009fb7feb00014290f1,1w9598vxkm,Ex2A_Prolific,1,105,2024-02-29T00:05:28+00:00,2.2841811180115,6,Stim_B.csv,Item.csv,Item,B,instrument,,S11,,,72,JOL,User,1.25,"How likely are you to correctly recall the second item in the pair?|Type your response on a scale from 0-100 and then press Enter.",Slow,S11,2081,,,1182,1278,,,,50,1
5c3a5009fb7feb00014290f1,1w9598vxkm,Ex2A_Prolific,1,106,2024-02-29T00:05:30+00:00,2.1280748844147,6,Stim_B.csv,Item.csv,Item,B,note,,S12,,,73,JOL,User,1.25,"How likely are you to correctly recall the second item in the pair?|Type your response on a scale from 0-100 and then press Enter.",Slow,S12,1941,,,1415,1465,,,,30,1
5c3a5009fb7feb00014290f1,1w9598vxkm,Ex2A_Prolific,1,107,2024-02-29T00:05:31+00:00,1.2085511684418,6,Stim_B.csv,Item.csv,Item,B,,,,,,0,Instruct,User,-,"You have completed this section. Please click next.",,Instruct166,996,,,-1,-1,,,,,1
5c3a5009fb7feb00014290f1,1w9598vxkm,Ex2A_Prolific,1,108,2024-02-29T00:06:01+00:00,30.292955875397,6,Stim_B.csv,Item.csv,Item,B,,,,,,0,FreeRecall,30,30,"Please type as many words as you can that begin with the letter ""W"". The computer will automatically advance to the next screen in 30 seconds.",,FILLER,30003,"Win Wand Woodwind Willow Wanderlust Withholding Witchcraft Whiten Willpower Wingman",0,956,29798,0,0,,,1
5c3a5009fb7feb00014290f1,1w9598vxkm,Ex2A_Prolific,1,109,2024-02-29T00:06:03+00:00,1.6780750751495,6,Stim_B.csv,Item.csv,Item,B,,,,,,0,Instruct,User,-,"You have completed this section. Please click next.",,Instruct166,1478,,,-1,-1,,,,,1
5c3a5009fb7feb00014290f1,1w9598vxkm,Ex2A_Prolific,1,110,2024-02-29T00:06:08+00:00,5.1641099452972,6,Stim_B.csv,Item.csv,Item,B,,,,,,0,Instruct,User,4,"You will now complete a memory test for the words you just studied. Please type as many words from the previous list as you can seperated by a comma. Spelling will not count against you and you can recall the words in any order. This test will be timed for one minute, and the computer will automatically advance once time is up. Click next when you are ready to begin.",,Instruct1666,4887,,,-1,-1,,,,,1
5c3a5009fb7feb00014290f1,1w9598vxkm,Ex2A_Prolific,1,111,2024-02-29T00:07:08+00:00,60.277527093887,6,Stim_B.csv,Item.csv,Item,B,,,,,,0,FreeRecall,60,60,"Please type as many words as you can from the previous study list in any order. Please separate each word with a comma. Spelling will not count against you. This screen will automatically advance in one minute.",,RECALL_Test,60011,"Jazz, Note, Concert, Instrument, Symphony, Piano, Band, Sound, Orchestra",0,727,53405,0,0,,,0.99
5c3a5009fb7feb00014290f1,1w9598vxkm,Ex2A_Prolific,1,112,2024-02-29T00:07:12+00:00,4.0369329452515,6,Stim_B.csv,Item.csv,Item,B,,,,,,0,Instruct,User,3,"You will now be presented with a new study list. Click next when you are ready to begin.",,NEXT_LIST,3818,,,-1,-1,,,,,1
5c3a5009fb7feb00014290f1,1w9598vxkm,Ex2A_Prolific,1,113,2024-02-29T00:07:15+00:00,2.3082649707794,6,Stim_B.csv,Item.csv,Item,B,foam,,RR1,,,74,JOL,User,1.25,"How likely are you to correctly recall the second item in the pair?|Type your response on a scale from 0-100 and then press Enter.",River,RR1,2091,,,1292,1331,,,,50,1
5c3a5009fb7feb00014290f1,1w9598vxkm,Ex2A_Prolific,1,114,2024-02-29T00:07:17+00:00,2.4998741149902,6,Stim_B.csv,Item.csv,Item,B,latex,,RR2,,,75,JOL,User,1.25,"How likely are you to correctly recall the second item in the pair?|Type your response on a scale from 0-100 and then press Enter.",River,RR2,2280,,,1313,1547,,,,100,1
5c3a5009fb7feb00014290f1,1w9598vxkm,Ex2A_Prolific,1,115,2024-02-29T00:07:20+00:00,2.3640840053558,6,Stim_B.csv,Item.csv,Item,B,galoshes,,RR3,,,76,JOL,User,1.25,"How likely are you to correctly recall the second item in the pair?|Type your response on a scale from 0-100 and then press Enter.",River,RR3,2150,,,1438,1649,,,,100,1
5c3a5009fb7feb00014290f1,1w9598vxkm,Ex2A_Prolific,1,116,2024-02-29T00:07:22+00:00,2.4669308662415,6,Stim_B.csv,Item.csv,Item,B,tire,,RR4,,,77,JOL,User,1.25,"How likely are you to correctly recall the second item in the pair?|Type your response on a scale from 0-100 and then press Enter.",River,RR4,2256,,,1408,1444,,,,10,1
5c3a5009fb7feb00014290f1,1w9598vxkm,Ex2A_Prolific,1,117,2024-02-29T00:07:26+00:00,3.4794309139252,6,Stim_B.csv,Item.csv,Item,B,flexible,,RR5,,,78,JOL,User,1.25,"How likely are you to correctly recall the second item in the pair?|Type your response on a scale from 0-100 and then press Enter.",River,RR5,3234,,,2495,2538,,,,50,1
5c3a5009fb7feb00014290f1,1w9598vxkm,Ex2A_Prolific,1,118,2024-02-29T00:07:29+00:00,3.0522770881653,6,Stim_B.csv,Item.csv,Item,B,elastic,,RR6,,,79,JOL,User,1.25,"How likely are you to correctly recall the second item in the pair?|Type your response on a scale from 0-100 and then press Enter.",River,RR6,2823,,,2120,2154,,,,40,1
5c3a5009fb7feb00014290f1,1w9598vxkm,Ex2A_Prolific,1,119,2024-02-29T00:07:37+00:00,8.2189059257507,6,Stim_B.csv,Item.csv,Item,B,gloves,,RR7,,,80,JOL,User,1.25,"How likely are you to correctly recall the second item in the pair?|Type your response on a scale from 0-100 and then press Enter.",River,RR7,7960,,,935,1940,,,,100,1
5c3a5009fb7feb00014290f1,1w9598vxkm,Ex2A_Prolific,1,120,2024-02-29T00:07:41+00:00,3.7799520492554,6,Stim_B.csv,Item.csv,Item,B,eraser,,RR8,,,81,JOL,User,1.25,"How likely are you to correctly recall the second item in the pair?|Type your response on a scale from 0-100 and then press Enter.",River,RR8,3562,,,1683,2741,,,,40,1
5c3a5009fb7feb00014290f1,1w9598vxkm,Ex2A_Prolific,1,121,2024-02-29T00:07:45+00:00,4.5681779384613,6,Stim_B.csv,Item.csv,Item,B,bounce,,RR9,,,82,JOL,User,1.25,"How likely are you to correctly recall the second item in the pair?|Type your response on a scale from 0-100 and then press Enter.",River,RR9,4372,,,1074,3708,,,,60,1
5c3a5009fb7feb00014290f1,1w9598vxkm,Ex2A_Prolific,1,122,2024-02-29T00:07:48+00:00,2.3560180664062,6,Stim_B.csv,Item.csv,Item,B,ball,,RR10,,,83,JOL,User,1.25,"How likely are you to correctly recall the second item in the pair?|Type your response on a scale from 0-100 and then press Enter.",River,RR10,2128,,,1377,1396,,,,20,1
5c3a5009fb7feb00014290f1,1w9598vxkm,Ex2A_Prolific,1,123,2024-02-29T00:07:49+00:00,1.947438955307,6,Stim_B.csv,Item.csv,Item,B,soles,,RR11,,,84,JOL,User,1.25,"How likely are you to correctly recall the second item in the pair?|Type your response on a scale from 0-100 and then press Enter.",River,RR11,1734,,,448,888,,,,20,1
5c3a5009fb7feb00014290f1,1w9598vxkm,Ex2A_Prolific,1,124,2024-02-29T00:07:52+00:00,2.0209970474243,6,Stim_B.csv,Item.csv,Item,B,springy,,RR12,,,85,JOL,User,1.25,"How likely are you to correctly recall the second item in the pair?|Type your response on a scale from 0-100 and then press Enter.",River,RR12,1780,,,941,1025,,,,20,1
5c3a5009fb7feb00014290f1,1w9598vxkm,Ex2A_Prolific,1,125,2024-02-29T00:07:57+00:00,5.099417924881,6,Stim_B.csv,Item.csv,Item,B,,,,,,0,Instruct,User,4,"You have completed this section. Please click next.",,Instruct166,4871,,,-1,-1,,,,,1
5c3a5009fb7feb00014290f1,1w9598vxkm,Ex2A_Prolific,1,126,2024-02-29T00:08:27+00:00,30.285617113113,6,Stim_B.csv,Item.csv,Item,B,,,,,,0,FreeRecall,30,30,"Please type as many words as you can that begin with the letter ""M"". The computer will automatically advance to the next screen in 30 seconds.",,FILLER,30002,"Murder Meltdown Mystery Mist Mysticism Meandering Melodious Mirthful Miserly ",0,3837,29252,0,0,,,0.993
5c3a5009fb7feb00014290f1,1w9598vxkm,Ex2A_Prolific,1,127,2024-02-29T00:08:32+00:00,5.1716010570526,6,Stim_B.csv,Item.csv,Item,B,,,,,,0,Instruct,User,4,"You have completed this section. Please click next.",,Instruct166,4913,,,-1,-1,,,,,0.96
5c3a5009fb7feb00014290f1,1w9598vxkm,Ex2A_Prolific,1,128,2024-02-29T00:08:37+00:00,4.9397969245911,6,Stim_B.csv,Item.csv,Item,B,,,,,,0,Instruct,User,4,"You will now complete a memory test for the words you just studied. Please type as many words from the previous list as you can seperated by a comma. Spelling will not count against you and you can recall the words in any order. This test will be timed for one minute, and the computer will automatically advance once time is up. Click next when you are ready to begin.",,Instruct1666,4701,,,-1,-1,,,,,1
5c3a5009fb7feb00014290f1,1w9598vxkm,Ex2A_Prolific,1,129,2024-02-29T00:09:37+00:00,60.271670103073,6,Stim_B.csv,Item.csv,Item,B,,,,,,0,FreeRecall,60,60,"Please type as many words as you can from the previous study list in any order. Please separate each word with a comma. Spelling will not count against you. This screen will automatically advance in one minute.",,RECALL_Test,60004,"Springy, Elastic, Latex, Gloves, Flexible, Galoshes, Soles, Foam, Bounce",0,590,42503,0,0,,,0.997
5c3a5009fb7feb00014290f1,1w9598vxkm,Ex2A_Prolific,1,130,2024-02-29T00:09:42+00:00,4.4477858543396,6,Stim_B.csv,Item.csv,Item,B,,,,,,0,Instruct,User,3,"You will now be presented with a new study list. Click next when you are ready to begin.",,NEXT_LIST,4235,,,-1,-1,,,,,1
5c3a5009fb7feb00014290f1,1w9598vxkm,Ex2A_Prolific,1,131,2024-02-29T00:09:45+00:00,3.147675037384,6,Stim_B.csv,Item.csv,Item,B,toe,,B1,,,86,JOL,User,1.25,"How likely are you to correctly recall the second item in the pair?|Type your response on a scale from 0-100 and then press Enter.",Bread,B1,2946,,,1687,2097,,,,100,1
5c3a5009fb7feb00014290f1,1w9598vxkm,Ex2A_Prolific,1,132,2024-02-29T00:09:47+00:00,2.1359949111938,6,Stim_B.csv,Item.csv,Item,B,inch,,B2,,,87,JOL,User,1.25,"How likely are you to correctly recall the second item in the pair?|Type your response on a scale from 0-100 and then press Enter.",Bread,B2,1911,,,1410,1437,,,,40,1
5c3a5009fb7feb00014290f1,1w9598vxkm,Ex2A_Prolific,1,133,2024-02-29T00:09:49+00:00,1.9283871650696,6,Stim_B.csv,Item.csv,Item,B,ankle,,B3,,,88,JOL,User,1.25,"How likely are you to correctly recall the second item in the pair?|Type your response on a scale from 0-100 and then press Enter.",Bread,B3,1741,,,1062,1251,,,,100,1
5c3a5009fb7feb00014290f1,1w9598vxkm,Ex2A_Prolific,1,134,2024-02-29T00:09:51+00:00,2.2325739860535,6,Stim_B.csv,Item.csv,Item,B,shoe,,B4,,,89,JOL,User,1.25,"How likely are you to correctly recall the second item in the pair?|Type your response on a scale from 0-100 and then press Enter.",Bread,B4,2022,,,1214,1256,,,,50,1
5c3a5009fb7feb00014290f1,1w9598vxkm,Ex2A_Prolific,1,135,2024-02-29T00:09:54+00:00,2.751522064209,6,Stim_B.csv,Item.csv,Item,B,sandals,,B5,,,90,JOL,User,1.25,"How likely are you to correctly recall the second item in the pair?|Type your response on a scale from 0-100 and then press Enter.",Bread,B5,2539,,,893,1884,,,,30,1
5c3a5009fb7feb00014290f1,1w9598vxkm,Ex2A_Prolific,1,136,2024-02-29T00:09:58+00:00,4.2763848304749,6,Stim_B.csv,Item.csv,Item,B,sock,,B6,,,91,JOL,User,1.25,"How likely are you to correctly recall the second item in the pair?|Type your response on a scale from 0-100 and then press Enter.",Bread,B6,4027,,,1125,1183,,,,30,1
5c3a5009fb7feb00014290f1,1w9598vxkm,Ex2A_Prolific,1,137,2024-02-29T00:10:02+00:00,3.703467130661,6,Stim_B.csv,Item.csv,Item,B,hand,,B7,,,92,JOL,User,1.25,"How likely are you to correctly recall the second item in the pair?|Type your response on a scale from 0-100 and then press Enter.",Bread,B7,3476,,,848,974,,,,30,1
5c3a5009fb7feb00014290f1,1w9598vxkm,Ex2A_Prolific,1,138,2024-02-29T00:10:04+00:00,2.069540977478,6,Stim_B.csv,Item.csv,Item,B,boot,,B8,,,93,JOL,User,1.25,"How likely are you to correctly recall the second item in the pair?|Type your response on a scale from 0-100 and then press Enter.",Bread,B8,1838,,,1020,1063,,,,20,1
5c3a5009fb7feb00014290f1,1w9598vxkm,Ex2A_Prolific,1,139,2024-02-29T00:10:07+00:00,2.6608150005341,6,Stim_B.csv,Item.csv,Item,B,yard,,B9,,,94,JOL,User,1.25,"How likely are you to correctly recall the second item in the pair?|Type your response on a scale from 0-100 and then press Enter.",Bread,B9,2437,,,1431,1515,,,,20,1
5c3a5009fb7feb00014290f1,1w9598vxkm,Ex2A_Prolific,1,140,2024-02-29T00:10:09+00:00,2.0473680496216,6,Stim_B.csv,Item.csv,Item,B,kick,,B10,,,95,JOL,User,1.25,"How likely are you to correctly recall the second item in the pair?|Type your response on a scale from 0-100 and then press Enter.",Bread,B10,1848,,,989,1071,,,,20,1
5c3a5009fb7feb00014290f1,1w9598vxkm,Ex2A_Prolific,1,141,2024-02-29T00:10:11+00:00,2.0357580184937,6,Stim_B.csv,Item.csv,Item,B,knee,,B11,,,96,JOL,User,1.25,"How likely are you to correctly recall the second item in the pair?|Type your response on a scale from 0-100 and then press Enter.",Bread,B11,1817,,,892,945,,,,10,1
5c3a5009fb7feb00014290f1,1w9598vxkm,Ex2A_Prolific,1,142,2024-02-29T00:10:13+00:00,1.9485077857971,6,Stim_B.csv,Item.csv,Item,B,walk,,B12,,,97,JOL,User,1.25,"How likely are you to correctly recall the second item in the pair?|Type your response on a scale from 0-100 and then press Enter.",Bread,B12,1756,,,901,987,,,,20,1
5c3a5009fb7feb00014290f1,1w9598vxkm,Ex2A_Prolific,1,143,2024-02-29T00:10:18+00:00,5.0398690700531,6,Stim_B.csv,Item.csv,Item,B,,,,,,0,Instruct,User,4,"You have completed this section. Please click next.",,Instruct166,4822,,,-1,-1,,,,,1
5c3a5009fb7feb00014290f1,1w9598vxkm,Ex2A_Prolific,1,144,2024-02-29T00:10:48+00:00,30.275857925415,6,Stim_B.csv,Item.csv,Item,B,,,,,,0,FreeRecall,30,30,"Please type as many words as you can that begin with the letter ""R"". The computer will automatically advance to the next screen in 30 seconds.",,FILLER,30007,"Ruin Random Ruthless Regarding Remembrance Revenge Riveting River Rivulet Restless Ro",0,2162,29493,0,0,,,1
5c3a5009fb7feb00014290f1,1w9598vxkm,Ex2A_Prolific,1,145,2024-02-29T00:10:53+00:00,5.2598061561584,6,Stim_B.csv,Item.csv,Item,B,,,,,,0,Instruct,User,4,"You have completed this section. Please click next.",,Instruct166,5005,,,-1,-1,,,,,1
5c3a5009fb7feb00014290f1,1w9598vxkm,Ex2A_Prolific,1,146,2024-02-29T00:10:59+00:00,5.2778549194336,6,Stim_B.csv,Item.csv,Item,B,,,,,,0,Instruct,User,4,"You will now complete a memory test for the words you just studied. Please type as many words from the previous list as you can seperated by a comma. Spelling will not count against you and you can recall the words in any order. This test will be timed for one minute, and the computer will automatically advance once time is up. Click next when you are ready to begin.",,Instruct1666,4976,,,-1,-1,,,,,1
5c3a5009fb7feb00014290f1,1w9598vxkm,Ex2A_Prolific,1,147,2024-02-29T00:11:59+00:00,60.332092046738,6,Stim_B.csv,Item.csv,Item,B,,,,,,0,FreeRecall,60,60,"Please type as many words as you can from the previous study list in any order. Please separate each word with a comma. Spelling will not count against you. This screen will automatically advance in one minute.",,RECALL_Test,60012,"Toe, Ankle, Knee, Hand, Kick, Sock, Sandal, Walk",0,3107,22707,0,0,,,0.993
5c3a5009fb7feb00014290f1,1w9598vxkm,Ex2A_Prolific,1,148,2024-02-29T00:12:03+00:00,3.7902340888977,6,Stim_B.csv,Item.csv,Item,B,,,,,,0,Instruct,User,3,"You will now be presented with a new study list. Click next when you are ready to begin.",,NEXT_LIST,3548,,,-1,-1,,,,,1
5c3a5009fb7feb00014290f1,1w9598vxkm,Ex2A_Prolific,1,149,2024-02-29T00:12:05+00:00,2.6837718486786,6,Stim_B.csv,Item.csv,Item,B,boy,,F1,,,98,JOL,User,1.25,"How likely are you to correctly recall the second item in the pair?|Type your response on a scale from 0-100 and then press Enter.",Flag,F1,2452,,,1514,1544,,,,50,1
5c3a5009fb7feb00014290f1,1w9598vxkm,Ex2A_Prolific,1,150,2024-02-29T00:12:08+00:00,2.5158071517944,6,Stim_B.csv,Item.csv,Item,B,dolls,,F2,,,99,JOL,User,1.25,"How likely are you to correctly recall the second item in the pair?|Type your response on a scale from 0-100 and then press Enter.",Flag,F2,2297,,,1453,1479,,,,40,1
5c3a5009fb7feb00014290f1,1w9598vxkm,Ex2A_Prolific,1,151,2024-02-29T00:12:10+00:00,2.2201788425446,6,Stim_B.csv,Item.csv,Item,B,pretty,,F3,,,100,JOL,User,1.25,"How likely are you to correctly recall the second item in the pair?|Type your response on a scale from 0-100 and then press Enter.",Flag,F3,1995,,,1270,1297,,,,50,1
5c3a5009fb7feb00014290f1,1w9598vxkm,Ex2A_Prolific,1,152,2024-02-29T00:12:13+00:00,3.4241850376129,6,Stim_B.csv,Item.csv,Item,B,female,,F4,,,101,JOL,User,1.25,"How likely are you to correctly recall the second item in the pair?|Type your response on a scale from 0-100 and then press Enter.",Flag,F4,3198,,,2218,2485,,,,60,1
5c3a5009fb7feb00014290f1,1w9598vxkm,Ex2A_Prolific,1,153,2024-02-29T00:12:16+00:00,2.2481150627136,6,Stim_B.csv,Item.csv,Item,B,dress,,F5,,,102,JOL,User,1.25,"How likely are you to correctly recall the second item in the pair?|Type your response on a scale from 0-100 and then press Enter.",Flag,F5,2048,,,1258,1261,,,,50,1
5c3a5009fb7feb00014290f1,1w9598vxkm,Ex2A_Prolific,1,154,2024-02-29T00:12:18+00:00,2.1795449256897,6,Stim_B.csv,Item.csv,Item,B,date,,F6,,,103,JOL,User,1.25,"How likely are you to correctly recall the second item in the pair?|Type your response on a scale from 0-100 and then press Enter.",Flag,F6,1957,,,941,1060,,,,40,1
5c3a5009fb7feb00014290f1,1w9598vxkm,Ex2A_Prolific,1,155,2024-02-29T00:12:21+00:00,2.7843761444092,6,Stim_B.csv,Item.csv,Item,B,beautiful,,F7,,,104,JOL,User,1.25,"How likely are you to correctly recall the second item in the pair?|Type your response on a scale from 0-100 and then press Enter.",Flag,F7,2568,,,1784,1852,,,,70,1
5c3a5009fb7feb00014290f1,1w9598vxkm,Ex2A_Prolific,1,156,2024-02-29T00:12:23+00:00,2.6085779666901,6,Stim_B.csv,Item.csv,Item,B,daughter,,F8,,,105,JOL,User,1.25,"How likely are you to correctly recall the second item in the pair?|Type your response on a scale from 0-100 and then press Enter.",Flag,F8,2364,,,1208,1256,,,,50,1
5c3a5009fb7feb00014290f1,1w9598vxkm,Ex2A_Prolific,1,157,2024-02-29T00:12:25+00:00,1.9875569343567,6,Stim_B.csv,Item.csv,Item,B,sister,,F9,,,106,JOL,User,1.25,"How likely are you to correctly recall the second item in the pair?|Type your response on a scale from 0-100 and then press Enter.",Flag,F9,1742,,,890,944,,,,50,1
5c3a5009fb7feb00014290f1,1w9598vxkm,Ex2A_Prolific,1,158,2024-02-29T00:12:28+00:00,2.9484369754791,6,Stim_B.csv,Item.csv,Item,B,cute,,F10,,,107,JOL,User,1.25,"How likely are you to correctly recall the second item in the pair?|Type your response on a scale from 0-100 and then press Enter.",Flag,F10,2716,,,1102,1181,,,,40,1
5c3a5009fb7feb00014290f1,1w9598vxkm,Ex2A_Prolific,1,159,2024-02-29T00:12:30+00:00,2.0434041023254,6,Stim_B.csv,Item.csv,Item,B,niece,,F11,,,108,JOL,User,1.25,"How likely are you to correctly recall the second item in the pair?|Type your response on a scale from 0-100 and then press Enter.",Flag,F11,1781,,,856,919,,,,40,1
5c3a5009fb7feb00014290f1,1w9598vxkm,Ex2A_Prolific,1,160,2024-02-29T00:12:33+00:00,2.2681839466095,6,Stim_B.csv,Item.csv,Item,B,young,,F12,,,109,JOL,User,1.25,"How likely are you to correctly recall the second item in the pair?|Type your response on a scale from 0-100 and then press Enter.",Flag,F12,2013,,,1231,1261,,,,40,1
5c3a5009fb7feb00014290f1,1w9598vxkm,Ex2A_Prolific,1,161,2024-02-29T00:12:34+00:00,1.1594078540802,6,Stim_B.csv,Item.csv,Item,B,,,,,,0,Instruct,User,-,"You have completed this section. Please click next.",,Instruct166,917,,,-1,-1,,,,,1
5c3a5009fb7feb00014290f1,1w9598vxkm,Ex2A_Prolific,1,162,2024-02-29T00:13:04+00:00,30.322071075439,6,Stim_B.csv,Item.csv,Item,B,,,,,,0,FreeRecall,30,30,"Please type as many words as you can that begin with the letter ""M"". The computer will automatically advance to the next screen in 30 seconds.",,FILLER,30011,"Mastery Mythology Masculinity Misogyny Minotaur Murderess Melody Mellifluous Mercenary Miasma ",0,2907,29755,0,0,,,1
5c3a5009fb7feb00014290f1,1w9598vxkm,Ex2A_Prolific,1,163,2024-02-29T00:13:06+00:00,1.5358951091766,6,Stim_B.csv,Item.csv,Item,B,,,,,,0,Instruct,User,-,"You have completed this section. Please click next.",,Instruct166,1296,,,-1,-1,,,,,1
5c3a5009fb7feb00014290f1,1w9598vxkm,Ex2A_Prolific,1,164,2024-02-29T00:13:11+00:00,5.2764389514923,6,Stim_B.csv,Item.csv,Item,B,,,,,,0,Instruct,User,4,"You will now complete a memory test for the words you just studied. Please type as many words from the previous list as you can seperated by a comma. Spelling will not count against you and you can recall the words in any order. This test will be timed for one minute, and the computer will automatically advance once time is up. Click next when you are ready to begin.",,Instruct1666,4981,,,-1,-1,,,,,0.96
5c3a5009fb7feb00014290f1,1w9598vxkm,Ex2A_Prolific,1,165,2024-02-29T00:14:11+00:00,60.263836860657,6,Stim_B.csv,Item.csv,Item,B,,,,,,0,FreeRecall,60,60,"Please type as many words as you can from the previous study list in any order. Please separate each word with a comma. Spelling will not count against you. This screen will automatically advance in one minute.",,RECALL_Test,60002,"Young, Boy, Cute, Doll, Beautiful, Pretty, Dress, Date, Female, Daughter, Niece, Sister",0,2172,29018,0,0,,,0.997
5c3a5009fb7feb00014290f1,1w9598vxkm,Ex2A_Prolific,1,166,2024-02-29T00:14:15+00:00,3.8875269889832,6,Stim_B.csv,Item.csv,Item,B,,,,,,0,Instruct,User,3,"You will now be presented with a new study list. Click next when you are ready to begin.",,NEXT_LIST,3667,,,-1,-1,,,,,1
5c3a5009fb7feb00014290f1,1w9598vxkm,Ex2A_Prolific,1,167,2024-02-29T00:14:17+00:00,2.3536682128906,6,Stim_B.csv,Item.csv,Item,B,white,,SS1,,,110,JOL,User,1.25,"How likely are you to correctly recall the second item in the pair?|Type your response on a scale from 0-100 and then press Enter.",Shirt,SS1,2116,,,1372,1418,,,,50,1
5c3a5009fb7feb00014290f1,1w9598vxkm,Ex2A_Prolific,1,168,2024-02-29T00:14:19+00:00,2.1055948734283,6,Stim_B.csv,Item.csv,Item,B,gray,,SS2,,,111,JOL,User,1.25,"How likely are you to correctly recall the second item in the pair?|Type your response on a scale from 0-100 and then press Enter.",Shirt,SS2,1899,,,1070,1120,,,,50,1
5c3a5009fb7feb00014290f1,1w9598vxkm,Ex2A_Prolific,1,169,2024-02-29T00:14:21+00:00,1.9931330680847,6,Stim_B.csv,Item.csv,Item,B,brown,,SS3,,,112,JOL,User,1.25,"How likely are you to correctly recall the second item in the pair?|Type your response on a scale from 0-100 and then press Enter.",Shirt,SS3,1789,,,903,964,,,,50,1
5c3a5009fb7feb00014290f1,1w9598vxkm,Ex2A_Prolific,1,170,2024-02-29T00:14:24+00:00,2.1568849086761,6,Stim_B.csv,Item.csv,Item,B,coal,,SS4,,,113,JOL,User,1.25,"How likely are you to correctly recall the second item in the pair?|Type your response on a scale from 0-100 and then press Enter.",Shirt,SS4,1932,,,936,993,,,,40,1
5c3a5009fb7feb00014290f1,1w9598vxkm,Ex2A_Prolific,1,171,2024-02-29T00:14:29+00:00,4.9958679676056,6,Stim_B.csv,Item.csv,Item,B,dark,,SS5,,,114,JOL,User,1.25,"How likely are you to correctly recall the second item in the pair?|Type your response on a scale from 0-100 and then press Enter.",Shirt,SS5,4717,,,3371,3431,,,,30,1
5c3a5009fb7feb00014290f1,1w9598vxkm,Ex2A_Prolific,1,172,2024-02-29T00:14:32+00:00,3.3830881118774,6,Stim_B.csv,Item.csv,Item,B,color,,SS6,,,115,JOL,User,1.25,"How likely are you to correctly recall the second item in the pair?|Type your response on a scale from 0-100 and then press Enter.",Shirt,SS6,3167,,,920,2100,,,,100,1
5c3a5009fb7feb00014290f1,1w9598vxkm,Ex2A_Prolific,1,173,2024-02-29T00:14:34+00:00,2.3995590209961,6,Stim_B.csv,Item.csv,Item,B,funeral,,SS7,,,116,JOL,User,1.25,"How likely are you to correctly recall the second item in the pair?|Type your response on a scale from 0-100 and then press Enter.",Shirt,SS7,2149,,,1242,1423,,,,100,1
5c3a5009fb7feb00014290f1,1w9598vxkm,Ex2A_Prolific,1,174,2024-02-29T00:14:37+00:00,2.3125059604645,6,Stim_B.csv,Item.csv,Item,B,blue,,SS8,,,117,JOL,User,1.25,"How likely are you to correctly recall the second item in the pair?|Type your response on a scale from 0-100 and then press Enter.",Shirt,SS8,2016,,,1175,1215,,,,40,1
5c3a5009fb7feb00014290f1,1w9598vxkm,Ex2A_Prolific,1,175,2024-02-29T00:14:40+00:00,2.8399169445038,6,Stim_B.csv,Item.csv,Item,B,charred,,SS9,,,118,JOL,User,1.25,"How likely are you to correctly recall the second item in the pair?|Type your response on a scale from 0-100 and then press Enter.",Shirt,SS9,2605,,,1149,1204,,,,40,1
5c3a5009fb7feb00014290f1,1w9598vxkm,Ex2A_Prolific,1,176,2024-02-29T00:14:42+00:00,2.5319540500641,6,Stim_B.csv,Item.csv,Item,B,ink,,SS10,,,119,JOL,User,1.25,"How likely are you to correctly recall the second item in the pair?|Type your response on a scale from 0-100 and then press Enter.",Shirt,SS10,2317,,,1234,1303,,,,40,1
5c3a5009fb7feb00014290f1,1w9598vxkm,Ex2A_Prolific,1,177,2024-02-29T00:14:44+00:00,2.2878270149231,6,Stim_B.csv,Item.csv,Item,B,death,,SS11,,,120,JOL,User,1.25,"How likely are you to correctly recall the second item in the pair?|Type your response on a scale from 0-100 and then press Enter.",Shirt,SS11,2098,,,1201,1258,,,,30,1
5c3a5009fb7feb00014290f1,1w9598vxkm,Ex2A_Prolific,1,178,2024-02-29T00:14:47+00:00,2.3283350467682,6,Stim_B.csv,Item.csv,Item,B,cat,,SS12,,,121,JOL,User,1.25,"How likely are you to correctly recall the second item in the pair?|Type your response on a scale from 0-100 and then press Enter.",Shirt,SS12,2123,,,1376,1402,,,,20,1
5c3a5009fb7feb00014290f1,1w9598vxkm,Ex2A_Prolific,1,179,2024-02-29T00:14:52+00:00,4.8314850330353,6,Stim_B.csv,Item.csv,Item,B,,,,,,0,Instruct,User,4,"You have completed this section. Please click next.",,Instruct166,4599,,,-1,-1,,,,,1
5c3a5009fb7feb00014290f1,1w9598vxkm,Ex2A_Prolific,1,180,2024-02-29T00:15:22+00:00,30.28472495079,6,Stim_B.csv,Item.csv,Item,B,,,,,,0,FreeRecall,30,30,"Please type as many words as you can that begin with the letter ""T"". The computer will automatically advance to the next screen in 30 seconds.",,FILLER,30013,"Timeliness Testosterone Turpentine Tumescence Tyranny Telomeres Tangential Tangerine Topical Teleportation Tent",0,1285,29948,0,0,,,1
5c3a5009fb7feb00014290f1,1w9598vxkm,Ex2A_Prolific,1,181,2024-02-29T00:15:27+00:00,4.9913370609283,6,Stim_B.csv,Item.csv,Item,B,,,,,,0,Instruct,User,4,"You have completed this section. Please click next.",,Instruct166,4781,,,-1,-1,,,,,1
5c3a5009fb7feb00014290f1,1w9598vxkm,Ex2A_Prolific,1,182,2024-02-29T00:15:32+00:00,4.9006989002228,6,Stim_B.csv,Item.csv,Item,B,,,,,,0,Instruct,User,4,"You will now complete a memory test for the words you just studied. Please type as many words from the previous list as you can seperated by a comma. Spelling will not count against you and you can recall the words in any order. This test will be timed for one minute, and the computer will automatically advance once time is up. Click next when you are ready to begin.",,Instruct1666,4653,,,-1,-1,,,,,1
5c3a5009fb7feb00014290f1,1w9598vxkm,Ex2A_Prolific,1,183,2024-02-29T00:16:32+00:00,60.314373016357,6,Stim_B.csv,Item.csv,Item,B,,,,,,0,FreeRecall,60,60,"Please type as many words as you can from the previous study list in any order. Please separate each word with a comma. Spelling will not count against you. This screen will automatically advance in one minute.",,RECALL_Test,60002,"Cat, Death, Funeral, Charred, Coal, Dark, Color, White, Gray, Blue, Brown",0,752,19745,0,0,,,1
5c3a5009fb7feb00014290f1,1w9598vxkm,Ex2A_Prolific,1,184,2024-02-29T00:16:34+00:00,2.294725894928,6,Stim_B.csv,Item.csv,Item,B,,,,,,0,Instruct,User,-,"You have completed this section. Please click next.",,Instruct7,2077,,,-1,-1,,,,,1
5c3a5009fb7feb00014290f1,1w9598vxkm,Ex2A_Prolific,1,185,2024-02-29T00:16:36+00:00,1.7363159656525,6,Stim_B.csv,Item.csv,Item,B,,,,,,0,Instruct,User,-,"The following screen will ask you a few questions abour your experience today. You must complete these questions to receive credit.",,Instruct8,1473,,,-1,-1,,,,,1
