Username,ID,ExperimentName,Session,Trial,Date,TimeDif,"Condition Number","Stimuli File","Order File","Condition Description","Condition Notes",Stimuli*Cue,Stimuli*Answer,Stimuli*Shuffle,"Stimuli*Stimuli Notes",Stimuli*Value,Procedure*Item,"Procedure*Trial Type","Procedure*Max Time","Procedure*Min Time",Procedure*Text,"Procedure*Procedure Notes",Procedure*Shuffle,Response*RT,Response*Response,Response*Accuracy,Response*RTfirst,Response*RTlast,Response*strictAcc,Response*lenientAcc,Response*focus,Response*JOL,Response*Focus
653132d03514084477bbd338,fq5zsquv5t,Ex2A_Prolific,1,1,2024-02-28T01:55:54+00:00,6.7846648693085,5,Stim_A.csv,Item.csv,Item,A,,,,,,0,Instruct,-,5,"In this section, you will be presented with a series of words. Please study each word carefully. Your memory will be tested!",Initial_Instruct,Instruct1,6443,,,-1,-1,,,,,1
653132d03514084477bbd338,fq5zsquv5t,Ex2A_Prolific,1,2,2024-02-28T01:56:31+00:00,36.271239995956,5,Stim_A.csv,Item.csv,Item,A,,,,,,0,Instruct,-,5,"As you study, you will be asked to rate your ability to remember each item on a later memory test using a 0-100 scale. For example, if you study the word DOG, a rating of 0 indicates that you would not remember DOG at test, while a rating of 100 indicates full certainty that you would remember the word DOG at test.",,Instruct13,35762,,,-1,-1,,,,,1
653132d03514084477bbd338,fq5zsquv5t,Ex2A_Prolific,1,3,2024-02-28T01:57:16+00:00,45.851203203201,5,Stim_A.csv,Item.csv,Item,A,,,,,,0,Instruct,-,10,"When making your ratings, it is criticial that you use the full range of the scale. You will be disqualified for only giving ratings of 0 or 100!",,Instruct15,45333,,,-1,-1,,,,,1
653132d03514084477bbd338,fq5zsquv5t,Ex2A_Prolific,1,4,2024-02-28T01:57:19+00:00,2.7965588569641,5,Stim_A.csv,Item.csv,Item,A,,,,,,0,Instruct,User,-,"You will now begin the study. Click next when you are ready to begin.",,Instruct16,2482,,,-1,-1,,,,,1
653132d03514084477bbd338,fq5zsquv5t,Ex2A_Prolific,1,5,2024-02-28T01:57:53+00:00,33.536962032318,5,Stim_A.csv,Item.csv,Item,A,pane,,Win_1,,,2,JOL,User,1.25,"How likely are you to correctly recall the second item in the pair?|Type your response on a scale from 0-100 and then press Enter.",Window,Win_1,32993,,,26263,27503,,,,80,0.922
653132d03514084477bbd338,fq5zsquv5t,Ex2A_Prolific,1,6,2024-02-28T01:58:01+00:00,8.4726450443268,5,Stim_A.csv,Item.csv,Item,A,sill,,Win_2,,,3,JOL,User,1.25,"How likely are you to correctly recall the second item in the pair?|Type your response on a scale from 0-100 and then press Enter.",Window,Win_2,8072,,,5684,6242,,,,70,1
653132d03514084477bbd338,fq5zsquv5t,Ex2A_Prolific,1,7,2024-02-28T01:58:13+00:00,12.132009983063,5,Stim_A.csv,Item.csv,Item,A,shutter,,Win_3,,,4,JOL,User,1.25,"How likely are you to correctly recall the second item in the pair?|Type your response on a scale from 0-100 and then press Enter.",Window,Win_3,11637,,,10899,11135,,,,70,1
653132d03514084477bbd338,fq5zsquv5t,Ex2A_Prolific,1,8,2024-02-28T01:58:24+00:00,10.227616071701,5,Stim_A.csv,Item.csv,Item,A,curtain,,Win_4,,,5,JOL,User,1.25,"How likely are you to correctly recall the second item in the pair?|Type your response on a scale from 0-100 and then press Enter.",Window,Win_4,9856,,,8831,9103,,,,80,1
653132d03514084477bbd338,fq5zsquv5t,Ex2A_Prolific,1,9,2024-02-28T01:58:29+00:00,5.1714358329773,5,Stim_A.csv,Item.csv,Item,A,door,,Win_5,,,6,JOL,User,1.25,"How likely are you to correctly recall the second item in the pair?|Type your response on a scale from 0-100 and then press Enter.",Window,Win_5,4826,,,3526,4111,,,,90,1
653132d03514084477bbd338,fq5zsquv5t,Ex2A_Prolific,1,10,2024-02-28T01:58:46+00:00,17.602619171143,5,Stim_A.csv,Item.csv,Item,A,ledge,,Win_6,,,7,JOL,User,1.25,"How likely are you to correctly recall the second item in the pair?|Type your response on a scale from 0-100 and then press Enter.",Window,Win_6,17308,,,16736,16917,,,,50,1
653132d03514084477bbd338,fq5zsquv5t,Ex2A_Prolific,1,11,2024-02-28T01:58:54+00:00,7.4289128780365,5,Stim_A.csv,Item.csv,Item,A,glass,,Win_7,,,8,JOL,User,1.25,"How likely are you to correctly recall the second item in the pair?|Type your response on a scale from 0-100 and then press Enter.",Window,Win_7,6983,,,6028,6668,,,,80,1
653132d03514084477bbd338,fq5zsquv5t,Ex2A_Prolific,1,12,2024-02-28T01:59:05+00:00,11.305459976196,5,Stim_A.csv,Item.csv,Item,A,view,,Win_8,,,9,JOL,User,1.25,"How likely are you to correctly recall the second item in the pair?|Type your response on a scale from 0-100 and then press Enter.",Window,Win_8,10985,,,10043,10646,,,,80,1
653132d03514084477bbd338,fq5zsquv5t,Ex2A_Prolific,1,13,2024-02-28T01:59:08+00:00,3.409441947937,5,Stim_A.csv,Item.csv,Item,A,screen,,Win_9,,,10,JOL,User,1.25,"How likely are you to correctly recall the second item in the pair?|Type your response on a scale from 0-100 and then press Enter.",Window,Win_9,3127,,,2464,2812,,,,100,1
653132d03514084477bbd338,fq5zsquv5t,Ex2A_Prolific,1,14,2024-02-28T01:59:12+00:00,3.3047931194305,5,Stim_A.csv,Item.csv,Item,A,shade,,Win_10,,,11,JOL,User,1.25,"How likely are you to correctly recall the second item in the pair?|Type your response on a scale from 0-100 and then press Enter.",Window,Win_10,2849,,,2014,2528,,,,100,1
653132d03514084477bbd338,fq5zsquv5t,Ex2A_Prolific,1,15,2024-02-28T01:59:20+00:00,7.8296558856964,5,Stim_A.csv,Item.csv,Item,A,open,,Win_11,,,12,JOL,User,1.25,"How likely are you to correctly recall the second item in the pair?|Type your response on a scale from 0-100 and then press Enter.",Window,Win_11,7320,,,6565,6914,,,,100,1
653132d03514084477bbd338,fq5zsquv5t,Ex2A_Prolific,1,16,2024-02-28T01:59:31+00:00,11.135107040405,5,Stim_A.csv,Item.csv,Item,A,frame,,Win_12,,,13,JOL,User,1.25,"How likely are you to correctly recall the second item in the pair?|Type your response on a scale from 0-100 and then press Enter.",Window,Win_12,10796,,,9188,9869,,,,70,1
653132d03514084477bbd338,fq5zsquv5t,Ex2A_Prolific,1,17,2024-02-28T01:59:35+00:00,4.5654690265656,5,Stim_A.csv,Item.csv,Item,A,,,,,,0,Instruct,User,-,"You have completed this section. Please click next.",,Instruct166,3824,,,-1,-1,,,,,1
653132d03514084477bbd338,fq5zsquv5t,Ex2A_Prolific,1,18,2024-02-28T02:00:06+00:00,30.413609981537,5,Stim_A.csv,Item.csv,Item,A,,,,,,0,FreeRecall,30,30,"Please type as many words as you can that begin with the letter ""M"". The computer will automatically advance to the next screen in 30 seconds.",,FILLER,30004,,0,-1,-1,0,0,,,1
653132d03514084477bbd338,fq5zsquv5t,Ex2A_Prolific,1,19,2024-02-28T02:00:09+00:00,3.1674790382385,5,Stim_A.csv,Item.csv,Item,A,,,,,,0,Instruct,User,-,"You have completed this section. Please click next.",,Instruct166,2677,,,-1,-1,,,,,1
653132d03514084477bbd338,fq5zsquv5t,Ex2A_Prolific,1,20,2024-02-28T02:00:37+00:00,28.482383966446,5,Stim_A.csv,Item.csv,Item,A,,,,,,0,Instruct,User,4,"You will now complete a memory test for the words you just studied. Please type as many words from the previous list as you can seperated by a comma. Spelling will not count against you and you can recall the words in any order. This test will be timed for one minute, and the computer will automatically advance once time is up. Click next when you are ready to begin.",,Instruct1666,28184,,,-1,-1,,,,,1
653132d03514084477bbd338,fq5zsquv5t,Ex2A_Prolific,1,21,2024-02-28T02:01:38+00:00,60.62958407402,5,Stim_A.csv,Item.csv,Item,A,,,,,,0,FreeRecall,60,60,"Please type as many words as you can from the previous study list in any order. Please separate each word with a comma. Spelling will not count against you. This screen will automatically advance in one minute.",,RECALL_Test,60001,"screen, door, frame, glass, pane, shade, open, ledge,still, curtain, shutter",0,1058,44156,0,0,,,0.987
653132d03514084477bbd338,fq5zsquv5t,Ex2A_Prolific,1,22,2024-02-28T02:01:45+00:00,7.3436529636383,5,Stim_A.csv,Item.csv,Item,A,,,,,,0,Instruct,User,3,"You will now be presented with a new study list. Click next when you are ready to begin.",,NEXT_LIST,7001,,,-1,-1,,,,,1
653132d03514084477bbd338,fq5zsquv5t,Ex2A_Prolific,1,23,2024-02-28T02:01:52+00:00,6.9240651130676,5,Stim_A.csv,Item.csv,Item,A,sandpaper,,R1,,,14,JOL,User,1.25,"How likely are you to correctly recall the second item in the pair?|Type your response on a scale from 0-100 and then press Enter.",Rough,R1,6623,,,5450,5914,,,,70,1
653132d03514084477bbd338,fq5zsquv5t,Ex2A_Prolific,1,24,2024-02-28T02:02:02+00:00,9.581375837326,5,Stim_A.csv,Item.csv,Item,A,smooth,,R2,,,15,JOL,User,1.25,"How likely are you to correctly recall the second item in the pair?|Type your response on a scale from 0-100 and then press Enter.",Rough,R2,9292,,,8563,8899,,,,80,1
653132d03514084477bbd338,fq5zsquv5t,Ex2A_Prolific,1,25,2024-02-28T02:02:12+00:00,10.440164089203,5,Stim_A.csv,Item.csv,Item,A,coarse,,R3,,,16,JOL,User,1.25,"How likely are you to correctly recall the second item in the pair?|Type your response on a scale from 0-100 and then press Enter.",Rough,R3,10134,,,8002,9756,,,,40,1
653132d03514084477bbd338,fq5zsquv5t,Ex2A_Prolific,1,26,2024-02-28T02:02:23+00:00,10.799484014511,5,Stim_A.csv,Item.csv,Item,A,tough,,R4,,,17,JOL,User,1.25,"How likely are you to correctly recall the second item in the pair?|Type your response on a scale from 0-100 and then press Enter.",Rough,R4,10345,,,9170,9911,,,,80,1
653132d03514084477bbd338,fq5zsquv5t,Ex2A_Prolific,1,27,2024-02-28T02:02:30+00:00,7.3443880081177,5,Stim_A.csv,Item.csv,Item,A,rugged,,R5,,,18,JOL,User,1.25,"How likely are you to correctly recall the second item in the pair?|Type your response on a scale from 0-100 and then press Enter.",Rough,R5,7003,,,5677,6174,,,,70,1
653132d03514084477bbd338,fq5zsquv5t,Ex2A_Prolific,1,28,2024-02-28T02:02:33+00:00,2.6561849117279,5,Stim_A.csv,Item.csv,Item,A,bumpy,,R6,,,19,JOL,User,1.25,"How likely are you to correctly recall the second item in the pair?|Type your response on a scale from 0-100 and then press Enter.",Rough,R6,2325,,,1835,2059,,,,60,1
653132d03514084477bbd338,fq5zsquv5t,Ex2A_Prolific,1,29,2024-02-28T02:02:46+00:00,12.576508045197,5,Stim_A.csv,Item.csv,Item,A,jagged,,R7,,,20,JOL,User,1.25,"How likely are you to correctly recall the second item in the pair?|Type your response on a scale from 0-100 and then press Enter.",Rough,R7,12271,,,11711,11925,,,,40,1
653132d03514084477bbd338,fq5zsquv5t,Ex2A_Prolific,1,30,2024-02-28T02:02:51+00:00,5.2083160877228,5,Stim_A.csv,Item.csv,Item,A,riders,,R8,,,21,JOL,User,1.25,"How likely are you to correctly recall the second item in the pair?|Type your response on a scale from 0-100 and then press Enter.",Rough,R8,4875,,,4266,4530,,,,50,1
653132d03514084477bbd338,fq5zsquv5t,Ex2A_Prolific,1,31,2024-02-28T02:03:00+00:00,9.0443029403687,5,Stim_A.csv,Item.csv,Item,A,uneven,,R9,,,22,JOL,User,1.25,"How likely are you to correctly recall the second item in the pair?|Type your response on a scale from 0-100 and then press Enter.",Rough,R9,8733,,,7894,8464,,,,70,1
653132d03514084477bbd338,fq5zsquv5t,Ex2A_Prolific,1,32,2024-02-28T02:03:06+00:00,5.8813979625702,5,Stim_A.csv,Item.csv,Item,A,road,,R10,,,23,JOL,User,1.25,"How likely are you to correctly recall the second item in the pair?|Type your response on a scale from 0-100 and then press Enter.",Rough,R10,5445,,,4578,5114,,,,100,1
653132d03514084477bbd338,fq5zsquv5t,Ex2A_Prolific,1,33,2024-02-28T02:03:09+00:00,3.2152950763702,5,Stim_A.csv,Item.csv,Item,A,ready,,R11,,,24,JOL,User,1.25,"How likely are you to correctly recall the second item in the pair?|Type your response on a scale from 0-100 and then press Enter.",Rough,R11,2731,,,2170,2452,,,,100,1
653132d03514084477bbd338,fq5zsquv5t,Ex2A_Prolific,1,34,2024-02-28T02:03:13+00:00,4.0968408584595,5,Stim_A.csv,Item.csv,Item,A,sand,,R12,,,25,JOL,User,1.25,"How likely are you to correctly recall the second item in the pair?|Type your response on a scale from 0-100 and then press Enter.",Rough,R12,3703,,,2873,3377,,,,100,1
653132d03514084477bbd338,fq5zsquv5t,Ex2A_Prolific,1,35,2024-02-28T02:03:19+00:00,6.072674036026,5,Stim_A.csv,Item.csv,Item,A,,,,,,0,Instruct,User,4,"You have completed this section. Please click next.",,Instruct166,5264,,,-1,-1,,,,,1
653132d03514084477bbd338,fq5zsquv5t,Ex2A_Prolific,1,36,2024-02-28T02:03:50+00:00,30.422166109085,5,Stim_A.csv,Item.csv,Item,A,,,,,,0,FreeRecall,30,30,"Please type as many words as you can that begin with the letter ""K"". The computer will automatically advance to the next screen in 30 seconds.",,FILLER,30001,"Road, read, sand, rugged, sandpaper, coarse, tough, bummoy",0,1412,29516,0,0,,,1
653132d03514084477bbd338,fq5zsquv5t,Ex2A_Prolific,1,37,2024-02-28T02:03:52+00:00,2.8521029949188,5,Stim_A.csv,Item.csv,Item,A,,,,,,0,Instruct,User,-,"You have completed this section. Please click next.",,Instruct166,2567,,,-1,-1,,,,,1
653132d03514084477bbd338,fq5zsquv5t,Ex2A_Prolific,1,38,2024-02-28T02:04:02+00:00,9.200413942337,5,Stim_A.csv,Item.csv,Item,A,,,,,,0,Instruct,User,4,"You will now complete a memory test for the words you just studied. Please type as many words from the previous list as you can seperated by a comma. Spelling will not count against you and you can recall the words in any order. This test will be timed for one minute, and the computer will automatically advance once time is up. Click next when you are ready to begin.",,Instruct1666,8712,,,-1,-1,,,,,1
653132d03514084477bbd338,fq5zsquv5t,Ex2A_Prolific,1,39,2024-02-28T02:05:02+00:00,60.301690101624,5,Stim_A.csv,Item.csv,Item,A,,,,,,0,FreeRecall,60,60,"Please type as many words as you can from the previous study list in any order. Please separate each word with a comma. Spelling will not count against you. This screen will automatically advance in one minute.",,RECALL_Test,60001,"rugged, sandpaper, sand, ready, view, open, jagged, coarsed, tough, bumpy, rugged",0,2849,57521,0,0,,,1
653132d03514084477bbd338,fq5zsquv5t,Ex2A_Prolific,1,40,2024-02-28T02:05:07+00:00,4.7351608276367,5,Stim_A.csv,Item.csv,Item,A,,,,,,0,Instruct,User,3,"You will now be presented with a new study list. Click next when you are ready to begin.",,NEXT_LIST,4272,,,-1,-1,,,,,1
653132d03514084477bbd338,fq5zsquv5t,Ex2A_Prolific,1,41,2024-02-28T02:05:13+00:00,6.3359000682831,5,Stim_A.csv,Item.csv,Item,A,rage,,A1,,,26,JOL,User,1.25,"How likely are you to correctly recall the second item in the pair?|Type your response on a scale from 0-100 and then press Enter.",Anger,A1,6046,,,3685,5202,,,,80,1
653132d03514084477bbd338,fq5zsquv5t,Ex2A_Prolific,1,42,2024-02-28T02:05:17+00:00,4.1457669734955,5,Stim_A.csv,Item.csv,Item,A,mad,,A2,,,27,JOL,User,1.25,"How likely are you to correctly recall the second item in the pair?|Type your response on a scale from 0-100 and then press Enter.",Anger,A2,3520,,,2789,3239,,,,100,1
653132d03514084477bbd338,fq5zsquv5t,Ex2A_Prolific,1,43,2024-02-28T02:05:22+00:00,4.3412470817566,5,Stim_A.csv,Item.csv,Item,A,enrage,,A3,,,28,JOL,User,1.25,"How likely are you to correctly recall the second item in the pair?|Type your response on a scale from 0-100 and then press Enter.",Anger,A3,4027,,,3199,3599,,,,100,1
653132d03514084477bbd338,fq5zsquv5t,Ex2A_Prolific,1,44,2024-02-28T02:05:38+00:00,16.84438586235,5,Stim_A.csv,Item.csv,Item,A,fury,,A4,,,29,JOL,User,1.25,"How likely are you to correctly recall the second item in the pair?|Type your response on a scale from 0-100 and then press Enter.",Anger,A4,16426,,,2864,3293,,,,100,1
653132d03514084477bbd338,fq5zsquv5t,Ex2A_Prolific,1,45,2024-02-28T02:05:48+00:00,9.7209329605103,5,Stim_A.csv,Item.csv,Item,A,temper,,A5,,,30,JOL,User,1.25,"How likely are you to correctly recall the second item in the pair?|Type your response on a scale from 0-100 and then press Enter.",Anger,A5,9262,,,5660,8928,,,,19,1
653132d03514084477bbd338,fq5zsquv5t,Ex2A_Prolific,1,46,2024-02-28T02:05:53+00:00,4.9836091995239,5,Stim_A.csv,Item.csv,Item,A,ire,,A6,,,31,JOL,User,1.25,"How likely are you to correctly recall the second item in the pair?|Type your response on a scale from 0-100 and then press Enter.",Anger,A6,4684,,,4160,4373,,,,20,1
653132d03514084477bbd338,fq5zsquv5t,Ex2A_Prolific,1,47,2024-02-28T02:05:58+00:00,4.9802038669586,5,Stim_A.csv,Item.csv,Item,A,wrath,,A7,,,32,JOL,User,1.25,"How likely are you to correctly recall the second item in the pair?|Type your response on a scale from 0-100 and then press Enter.",Anger,A7,4653,,,2191,3817,,,,90,1
653132d03514084477bbd338,fq5zsquv5t,Ex2A_Prolific,1,48,2024-02-28T02:06:16+00:00,17.823745965958,5,Stim_A.csv,Item.csv,Item,A,mean,,A8,,,33,JOL,User,1.25,"How likely are you to correctly recall the second item in the pair?|Type your response on a scale from 0-100 and then press Enter.",Anger,A8,17426,,,16100,16575,,,,80,1
653132d03514084477bbd338,fq5zsquv5t,Ex2A_Prolific,1,49,2024-02-28T02:06:27+00:00,11.294064044952,5,Stim_A.csv,Item.csv,Item,A,hatred,,A9,,,34,JOL,User,1.25,"How likely are you to correctly recall the second item in the pair?|Type your response on a scale from 0-100 and then press Enter.",Anger,A9,10952,,,8082,10681,,,,100,1
653132d03514084477bbd338,fq5zsquv5t,Ex2A_Prolific,1,50,2024-02-28T02:06:31+00:00,3.5758969783783,5,Stim_A.csv,Item.csv,Item,A,fight,,A10,,,35,JOL,User,1.25,"How likely are you to correctly recall the second item in the pair?|Type your response on a scale from 0-100 and then press Enter.",Anger,A10,3236,,,2788,2959,,,,19,1
653132d03514084477bbd338,fq5zsquv5t,Ex2A_Prolific,1,51,2024-02-28T02:06:34+00:00,2.9553551673889,5,Stim_A.csv,Item.csv,Item,A,hate,,A11,,,36,JOL,User,1.25,"How likely are you to correctly recall the second item in the pair?|Type your response on a scale from 0-100 and then press Enter.",Anger,A11,2414,,,1772,2051,,,,90,1
653132d03514084477bbd338,fq5zsquv5t,Ex2A_Prolific,1,52,2024-02-28T02:06:36+00:00,2.1105818748474,5,Stim_A.csv,Item.csv,Item,A,fear,,A12,,,37,JOL,User,1.25,"How likely are you to correctly recall the second item in the pair?|Type your response on a scale from 0-100 and then press Enter.",Anger,A12,1766,,,1150,1408,,,,90,1
653132d03514084477bbd338,fq5zsquv5t,Ex2A_Prolific,1,53,2024-02-28T02:06:38+00:00,2.0841290950775,5,Stim_A.csv,Item.csv,Item,A,,,,,,0,Instruct,User,-,"You have completed this section. Please click next.",,Instruct166,1598,,,-1,-1,,,,,1
653132d03514084477bbd338,fq5zsquv5t,Ex2A_Prolific,1,54,2024-02-28T02:07:08+00:00,30.298666954041,5,Stim_A.csv,Item.csv,Item,A,,,,,,0,FreeRecall,30,30,"Please type as many words as you can that begin with the letter ""L"". The computer will automatically advance to the next screen in 30 seconds.",,FILLER,30002,"fear, hate, mad, temper, fury, mean, fight, rage, enraged",0,5495,29332,0,0,,,1
653132d03514084477bbd338,fq5zsquv5t,Ex2A_Prolific,1,55,2024-02-28T02:07:13+00:00,4.3698930740356,5,Stim_A.csv,Item.csv,Item,A,,,,,,0,Instruct,User,-,"You have completed this section. Please click next.",,Instruct166,3944,,,-1,-1,,,,,1
653132d03514084477bbd338,fq5zsquv5t,Ex2A_Prolific,1,56,2024-02-28T02:07:20+00:00,7.1644239425659,5,Stim_A.csv,Item.csv,Item,A,,,,,,0,Instruct,User,4,"You will now complete a memory test for the words you just studied. Please type as many words from the previous list as you can seperated by a comma. Spelling will not count against you and you can recall the words in any order. This test will be timed for one minute, and the computer will automatically advance once time is up. Click next when you are ready to begin.",,Instruct1666,6596,,,-1,-1,,,,,1
653132d03514084477bbd338,fq5zsquv5t,Ex2A_Prolific,1,57,2024-02-28T02:08:20+00:00,60.40752696991,5,Stim_A.csv,Item.csv,Item,A,,,,,,0,FreeRecall,60,60,"Please type as many words as you can from the previous study list in any order. Please separate each word with a comma. Spelling will not count against you. This screen will automatically advance in one minute.",,RECALL_Test,60001,"rage, enrage, temper, fury, fight, mad, mean, ire, hate, fear, anger",0,990,58206,0,0,,,1
653132d03514084477bbd338,fq5zsquv5t,Ex2A_Prolific,1,58,2024-02-28T02:08:24+00:00,3.8494389057159,5,Stim_A.csv,Item.csv,Item,A,,,,,,0,Instruct,User,3,"You will now be presented with a new study list. Click next when you are ready to begin.",,NEXT_LIST,3548,,,-1,-1,,,,,1
653132d03514084477bbd338,fq5zsquv5t,Ex2A_Prolific,1,59,2024-02-28T02:08:42+00:00,17.901767969131,5,Stim_A.csv,Item.csv,Item,A,garbage,,T1,,,38,JOL,User,1.25,"How likely are you to correctly recall the second item in the pair?|Type your response on a scale from 0-100 and then press Enter.",Trash,T1,17384,,,14663,16972,,,,100,0.925
653132d03514084477bbd338,fq5zsquv5t,Ex2A_Prolific,1,60,2024-02-28T02:08:48+00:00,5.8985102176666,5,Stim_A.csv,Item.csv,Item,A,rubbish,,T2,,,39,JOL,User,1.25,"How likely are you to correctly recall the second item in the pair?|Type your response on a scale from 0-100 and then press Enter.",Trash,T2,5425,,,4034,4475,,,,80,1
653132d03514084477bbd338,fq5zsquv5t,Ex2A_Prolific,1,61,2024-02-28T02:08:52+00:00,3.8237099647522,5,Stim_A.csv,Item.csv,Item,A,debris,,T3,,,40,JOL,User,1.25,"How likely are you to correctly recall the second item in the pair?|Type your response on a scale from 0-100 and then press Enter.",Trash,T3,3422,,,2865,3074,,,,30,1
653132d03514084477bbd338,fq5zsquv5t,Ex2A_Prolific,1,62,2024-02-28T02:09:03+00:00,11.79227399826,5,Stim_A.csv,Item.csv,Item,A,dump,,T4,,,41,JOL,User,1.25,"How likely are you to correctly recall the second item in the pair?|Type your response on a scale from 0-100 and then press Enter.",Trash,T4,11489,,,10976,11152,,,,90,1
653132d03514084477bbd338,fq5zsquv5t,Ex2A_Prolific,1,63,2024-02-28T02:09:07+00:00,3.6541378498077,5,Stim_A.csv,Item.csv,Item,A,litter,,T5,,,42,JOL,User,1.25,"How likely are you to correctly recall the second item in the pair?|Type your response on a scale from 0-100 and then press Enter.",Trash,T5,3240,,,2182,2406,,,,90,1
653132d03514084477bbd338,fq5zsquv5t,Ex2A_Prolific,1,64,2024-02-28T02:09:13+00:00,6.2921750545502,5,Stim_A.csv,Item.csv,Item,A,landfill,,T6,,,43,JOL,User,1.25,"How likely are you to correctly recall the second item in the pair?|Type your response on a scale from 0-100 and then press Enter.",Trash,T6,5813,,,3200,3927,,,,70,1
653132d03514084477bbd338,fq5zsquv5t,Ex2A_Prolific,1,65,2024-02-28T02:09:35+00:00,22.112527132034,5,Stim_A.csv,Item.csv,Item,A,junk,,T7,,,44,JOL,User,1.25,"How likely are you to correctly recall the second item in the pair?|Type your response on a scale from 0-100 and then press Enter.",Trash,T7,21495,,,20907,21214,,,,60,1
653132d03514084477bbd338,fq5zsquv5t,Ex2A_Prolific,1,66,2024-02-28T02:09:42+00:00,6.9887759685516,5,Stim_A.csv,Item.csv,Item,A,waste,,T8,,,45,JOL,User,1.25,"How likely are you to correctly recall the second item in the pair?|Type your response on a scale from 0-100 and then press Enter.",Trash,T8,6619,,,5781,6277,,,,70,1
653132d03514084477bbd338,fq5zsquv5t,Ex2A_Prolific,1,67,2024-02-28T02:09:46+00:00,3.6906259059906,5,Stim_A.csv,Item.csv,Item,A,sewage,,T9,,,46,JOL,User,1.25,"How likely are you to correctly recall the second item in the pair?|Type your response on a scale from 0-100 and then press Enter.",Trash,T9,3402,,,2901,3117,,,,90,1
653132d03514084477bbd338,fq5zsquv5t,Ex2A_Prolific,1,68,2024-02-28T02:09:55+00:00,9.1435611248016,5,Stim_A.csv,Item.csv,Item,A,pile,,T10,,,47,JOL,User,1.25,"How likely are you to correctly recall the second item in the pair?|Type your response on a scale from 0-100 and then press Enter.",Trash,T10,8725,,,-1,-1,,,,,1
653132d03514084477bbd338,fq5zsquv5t,Ex2A_Prolific,1,69,2024-02-28T02:10:04+00:00,8.3757388591766,5,Stim_A.csv,Item.csv,Item,A,scraps,,T11,,,48,JOL,User,1.25,"How likely are you to correctly recall the second item in the pair?|Type your response on a scale from 0-100 and then press Enter.",Trash,T11,7900,,,5685,6269,,,,100,1
653132d03514084477bbd338,fq5zsquv5t,Ex2A_Prolific,1,70,2024-02-28T02:10:14+00:00,10.482589960098,5,Stim_A.csv,Item.csv,Item,A,refuse,,T12,,,49,JOL,User,1.25,"How likely are you to correctly recall the second item in the pair?|Type your response on a scale from 0-100 and then press Enter.",Trash,T12,10141,,,9427,9799,,,,60,1
653132d03514084477bbd338,fq5zsquv5t,Ex2A_Prolific,1,71,2024-02-28T02:10:15+00:00,1.3383541107178,5,Stim_A.csv,Item.csv,Item,A,,,,,,0,Instruct,User,-,"You have completed this section. Please click next.",,Instruct166,695,,,-1,-1,,,,,1
653132d03514084477bbd338,fq5zsquv5t,Ex2A_Prolific,1,72,2024-02-28T02:10:46+00:00,30.40934586525,5,Stim_A.csv,Item.csv,Item,A,,,,,,0,FreeRecall,30,30,"Please type as many words as you can that begin with the letter ""S"". The computer will automatically advance to the next screen in 30 seconds.",,FILLER,30001,"refuse, litter, junk, landspile, debrises, gbbage, rubb",0,899,29923,0,0,,,1
653132d03514084477bbd338,fq5zsquv5t,Ex2A_Prolific,1,73,2024-02-28T02:10:48+00:00,1.6500911712646,5,Stim_A.csv,Item.csv,Item,A,,,,,,0,Instruct,User,-,"You have completed this section. Please click next.",,Instruct166,1327,,,-1,-1,,,,,1
653132d03514084477bbd338,fq5zsquv5t,Ex2A_Prolific,1,74,2024-02-28T02:10:53+00:00,5.1571259498596,5,Stim_A.csv,Item.csv,Item,A,,,,,,0,Instruct,User,4,"You will now complete a memory test for the words you just studied. Please type as many words from the previous list as you can seperated by a comma. Spelling will not count against you and you can recall the words in any order. This test will be timed for one minute, and the computer will automatically advance once time is up. Click next when you are ready to begin.",,Instruct1666,4622,,,-1,-1,,,,,1
653132d03514084477bbd338,fq5zsquv5t,Ex2A_Prolific,1,75,2024-02-28T02:11:53+00:00,60.312035083771,5,Stim_A.csv,Item.csv,Item,A,,,,,,0,FreeRecall,60,60,"Please type as many words as you can from the previous study list in any order. Please separate each word with a comma. Spelling will not count against you. This screen will automatically advance in one minute.",,RECALL_Test,60001,"gabbage, rubbish, litter, junks, lanspile, dump debrises jumk, waste, sewage",0,835,42609,0,0,,,0.986
653132d03514084477bbd338,fq5zsquv5t,Ex2A_Prolific,1,76,2024-02-28T02:11:57+00:00,4.1914768218994,5,Stim_A.csv,Item.csv,Item,A,,,,,,0,Instruct,User,3,"You will now be presented with a new study list. Click next when you are ready to begin.",,NEXT_LIST,3805,,,-1,-1,,,,,1
653132d03514084477bbd338,fq5zsquv5t,Ex2A_Prolific,1,77,2024-02-28T02:12:08+00:00,10.656972169876,5,Stim_A.csv,Item.csv,Item,A,physician,,D1,,,50,JOL,User,1.25,"How likely are you to correctly recall the second item in the pair?|Type your response on a scale from 0-100 and then press Enter.",Doctor,D1,10421,,,9272,9565,,,,80,1
653132d03514084477bbd338,fq5zsquv5t,Ex2A_Prolific,1,78,2024-02-28T02:12:12+00:00,4.3098139762878,5,Stim_A.csv,Item.csv,Item,A,nurse,,D2,,,51,JOL,User,1.25,"How likely are you to correctly recall the second item in the pair?|Type your response on a scale from 0-100 and then press Enter.",Doctor,D2,3794,,,3064,3270,,,,90,1
653132d03514084477bbd338,fq5zsquv5t,Ex2A_Prolific,1,79,2024-02-28T02:12:15+00:00,3.2378129959106,5,Stim_A.csv,Item.csv,Item,A,stethoscope,,D3,,,52,JOL,User,1.25,"How likely are you to correctly recall the second item in the pair?|Type your response on a scale from 0-100 and then press Enter.",Doctor,D3,2773,,,2238,2435,,,,90,1
653132d03514084477bbd338,fq5zsquv5t,Ex2A_Prolific,1,80,2024-02-28T02:12:19+00:00,3.8054649829865,5,Stim_A.csv,Item.csv,Item,A,surgeon,,D4,,,53,JOL,User,1.25,"How likely are you to correctly recall the second item in the pair?|Type your response on a scale from 0-100 and then press Enter.",Doctor,D4,3457,,,1889,2265,,,,90,1
653132d03514084477bbd338,fq5zsquv5t,Ex2A_Prolific,1,81,2024-02-28T02:12:22+00:00,2.4904170036316,5,Stim_A.csv,Item.csv,Item,A,patient,,D5,,,54,JOL,User,1.25,"How likely are you to correctly recall the second item in the pair?|Type your response on a scale from 0-100 and then press Enter.",Doctor,D5,2129,,,1491,1714,,,,90,1
653132d03514084477bbd338,fq5zsquv5t,Ex2A_Prolific,1,82,2024-02-28T02:12:25+00:00,3.0535700321198,5,Stim_A.csv,Item.csv,Item,A,clinic,,D6,,,55,JOL,User,1.25,"How likely are you to correctly recall the second item in the pair?|Type your response on a scale from 0-100 and then press Enter.",Doctor,D6,2734,,,1716,2082,,,,90,1
653132d03514084477bbd338,fq5zsquv5t,Ex2A_Prolific,1,83,2024-02-28T02:12:43+00:00,18.239753961563,5,Stim_A.csv,Item.csv,Item,A,dentist,,D7,,,56,JOL,User,1.25,"How likely are you to correctly recall the second item in the pair?|Type your response on a scale from 0-100 and then press Enter.",Doctor,D7,17786,,,16633,16833,,,,90,1
653132d03514084477bbd338,fq5zsquv5t,Ex2A_Prolific,1,84,2024-02-28T02:12:47+00:00,4.1591918468475,5,Stim_A.csv,Item.csv,Item,A,medicine,,D8,,,57,JOL,User,1.25,"How likely are you to correctly recall the second item in the pair?|Type your response on a scale from 0-100 and then press Enter.",Doctor,D8,3565,,,2798,3251,,,,100,1
653132d03514084477bbd338,fq5zsquv5t,Ex2A_Prolific,1,85,2024-02-28T02:13:01+00:00,13.506646156311,5,Stim_A.csv,Item.csv,Item,A,lawyer,,D9,,,58,JOL,User,1.25,"How likely are you to correctly recall the second item in the pair?|Type your response on a scale from 0-100 and then press Enter.",Doctor,D9,13094,,,12407,12802,,,,100,1
653132d03514084477bbd338,fq5zsquv5t,Ex2A_Prolific,1,86,2024-02-28T02:13:03+00:00,2.5882408618927,5,Stim_A.csv,Item.csv,Item,A,health,,D10,,,59,JOL,User,1.25,"How likely are you to correctly recall the second item in the pair?|Type your response on a scale from 0-100 and then press Enter.",Doctor,D10,1827,,,1177,1552,,,,100,1
653132d03514084477bbd338,fq5zsquv5t,Ex2A_Prolific,1,87,2024-02-28T02:13:05+00:00,2.2149891853333,5,Stim_A.csv,Item.csv,Item,A,sick,,D11,,,60,JOL,User,1.25,"How likely are you to correctly recall the second item in the pair?|Type your response on a scale from 0-100 and then press Enter.",Doctor,D11,1931,,,1288,1690,,,,100,1
653132d03514084477bbd338,fq5zsquv5t,Ex2A_Prolific,1,88,2024-02-28T02:13:08+00:00,2.3969058990479,5,Stim_A.csv,Item.csv,Item,A,cure,,D12,,,61,JOL,User,1.25,"How likely are you to correctly recall the second item in the pair?|Type your response on a scale from 0-100 and then press Enter.",Doctor,D12,1862,,,1075,1567,,,,100,1
653132d03514084477bbd338,fq5zsquv5t,Ex2A_Prolific,1,89,2024-02-28T02:13:09+00:00,1.1564660072327,5,Stim_A.csv,Item.csv,Item,A,,,,,,0,Instruct,User,-,"You have completed this section. Please click next.",,Instruct166,730,,,-1,-1,,,,,1
653132d03514084477bbd338,fq5zsquv5t,Ex2A_Prolific,1,90,2024-02-28T02:13:39+00:00,30.43189907074,5,Stim_A.csv,Item.csv,Item,A,,,,,,0,FreeRecall,30,30,"Please type as many words as you can that begin with the letter ""T"". The computer will automatically advance to the next screen in 30 seconds.",,FILLER,30001,"health, sick, cure, nurse, patient, medicine, surgeon, dentist,",0,879,29059,0,0,,,1
653132d03514084477bbd338,fq5zsquv5t,Ex2A_Prolific,1,91,2024-02-28T02:13:47+00:00,7.5534570217133,5,Stim_A.csv,Item.csv,Item,A,,,,,,0,Instruct,User,4,"You have completed this section. Please click next.",,Instruct166,7239,,,-1,-1,,,,,1
653132d03514084477bbd338,fq5zsquv5t,Ex2A_Prolific,1,92,2024-02-28T02:13:53+00:00,5.9431128501892,5,Stim_A.csv,Item.csv,Item,A,,,,,,0,Instruct,User,4,"You will now complete a memory test for the words you just studied. Please type as many words from the previous list as you can seperated by a comma. Spelling will not count against you and you can recall the words in any order. This test will be timed for one minute, and the computer will automatically advance once time is up. Click next when you are ready to begin.",,Instruct1666,4903,,,-1,-1,,,,,1
653132d03514084477bbd338,fq5zsquv5t,Ex2A_Prolific,1,93,2024-02-28T02:14:53+00:00,60.421164035797,5,Stim_A.csv,Item.csv,Item,A,,,,,,0,FreeRecall,60,60,"Please type as many words as you can from the previous study list in any order. Please separate each word with a comma. Spelling will not count against you. This screen will automatically advance in one minute.",,RECALL_Test,60002,"dentist, surgeon, clinic, sick, health, cure, nurse, thetoscope, medicine, clinic, surgeon, patient ",0,735,58108,0,0,,,1
653132d03514084477bbd338,fq5zsquv5t,Ex2A_Prolific,1,94,2024-02-28T02:14:57+00:00,3.3359889984131,5,Stim_A.csv,Item.csv,Item,A,,,,,,0,Instruct,User,3,"You will now be presented with a new study list. Click next when you are ready to begin.",,NEXT_LIST,3041,,,-1,-1,,,,,1
653132d03514084477bbd338,fq5zsquv5t,Ex2A_Prolific,1,95,2024-02-28T02:15:06+00:00,9.2303810119629,5,Stim_A.csv,Item.csv,Item,A,fast,,S1,,,62,JOL,User,1.25,"How likely are you to correctly recall the second item in the pair?|Type your response on a scale from 0-100 and then press Enter.",Slow,S1,8723,,,7852,8050,,,,90,0.914
653132d03514084477bbd338,fq5zsquv5t,Ex2A_Prolific,1,96,2024-02-28T02:15:08+00:00,2.1369309425354,5,Stim_A.csv,Item.csv,Item,A,snail,,S2,,,63,JOL,User,1.25,"How likely are you to correctly recall the second item in the pair?|Type your response on a scale from 0-100 and then press Enter.",Slow,S2,1837,,,1274,1497,,,,90,1
653132d03514084477bbd338,fq5zsquv5t,Ex2A_Prolific,1,97,2024-02-28T02:15:10+00:00,1.7409760951996,5,Stim_A.csv,Item.csv,Item,A,turtle,,S3,,,64,JOL,User,1.25,"How likely are you to correctly recall the second item in the pair?|Type your response on a scale from 0-100 and then press Enter.",Slow,S3,1447,,,891,1098,,,,90,1
653132d03514084477bbd338,fq5zsquv5t,Ex2A_Prolific,1,98,2024-02-28T02:15:13+00:00,3.0128500461578,5,Stim_A.csv,Item.csv,Item,A,sluggish,,S4,,,65,JOL,User,1.25,"How likely are you to correctly recall the second item in the pair?|Type your response on a scale from 0-100 and then press Enter.",Slow,S4,2270,,,1729,1936,,,,90,1
653132d03514084477bbd338,fq5zsquv5t,Ex2A_Prolific,1,99,2024-02-28T02:15:15+00:00,2.6710069179535,5,Stim_A.csv,Item.csv,Item,A,quick,,S5,,,66,JOL,User,1.25,"How likely are you to correctly recall the second item in the pair?|Type your response on a scale from 0-100 and then press Enter.",Slow,S5,1594,,,1052,1264,,,,90,1
653132d03514084477bbd338,fq5zsquv5t,Ex2A_Prolific,1,100,2024-02-28T02:15:35+00:00,19.398638010025,5,Stim_A.csv,Item.csv,Item,A,molasses,,S6,,,67,JOL,User,1.25,"How likely are you to correctly recall the second item in the pair?|Type your response on a scale from 0-100 and then press Enter.",Slow,S6,18893,,,17394,17572,,,,40,1
653132d03514084477bbd338,fq5zsquv5t,Ex2A_Prolific,1,101,2024-02-28T02:15:43+00:00,8.4581060409546,5,Stim_A.csv,Item.csv,Item,A,lethargic,,S7,,,68,JOL,User,1.25,"How likely are you to correctly recall the second item in the pair?|Type your response on a scale from 0-100 and then press Enter.",Slow,S7,8136,,,7659,7830,,,,50,1
653132d03514084477bbd338,fq5zsquv5t,Ex2A_Prolific,1,102,2024-02-28T02:15:47+00:00,3.5932679176331,5,Stim_A.csv,Item.csv,Item,A,speed,,S8,,,69,JOL,User,1.25,"How likely are you to correctly recall the second item in the pair?|Type your response on a scale from 0-100 and then press Enter.",Slow,S8,3087,,,1744,1950,,,,90,1
653132d03514084477bbd338,fq5zsquv5t,Ex2A_Prolific,1,103,2024-02-28T02:15:50+00:00,3.1076989173889,5,Stim_A.csv,Item.csv,Item,A,delay,,S9,,,70,JOL,User,1.25,"How likely are you to correctly recall the second item in the pair?|Type your response on a scale from 0-100 and then press Enter.",Slow,S9,2770,,,2193,2528,,,,100,1
653132d03514084477bbd338,fq5zsquv5t,Ex2A_Prolific,1,104,2024-02-28T02:15:54+00:00,4.1551902294159,5,Stim_A.csv,Item.csv,Item,A,hesitant,,S10,,,71,JOL,User,1.25,"How likely are you to correctly recall the second item in the pair?|Type your response on a scale from 0-100 and then press Enter.",Slow,S10,3539,,,2899,3249,,,,100,1
653132d03514084477bbd338,fq5zsquv5t,Ex2A_Prolific,1,105,2024-02-28T02:15:57+00:00,2.6181209087372,5,Stim_A.csv,Item.csv,Item,A,cautious,,S11,,,72,JOL,User,1.25,"How likely are you to correctly recall the second item in the pair?|Type your response on a scale from 0-100 and then press Enter.",Slow,S11,2104,,,1464,1826,,,,100,1
653132d03514084477bbd338,fq5zsquv5t,Ex2A_Prolific,1,106,2024-02-28T02:16:00+00:00,3.390389919281,5,Stim_A.csv,Item.csv,Item,A,traffic,,S12,,,73,JOL,User,1.25,"How likely are you to correctly recall the second item in the pair?|Type your response on a scale from 0-100 and then press Enter.",Slow,S12,3086,,,1987,2761,,,,100,1
653132d03514084477bbd338,fq5zsquv5t,Ex2A_Prolific,1,107,2024-02-28T02:16:05+00:00,4.9634389877319,5,Stim_A.csv,Item.csv,Item,A,,,,,,0,Instruct,User,4,"You have completed this section. Please click next.",,Instruct166,4539,,,-1,-1,,,,,1
653132d03514084477bbd338,fq5zsquv5t,Ex2A_Prolific,1,108,2024-02-28T02:16:36+00:00,30.410142183304,5,Stim_A.csv,Item.csv,Item,A,,,,,,0,FreeRecall,30,30,"Please type as many words as you can that begin with the letter ""M"". The computer will automatically advance to the next screen in 30 seconds.",,FILLER,30001,"speed, delay, hessitate, traffic, sluggish, snail, quick, speed, flash, ",0,840,24526,0,0,,,1
653132d03514084477bbd338,fq5zsquv5t,Ex2A_Prolific,1,109,2024-02-28T02:16:43+00:00,7.3375179767609,5,Stim_A.csv,Item.csv,Item,A,,,,,,0,Instruct,User,4,"You have completed this section. Please click next.",,Instruct166,6495,,,-1,-1,,,,,1
653132d03514084477bbd338,fq5zsquv5t,Ex2A_Prolific,1,110,2024-02-28T02:16:48+00:00,4.9487860202789,5,Stim_A.csv,Item.csv,Item,A,,,,,,0,Instruct,User,4,"You will now complete a memory test for the words you just studied. Please type as many words from the previous list as you can seperated by a comma. Spelling will not count against you and you can recall the words in any order. This test will be timed for one minute, and the computer will automatically advance once time is up. Click next when you are ready to begin.",,Instruct1666,4623,,,-1,-1,,,,,1
653132d03514084477bbd338,fq5zsquv5t,Ex2A_Prolific,1,111,2024-02-28T02:17:48+00:00,60.58841085434,5,Stim_A.csv,Item.csv,Item,A,,,,,,0,FreeRecall,60,60,"Please type as many words as you can from the previous study list in any order. Please separate each word with a comma. Spelling will not count against you. This screen will automatically advance in one minute.",,RECALL_Test,60164,"delay, hesitate, sluggish, snail, speed, quick, fast, Tuttle, molasis, leth",0,783,51672,0,0,,,0.99
653132d03514084477bbd338,fq5zsquv5t,Ex2A_Prolific,1,112,2024-02-28T02:17:52+00:00,3.51629114151,5,Stim_A.csv,Item.csv,Item,A,,,,,,0,Instruct,User,3,"You will now be presented with a new study list. Click next when you are ready to begin.",,NEXT_LIST,3220,,,-1,-1,,,,,1
653132d03514084477bbd338,fq5zsquv5t,Ex2A_Prolific,1,113,2024-02-28T02:18:03+00:00,11.029203891754,5,Stim_A.csv,Item.csv,Item,A,mississippi,,RR1,,,74,JOL,User,1.25,"How likely are you to correctly recall the second item in the pair?|Type your response on a scale from 0-100 and then press Enter.",River,RR1,10605,,,10057,10317,,,,100,1
653132d03514084477bbd338,fq5zsquv5t,Ex2A_Prolific,1,114,2024-02-28T02:18:06+00:00,3.2834138870239,5,Stim_A.csv,Item.csv,Item,A,creek,,RR2,,,75,JOL,User,1.25,"How likely are you to correctly recall the second item in the pair?|Type your response on a scale from 0-100 and then press Enter.",River,RR2,2888,,,2328,2636,,,,40,1
653132d03514084477bbd338,fq5zsquv5t,Ex2A_Prolific,1,115,2024-02-28T02:18:10+00:00,4.1949210166931,5,Stim_A.csv,Item.csv,Item,A,stream,,RR3,,,76,JOL,User,1.25,"How likely are you to correctly recall the second item in the pair?|Type your response on a scale from 0-100 and then press Enter.",River,RR3,3619,,,1927,2547,,,,80,1
653132d03514084477bbd338,fq5zsquv5t,Ex2A_Prolific,1,116,2024-02-28T02:18:23+00:00,12.287947177887,5,Stim_A.csv,Item.csv,Item,A,flow,,RR4,,,77,JOL,User,1.25,"How likely are you to correctly recall the second item in the pair?|Type your response on a scale from 0-100 and then press Enter.",River,RR4,11920,,,11340,11538,,,,90,1
653132d03514084477bbd338,fq5zsquv5t,Ex2A_Prolific,1,117,2024-02-28T02:18:29+00:00,6.0585849285126,5,Stim_A.csv,Item.csv,Item,A,bridge,,RR5,,,78,JOL,User,1.25,"How likely are you to correctly recall the second item in the pair?|Type your response on a scale from 0-100 and then press Enter.",River,RR5,5395,,,4164,5073,,,,80,1
653132d03514084477bbd338,fq5zsquv5t,Ex2A_Prolific,1,118,2024-02-28T02:18:32+00:00,2.7161600589752,5,Stim_A.csv,Item.csv,Item,A,brook,,RR6,,,79,JOL,User,1.25,"How likely are you to correctly recall the second item in the pair?|Type your response on a scale from 0-100 and then press Enter.",River,RR6,2390,,,1808,2106,,,,40,1
653132d03514084477bbd338,fq5zsquv5t,Ex2A_Prolific,1,119,2024-02-28T02:18:34+00:00,2.928867816925,5,Stim_A.csv,Item.csv,Item,A,lake,,RR7,,,80,JOL,User,1.25,"How likely are you to correctly recall the second item in the pair?|Type your response on a scale from 0-100 and then press Enter.",River,RR7,2499,,,1447,2242,,,,100,1
653132d03514084477bbd338,fq5zsquv5t,Ex2A_Prolific,1,120,2024-02-28T02:18:47+00:00,12.33470916748,5,Stim_A.csv,Item.csv,Item,A,barge,,RR8,,,81,JOL,User,1.25,"How likely are you to correctly recall the second item in the pair?|Type your response on a scale from 0-100 and then press Enter.",River,RR8,11952,,,11403,11660,,,,40,1
653132d03514084477bbd338,fq5zsquv5t,Ex2A_Prolific,1,121,2024-02-28T02:18:50+00:00,2.9890730381012,5,Stim_A.csv,Item.csv,Item,A,water,,RR9,,,82,JOL,User,1.25,"How likely are you to correctly recall the second item in the pair?|Type your response on a scale from 0-100 and then press Enter.",River,RR9,2321,,,1689,2070,,,,100,1
653132d03514084477bbd338,fq5zsquv5t,Ex2A_Prolific,1,122,2024-02-28T02:18:52+00:00,2.6395378112793,5,Stim_A.csv,Item.csv,Item,A,boat,,RR10,,,83,JOL,User,1.25,"How likely are you to correctly recall the second item in the pair?|Type your response on a scale from 0-100 and then press Enter.",River,RR10,2117,,,1506,1850,,,,100,1
653132d03514084477bbd338,fq5zsquv5t,Ex2A_Prolific,1,123,2024-02-28T02:18:56+00:00,3.6566650867462,5,Stim_A.csv,Item.csv,Item,A,tide,,RR11,,,84,JOL,User,1.25,"How likely are you to correctly recall the second item in the pair?|Type your response on a scale from 0-100 and then press Enter.",River,RR11,3176,,,869,2892,,,,100,1
653132d03514084477bbd338,fq5zsquv5t,Ex2A_Prolific,1,124,2024-02-28T02:18:58+00:00,2.318244934082,5,Stim_A.csv,Item.csv,Item,A,swim,,RR12,,,85,JOL,User,1.25,"How likely are you to correctly recall the second item in the pair?|Type your response on a scale from 0-100 and then press Enter.",River,RR12,2020,,,1168,1722,,,,100,1
653132d03514084477bbd338,fq5zsquv5t,Ex2A_Prolific,1,125,2024-02-28T02:19:08+00:00,9.2158710956573,5,Stim_A.csv,Item.csv,Item,A,,,,,,0,Instruct,User,4,"You have completed this section. Please click next.",,Instruct166,8399,,,-1,-1,,,,,0.833
653132d03514084477bbd338,fq5zsquv5t,Ex2A_Prolific,1,126,2024-02-28T02:19:38+00:00,30.299246072769,5,Stim_A.csv,Item.csv,Item,A,,,,,,0,FreeRecall,30,30,"Please type as many words as you can that begin with the letter ""W"". The computer will automatically advance to the next screen in 30 seconds.",,FILLER,30003,"water, boat, tide, stream, Mississippi, flow, laker",0,803,27787,0,0,,,1
653132d03514084477bbd338,fq5zsquv5t,Ex2A_Prolific,1,127,2024-02-28T02:19:45+00:00,7.0053579807281,5,Stim_A.csv,Item.csv,Item,A,,,,,,0,Instruct,User,4,"You have completed this section. Please click next.",,Instruct166,6707,,,-1,-1,,,,,0.962
653132d03514084477bbd338,fq5zsquv5t,Ex2A_Prolific,1,128,2024-02-28T02:19:51+00:00,5.6844139099121,5,Stim_A.csv,Item.csv,Item,A,,,,,,0,Instruct,User,4,"You will now complete a memory test for the words you just studied. Please type as many words from the previous list as you can seperated by a comma. Spelling will not count against you and you can recall the words in any order. This test will be timed for one minute, and the computer will automatically advance once time is up. Click next when you are ready to begin.",,Instruct1666,4961,,,-1,-1,,,,,1
653132d03514084477bbd338,fq5zsquv5t,Ex2A_Prolific,1,129,2024-02-28T02:20:51+00:00,60.317980051041,5,Stim_A.csv,Item.csv,Item,A,,,,,,0,FreeRecall,60,60,"Please type as many words as you can from the previous study list in any order. Please separate each word with a comma. Spelling will not count against you. This screen will automatically advance in one minute.",,RECALL_Test,60001,"water, boat, tide, stream, messissippi, flow, lake, bridge, barge",0,677,30527,0,0,,,0.967
653132d03514084477bbd338,fq5zsquv5t,Ex2A_Prolific,1,130,2024-02-28T02:20:56+00:00,4.6969790458679,5,Stim_A.csv,Item.csv,Item,A,,,,,,0,Instruct,User,3,"You will now be presented with a new study list. Click next when you are ready to begin.",,NEXT_LIST,4355,,,-1,-1,,,,,1
653132d03514084477bbd338,fq5zsquv5t,Ex2A_Prolific,1,131,2024-02-28T02:21:00+00:00,4.6203768253326,5,Stim_A.csv,Item.csv,Item,A,rye,,B1,,,86,JOL,User,1.25,"How likely are you to correctly recall the second item in the pair?|Type your response on a scale from 0-100 and then press Enter.",Bread,B1,4265,,,3714,3899,,,,20,1
653132d03514084477bbd338,fq5zsquv5t,Ex2A_Prolific,1,132,2024-02-28T02:21:03+00:00,2.6109871864319,5,Stim_A.csv,Item.csv,Item,A,loaf,,B2,,,87,JOL,User,1.25,"How likely are you to correctly recall the second item in the pair?|Type your response on a scale from 0-100 and then press Enter.",Bread,B2,2309,,,1745,2056,,,,100,1
653132d03514084477bbd338,fq5zsquv5t,Ex2A_Prolific,1,133,2024-02-28T02:21:05+00:00,1.7641949653625,5,Stim_A.csv,Item.csv,Item,A,butter,,B3,,,88,JOL,User,1.25,"How likely are you to correctly recall the second item in the pair?|Type your response on a scale from 0-100 and then press Enter.",Bread,B3,1444,,,788,1180,,,,100,1
653132d03514084477bbd338,fq5zsquv5t,Ex2A_Prolific,1,134,2024-02-28T02:21:07+00:00,2.0174729824066,5,Stim_A.csv,Item.csv,Item,A,toast,,B4,,,89,JOL,User,1.25,"How likely are you to correctly recall the second item in the pair?|Type your response on a scale from 0-100 and then press Enter.",Bread,B4,1430,,,798,1192,,,,100,1
653132d03514084477bbd338,fq5zsquv5t,Ex2A_Prolific,1,135,2024-02-28T02:21:09+00:00,2.2966339588165,5,Stim_A.csv,Item.csv,Item,A,dough,,B5,,,90,JOL,User,1.25,"How likely are you to correctly recall the second item in the pair?|Type your response on a scale from 0-100 and then press Enter.",Bread,B5,1664,,,1067,1423,,,,100,1
653132d03514084477bbd338,fq5zsquv5t,Ex2A_Prolific,1,136,2024-02-28T02:21:12+00:00,3.2024369239807,5,Stim_A.csv,Item.csv,Item,A,crust,,B6,,,91,JOL,User,1.25,"How likely are you to correctly recall the second item in the pair?|Type your response on a scale from 0-100 and then press Enter.",Bread,B6,2814,,,1766,2208,,,,80,1
653132d03514084477bbd338,fq5zsquv5t,Ex2A_Prolific,1,137,2024-02-28T02:21:31+00:00,19.137315034866,5,Stim_A.csv,Item.csv,Item,A,flour,,B7,,,92,JOL,User,1.25,"How likely are you to correctly recall the second item in the pair?|Type your response on a scale from 0-100 and then press Enter.",Bread,B7,18535,,,16218,17684,,,,90,1
653132d03514084477bbd338,fq5zsquv5t,Ex2A_Prolific,1,138,2024-02-28T02:21:53+00:00,21.272979021072,5,Stim_A.csv,Item.csv,Item,A,sandwich,,B8,,,93,JOL,User,1.25,"How likely are you to correctly recall the second item in the pair?|Type your response on a scale from 0-100 and then press Enter.",Bread,B8,20961,,,20533,20679,,,,90,1
653132d03514084477bbd338,fq5zsquv5t,Ex2A_Prolific,1,139,2024-02-28T02:21:55+00:00,2.3375859260559,5,Stim_A.csv,Item.csv,Item,A,jam,,B9,,,94,JOL,User,1.25,"How likely are you to correctly recall the second item in the pair?|Type your response on a scale from 0-100 and then press Enter.",Bread,B9,1911,,,1417,1652,,,,90,1
653132d03514084477bbd338,fq5zsquv5t,Ex2A_Prolific,1,140,2024-02-28T02:21:58+00:00,3.2923910617828,5,Stim_A.csv,Item.csv,Item,A,jelly,,B10,,,95,JOL,User,1.25,"How likely are you to correctly recall the second item in the pair?|Type your response on a scale from 0-100 and then press Enter.",Bread,B10,2994,,,903,2668,,,,90,1
653132d03514084477bbd338,fq5zsquv5t,Ex2A_Prolific,1,141,2024-02-28T02:22:11+00:00,12.582536935806,5,Stim_A.csv,Item.csv,Item,A,slice,,B11,,,96,JOL,User,1.25,"How likely are you to correctly recall the second item in the pair?|Type your response on a scale from 0-100 and then press Enter.",Bread,B11,12273,,,11819,11974,,,,90,1
653132d03514084477bbd338,fq5zsquv5t,Ex2A_Prolific,1,142,2024-02-28T02:22:13+00:00,2.5341629981995,5,Stim_A.csv,Item.csv,Item,A,milk,,B12,,,97,JOL,User,1.25,"How likely are you to correctly recall the second item in the pair?|Type your response on a scale from 0-100 and then press Enter.",Bread,B12,1888,,,1381,1575,,,,90,1
653132d03514084477bbd338,fq5zsquv5t,Ex2A_Prolific,1,143,2024-02-28T02:22:19+00:00,5.6947810649872,5,Stim_A.csv,Item.csv,Item,A,,,,,,0,Instruct,User,4,"You have completed this section. Please click next.",,Instruct166,5068,,,-1,-1,,,,,1
653132d03514084477bbd338,fq5zsquv5t,Ex2A_Prolific,1,144,2024-02-28T02:22:49+00:00,30.307572126389,5,Stim_A.csv,Item.csv,Item,A,,,,,,0,FreeRecall,30,30,"Please type as many words as you can that begin with the letter ""R"". The computer will automatically advance to the next screen in 30 seconds.",,FILLER,30001,"milk, jam, jelly, toast, loaf, butter, floar, sa",0,1268,29692,0,0,,,1
653132d03514084477bbd338,fq5zsquv5t,Ex2A_Prolific,1,145,2024-02-28T02:22:53+00:00,3.4981210231781,5,Stim_A.csv,Item.csv,Item,A,,,,,,0,Instruct,User,-,"You have completed this section. Please click next.",,Instruct166,3187,,,-1,-1,,,,,1
653132d03514084477bbd338,fq5zsquv5t,Ex2A_Prolific,1,146,2024-02-28T02:22:58+00:00,5.199325799942,5,Stim_A.csv,Item.csv,Item,A,,,,,,0,Instruct,User,4,"You will now complete a memory test for the words you just studied. Please type as many words from the previous list as you can seperated by a comma. Spelling will not count against you and you can recall the words in any order. This test will be timed for one minute, and the computer will automatically advance once time is up. Click next when you are ready to begin.",,Instruct1666,4699,,,-1,-1,,,,,1
653132d03514084477bbd338,fq5zsquv5t,Ex2A_Prolific,1,147,2024-02-28T02:23:59+00:00,61.165989160538,5,Stim_A.csv,Item.csv,Item,A,,,,,,0,FreeRecall,60,60,"Please type as many words as you can from the previous study list in any order. Please separate each word with a comma. Spelling will not count against you. This screen will automatically advance in one minute.",,RECALL_Test,60672,"flour, milk, toast, bread, butter, jam, jelly, sandwich, slice",0,752,28269,0,0,,,0.99
653132d03514084477bbd338,fq5zsquv5t,Ex2A_Prolific,1,148,2024-02-28T02:24:03+00:00,3.9396350383759,5,Stim_A.csv,Item.csv,Item,A,,,,,,0,Instruct,User,3,"You will now be presented with a new study list. Click next when you are ready to begin.",,NEXT_LIST,3613,,,-1,-1,,,,,0.75
653132d03514084477bbd338,fq5zsquv5t,Ex2A_Prolific,1,149,2024-02-28T02:24:07+00:00,4.0778958797455,5,Stim_A.csv,Item.csv,Item,A,banner,,F1,,,98,JOL,User,1.25,"How likely are you to correctly recall the second item in the pair?|Type your response on a scale from 0-100 and then press Enter.",Flag,F1,3685,,,2687,3254,,,,90,1
653132d03514084477bbd338,fq5zsquv5t,Ex2A_Prolific,1,150,2024-02-28T02:24:11+00:00,3.6041879653931,5,Stim_A.csv,Item.csv,Item,A,checkered,,F2,,,99,JOL,User,1.25,"How likely are you to correctly recall the second item in the pair?|Type your response on a scale from 0-100 and then press Enter.",Flag,F2,3216,,,2724,2936,,,,20,1
653132d03514084477bbd338,fq5zsquv5t,Ex2A_Prolific,1,151,2024-02-28T02:24:13+00:00,2.4997110366821,5,Stim_A.csv,Item.csv,Item,A,american,,F3,,,100,JOL,User,1.25,"How likely are you to correctly recall the second item in the pair?|Type your response on a scale from 0-100 and then press Enter.",Flag,F3,1988,,,1436,1751,,,,100,1
653132d03514084477bbd338,fq5zsquv5t,Ex2A_Prolific,1,152,2024-02-28T02:24:16+00:00,2.6258239746094,5,Stim_A.csv,Item.csv,Item,A,stripes,,F4,,,101,JOL,User,1.25,"How likely are you to correctly recall the second item in the pair?|Type your response on a scale from 0-100 and then press Enter.",Flag,F4,2312,,,1543,2003,,,,100,1
653132d03514084477bbd338,fq5zsquv5t,Ex2A_Prolific,1,153,2024-02-28T02:24:30+00:00,14.350265979767,5,Stim_A.csv,Item.csv,Item,A,pole,,F5,,,102,JOL,User,1.25,"How likely are you to correctly recall the second item in the pair?|Type your response on a scale from 0-100 and then press Enter.",Flag,F5,14036,,,13280,13721,,,,70,1
653132d03514084477bbd338,fq5zsquv5t,Ex2A_Prolific,1,154,2024-02-28T02:24:33+00:00,2.450296163559,5,Stim_A.csv,Item.csv,Item,A,anthem,,F6,,,103,JOL,User,1.25,"How likely are you to correctly recall the second item in the pair?|Type your response on a scale from 0-100 and then press Enter.",Flag,F6,2059,,,1504,1821,,,,100,1
653132d03514084477bbd338,fq5zsquv5t,Ex2A_Prolific,1,155,2024-02-28T02:24:36+00:00,3.1800599098206,5,Stim_A.csv,Item.csv,Item,A,emblem,,F7,,,104,JOL,User,1.25,"How likely are you to correctly recall the second item in the pair?|Type your response on a scale from 0-100 and then press Enter.",Flag,F7,2893,,,2175,2508,,,,60,1
653132d03514084477bbd338,fq5zsquv5t,Ex2A_Prolific,1,156,2024-02-28T02:24:38+00:00,2.2164978981018,5,Stim_A.csv,Item.csv,Item,A,national,,F8,,,105,JOL,User,1.25,"How likely are you to correctly recall the second item in the pair?|Type your response on a scale from 0-100 and then press Enter.",Flag,F8,1708,,,1035,1453,,,,100,1
653132d03514084477bbd338,fq5zsquv5t,Ex2A_Prolific,1,157,2024-02-28T02:24:41+00:00,2.4446091651917,5,Stim_A.csv,Item.csv,Item,A,freedom,,F9,,,106,JOL,User,1.25,"How likely are you to correctly recall the second item in the pair?|Type your response on a scale from 0-100 and then press Enter.",Flag,F9,1709,,,1067,1467,,,,100,1
653132d03514084477bbd338,fq5zsquv5t,Ex2A_Prolific,1,158,2024-02-28T02:24:43+00:00,2.0943148136139,5,Stim_A.csv,Item.csv,Item,A,symbol,,F10,,,107,JOL,User,1.25,"How likely are you to correctly recall the second item in the pair?|Type your response on a scale from 0-100 and then press Enter.",Flag,F10,1561,,,947,1283,,,,100,1
653132d03514084477bbd338,fq5zsquv5t,Ex2A_Prolific,1,159,2024-02-28T02:25:04+00:00,21.766950130463,5,Stim_A.csv,Item.csv,Item,A,wave,,F11,,,108,JOL,User,1.25,"How likely are you to correctly recall the second item in the pair?|Type your response on a scale from 0-100 and then press Enter.",Flag,F11,21475,,,20253,20425,,,,89,1
653132d03514084477bbd338,fq5zsquv5t,Ex2A_Prolific,1,160,2024-02-28T02:25:08+00:00,3.1140148639679,5,Stim_A.csv,Item.csv,Item,A,stars,,F12,,,109,JOL,User,1.25,"How likely are you to correctly recall the second item in the pair?|Type your response on a scale from 0-100 and then press Enter.",Flag,F12,2656,,,2099,2401,,,,100,1
653132d03514084477bbd338,fq5zsquv5t,Ex2A_Prolific,1,161,2024-02-28T02:25:15+00:00,7.3665251731873,5,Stim_A.csv,Item.csv,Item,A,,,,,,0,Instruct,User,4,"You have completed this section. Please click next.",,Instruct166,6863,,,-1,-1,,,,,1
653132d03514084477bbd338,fq5zsquv5t,Ex2A_Prolific,1,162,2024-02-28T02:25:46+00:00,30.672258853912,5,Stim_A.csv,Item.csv,Item,A,,,,,,0,FreeRecall,30,30,"Please type as many words as you can that begin with the letter ""C"". The computer will automatically advance to the next screen in 30 seconds.",,FILLER,30001,"anthem, pole, national, stripes, banner, emblem, freedom, sign",0,689,29349,0,0,,,1
653132d03514084477bbd338,fq5zsquv5t,Ex2A_Prolific,1,163,2024-02-28T02:25:51+00:00,4.9558610916138,5,Stim_A.csv,Item.csv,Item,A,,,,,,0,Instruct,User,4,"You have completed this section. Please click next.",,Instruct166,4639,,,-1,-1,,,,,1
653132d03514084477bbd338,fq5zsquv5t,Ex2A_Prolific,1,164,2024-02-28T02:25:56+00:00,5.01740193367,5,Stim_A.csv,Item.csv,Item,A,,,,,,0,Instruct,User,4,"You will now complete a memory test for the words you just studied. Please type as many words from the previous list as you can seperated by a comma. Spelling will not count against you and you can recall the words in any order. This test will be timed for one minute, and the computer will automatically advance once time is up. Click next when you are ready to begin.",,Instruct1666,4555,,,-1,-1,,,,,1
653132d03514084477bbd338,fq5zsquv5t,Ex2A_Prolific,1,165,2024-02-28T02:26:56+00:00,60.639548063278,5,Stim_A.csv,Item.csv,Item,A,,,,,,0,FreeRecall,60,60,"Please type as many words as you can from the previous study list in any order. Please separate each word with a comma. Spelling will not count against you. This screen will automatically advance in one minute.",,RECALL_Test,60327,"wave, emblem, pole, anthem, freedom, America, banner, pole, stripes, national ",0,837,51836,0,0,,,0.997
653132d03514084477bbd338,fq5zsquv5t,Ex2A_Prolific,1,166,2024-02-28T02:27:00+00:00,3.8316860198975,5,Stim_A.csv,Item.csv,Item,A,,,,,,0,Instruct,User,3,"You will now be presented with a new study list. Click next when you are ready to begin.",,NEXT_LIST,3464,,,-1,-1,,,,,0.8
653132d03514084477bbd338,fq5zsquv5t,Ex2A_Prolific,1,167,2024-02-28T02:27:05+00:00,4.7226889133453,5,Stim_A.csv,Item.csv,Item,A,blouse,,SS1,,,110,JOL,User,1.25,"How likely are you to correctly recall the second item in the pair?|Type your response on a scale from 0-100 and then press Enter.",Shirt,SS1,4427,,,3861,4162,,,,40,1
653132d03514084477bbd338,fq5zsquv5t,Ex2A_Prolific,1,168,2024-02-28T02:27:08+00:00,3.1835200786591,5,Stim_A.csv,Item.csv,Item,A,sleeves,,SS2,,,111,JOL,User,1.25,"How likely are you to correctly recall the second item in the pair?|Type your response on a scale from 0-100 and then press Enter.",Shirt,SS2,2821,,,2320,2521,,,,90,1
653132d03514084477bbd338,fq5zsquv5t,Ex2A_Prolific,1,169,2024-02-28T02:27:09+00:00,1.5829858779907,5,Stim_A.csv,Item.csv,Item,A,collar,,SS3,,,112,JOL,User,1.25,"How likely are you to correctly recall the second item in the pair?|Type your response on a scale from 0-100 and then press Enter.",Shirt,SS3,1277,,,796,1003,,,,90,1
653132d03514084477bbd338,fq5zsquv5t,Ex2A_Prolific,1,170,2024-02-28T02:27:12+00:00,2.2256951332092,5,Stim_A.csv,Item.csv,Item,A,shorts,,SS4,,,113,JOL,User,1.25,"How likely are you to correctly recall the second item in the pair?|Type your response on a scale from 0-100 and then press Enter.",Shirt,SS4,1919,,,694,878,,,,90,1
653132d03514084477bbd338,fq5zsquv5t,Ex2A_Prolific,1,171,2024-02-28T02:27:14+00:00,1.9366309642792,5,Stim_A.csv,Item.csv,Item,A,button,,SS5,,,114,JOL,User,1.25,"How likely are you to correctly recall the second item in the pair?|Type your response on a scale from 0-100 and then press Enter.",Shirt,SS5,1377,,,885,1081,,,,90,1
653132d03514084477bbd338,fq5zsquv5t,Ex2A_Prolific,1,172,2024-02-28T02:27:16+00:00,2.1605761051178,5,Stim_A.csv,Item.csv,Item,A,pants,,SS6,,,115,JOL,User,1.25,"How likely are you to correctly recall the second item in the pair?|Type your response on a scale from 0-100 and then press Enter.",Shirt,SS6,1820,,,727,916,,,,90,1
653132d03514084477bbd338,fq5zsquv5t,Ex2A_Prolific,1,173,2024-02-28T02:27:18+00:00,2.6078069210052,5,Stim_A.csv,Item.csv,Item,A,polo,,SS7,,,116,JOL,User,1.25,"How likely are you to correctly recall the second item in the pair?|Type your response on a scale from 0-100 and then press Enter.",Shirt,SS7,1858,,,720,960,,,,90,1
653132d03514084477bbd338,fq5zsquv5t,Ex2A_Prolific,1,174,2024-02-28T02:27:21+00:00,2.209380865097,5,Stim_A.csv,Item.csv,Item,A,jersey,,SS8,,,117,JOL,User,1.25,"How likely are you to correctly recall the second item in the pair?|Type your response on a scale from 0-100 and then press Enter.",Shirt,SS8,1706,,,1067,1494,,,,100,1
653132d03514084477bbd338,fq5zsquv5t,Ex2A_Prolific,1,175,2024-02-28T02:27:23+00:00,2.6445381641388,5,Stim_A.csv,Item.csv,Item,A,vest,,SS9,,,118,JOL,User,1.25,"How likely are you to correctly recall the second item in the pair?|Type your response on a scale from 0-100 and then press Enter.",Shirt,SS9,1732,,,1017,1454,,,,100,1
653132d03514084477bbd338,fq5zsquv5t,Ex2A_Prolific,1,176,2024-02-28T02:27:25+00:00,1.9837558269501,5,Stim_A.csv,Item.csv,Item,A,cuffs,,SS10,,,119,JOL,User,1.25,"How likely are you to correctly recall the second item in the pair?|Type your response on a scale from 0-100 and then press Enter.",Shirt,SS10,1623,,,918,1393,,,,100,1
653132d03514084477bbd338,fq5zsquv5t,Ex2A_Prolific,1,177,2024-02-28T02:27:27+00:00,2.1448900699615,5,Stim_A.csv,Item.csv,Item,A,tie,,SS11,,,120,JOL,User,1.25,"How likely are you to correctly recall the second item in the pair?|Type your response on a scale from 0-100 and then press Enter.",Shirt,SS11,1797,,,566,939,,,,100,1
653132d03514084477bbd338,fq5zsquv5t,Ex2A_Prolific,1,178,2024-02-28T02:27:29+00:00,1.957729101181,5,Stim_A.csv,Item.csv,Item,A,pocket,,SS12,,,121,JOL,User,1.25,"How likely are you to correctly recall the second item in the pair?|Type your response on a scale from 0-100 and then press Enter.",Shirt,SS12,1469,,,579,1101,,,,100,1
653132d03514084477bbd338,fq5zsquv5t,Ex2A_Prolific,1,179,2024-02-28T02:27:30+00:00,1.0600609779358,5,Stim_A.csv,Item.csv,Item,A,,,,,,0,Instruct,User,-,"You have completed this section. Please click next.",,Instruct166,615,,,-1,-1,,,,,1
653132d03514084477bbd338,fq5zsquv5t,Ex2A_Prolific,1,180,2024-02-28T02:28:01+00:00,30.292587995529,5,Stim_A.csv,Item.csv,Item,A,,,,,,0,FreeRecall,30,30,"Please type as many words as you can that begin with the letter ""N"". The computer will automatically advance to the next screen in 30 seconds.",,FILLER,30001,"pocket, tie, blouse, polo, sleeves, cuffs, pocket, ",0,694,28817,0,0,,,1
653132d03514084477bbd338,fq5zsquv5t,Ex2A_Prolific,1,181,2024-02-28T02:28:06+00:00,4.9109020233154,5,Stim_A.csv,Item.csv,Item,A,,,,,,0,Instruct,User,4,"You have completed this section. Please click next.",,Instruct166,4606,,,-1,-1,,,,,0.333
653132d03514084477bbd338,fq5zsquv5t,Ex2A_Prolific,1,182,2024-02-28T02:28:11+00:00,5.2125298976898,5,Stim_A.csv,Item.csv,Item,A,,,,,,0,Instruct,User,4,"You will now complete a memory test for the words you just studied. Please type as many words from the previous list as you can seperated by a comma. Spelling will not count against you and you can recall the words in any order. This test will be timed for one minute, and the computer will automatically advance once time is up. Click next when you are ready to begin.",,Instruct1666,4737,,,-1,-1,,,,,1
653132d03514084477bbd338,fq5zsquv5t,Ex2A_Prolific,1,183,2024-02-28T02:29:11+00:00,60.534979104996,5,Stim_A.csv,Item.csv,Item,A,,,,,,0,FreeRecall,60,60,"Please type as many words as you can from the previous study list in any order. Please separate each word with a comma. Spelling will not count against you. This screen will automatically advance in one minute.",,RECALL_Test,60001,"pocket, blouse, tie, collar, cuffs, sleeves, polo, pocket",0,976,25103,0,0,,,0.983
653132d03514084477bbd338,fq5zsquv5t,Ex2A_Prolific,1,184,2024-02-28T02:29:13+00:00,1.7967400550842,5,Stim_A.csv,Item.csv,Item,A,,,,,,0,Instruct,User,-,"You have completed this section. Please click next.",,Instruct7,1329,,,-1,-1,,,,,1
653132d03514084477bbd338,fq5zsquv5t,Ex2A_Prolific,1,185,2024-02-28T02:29:16+00:00,2.6332387924194,5,Stim_A.csv,Item.csv,Item,A,,,,,,0,Instruct,User,-,"The following screen will ask you a few questions abour your experience today. You must complete these questions to receive credit.",,Instruct8,2190,,,-1,-1,,,,,1
