Username,ID,ExperimentName,Session,Trial,Date,TimeDif,"Condition Number","Stimuli File","Order File","Condition Description","Condition Notes",Stimuli*Cue,Stimuli*Answer,Stimuli*Shuffle,"Stimuli*Stimuli Notes",Stimuli*Value,Procedure*Item,"Procedure*Trial Type","Procedure*Max Time","Procedure*Min Time",Procedure*Text,"Procedure*Procedure Notes",Procedure*Shuffle,Procedure*,Response*RT,Response*Response,Response*Accuracy,Response*RTfirst,Response*RTlast,Response*strictAcc,Response*lenientAcc,Response*focus,Response*JOL,Response*Focus
M20321343!,he3vsy1w91,"DRM Reactivity 1_MSU",1,1,2023-10-25T22:28:26+00:00,152.50042009354,3,Stim_A.csv,G_JOL_B.csv,"Global C",Global,,,,,,0,Instruct,User,5,"In this section, you will be presented with a series of words. Please study each word carefully. Your memory will be tested! Click next to continue.",Initial_Instruct,Instruct1,,152320,,,-1,-1,,,,,1
M20321343!,he3vsy1w91,"DRM Reactivity 1_MSU",1,2,2023-10-25T22:28:56+00:00,30.274571895599,3,Stim_A.csv,G_JOL_B.csv,"Global C",Global,,,,,,0,Instruct,User,10,"Your memory will now be tested. You will be presented with a series of words. If the word on the screen was previously studied, please select YES. If the word was not studied, select NO. PLEASE DO NOT SKIP ITEMS! Click next when you are ready to begin.",,,,30126,,,-1,-1,,,,,1
M20321343!,he3vsy1w91,"DRM Reactivity 1_MSU",1,3,2023-10-25T22:29:01+00:00,4.8605329990387,3,Stim_A.csv,G_JOL_B.csv,"Global C",Global,,,,,,0,Instruct,User,-,"You will now begin the study. Click next when you are ready to begin.",,Instruct16,,4717,,,-1,-1,,,,,1
M20321343!,he3vsy1w91,"DRM Reactivity 1_MSU",1,4,2023-10-25T22:29:05+00:00,3.8190331459045,3,Stim_A.csv,G_JOL_B.csv,"Global C",Global,Glacier,Glacier,R1,Related,12,11,Study,User,-,,Unrelated,U1,,3689,,,-1,-1,,,,,1
M20321343!,he3vsy1w91,"DRM Reactivity 1_MSU",1,5,2023-10-25T22:29:07+00:00,2.2129437923431,3,Stim_A.csv,G_JOL_B.csv,"Global C",Global,Volcano,Volcano,R1,Related,4,13,Study,User,-,,Unrelated,U1,,2074,,,-1,-1,,,,,1
M20321343!,he3vsy1w91,"DRM Reactivity 1_MSU",1,6,2023-10-25T22:29:09+00:00,1.7852602005005,3,Stim_A.csv,G_JOL_B.csv,"Global C",Global,Canyon,Canyon,R1,Related,3,2,Study,User,-,,Unrelated,U1,,1646,,,-1,-1,,,,,1
M20321343!,he3vsy1w91,"DRM Reactivity 1_MSU",1,7,2023-10-25T22:29:10+00:00,1.4249958992004,3,Stim_A.csv,G_JOL_B.csv,"Global C",Global,Mountain,Mountain,R1,Related,7,10,Study,User,-,,Unrelated,U1,,1288,,,-1,-1,,,,,1
M20321343!,he3vsy1w91,"DRM Reactivity 1_MSU",1,8,2023-10-25T22:29:12+00:00,1.6928091049194,3,Stim_A.csv,G_JOL_B.csv,"Global C",Global,Hill,Hill,R1,Related,6,4,Study,User,-,,Unrelated,U1,,1557,,,-1,-1,,,,,1
M20321343!,he3vsy1w91,"DRM Reactivity 1_MSU",1,9,2023-10-25T22:29:14+00:00,1.8636248111725,3,Stim_A.csv,G_JOL_B.csv,"Global C",Global,Ocean,Ocean,R1,Related,8,8,Study,User,-,,Unrelated,U1,,1728,,,-1,-1,,,,,1
M20321343!,he3vsy1w91,"DRM Reactivity 1_MSU",1,10,2023-10-25T22:29:16+00:00,1.8698461055756,3,Stim_A.csv,G_JOL_B.csv,"Global C",Global,Cave,Cave,R1,Related,11,7,Study,User,-,,Unrelated,U1,,1739,,,-1,-1,,,,,1
M20321343!,he3vsy1w91,"DRM Reactivity 1_MSU",1,11,2023-10-25T22:29:17+00:00,1.8054640293121,3,Stim_A.csv,G_JOL_B.csv,"Global C",Global,Rock,Rock,R1,Related,5,3,Study,User,-,,Unrelated,U1,,1667,,,-1,-1,,,,,1
M20321343!,he3vsy1w91,"DRM Reactivity 1_MSU",1,12,2023-10-25T22:29:19+00:00,1.7461969852448,3,Stim_A.csv,G_JOL_B.csv,"Global C",Global,Island,Island,R1,Related,9,5,Study,User,-,,Unrelated,U1,,1612,,,-1,-1,,,,,1
M20321343!,he3vsy1w91,"DRM Reactivity 1_MSU",1,13,2023-10-25T22:29:21+00:00,2.0025229454041,3,Stim_A.csv,G_JOL_B.csv,"Global C",Global,Lake,Lake,R1,Related,10,6,Study,User,-,,Unrelated,U1,,1862,,,-1,-1,,,,,1
M20321343!,he3vsy1w91,"DRM Reactivity 1_MSU",1,14,2023-10-25T22:29:24+00:00,3.0009770393372,3,Stim_A.csv,G_JOL_B.csv,"Global C",Global,Valley,Valley,R1,Related,1,9,Study,User,-,,Unrelated,U1,,2798,,,-1,-1,,,,,1
M20321343!,he3vsy1w91,"DRM Reactivity 1_MSU",1,15,2023-10-25T22:29:27+00:00,2.9492900371552,3,Stim_A.csv,G_JOL_B.csv,"Global C",Global,River,River,R1,Related,2,12,Study,User,-,,Unrelated,U1,,2806,,,-1,-1,,,,,1
M20321343!,he3vsy1w91,"DRM Reactivity 1_MSU",1,16,2023-10-25T22:29:29+00:00,2.4220678806305,3,Stim_A.csv,G_JOL_B.csv,"Global C",Global,,,,,,0,Instruct,User,-,"You have completed this section. Please click next to continue.",,Next_List1,,2282,,,-1,-1,,,,,1
M20321343!,he3vsy1w91,"DRM Reactivity 1_MSU",1,17,2023-10-25T22:29:54+00:00,24.927117109299,3,Stim_A.csv,G_JOL_B.csv,"Global C",Global,,,,,,0,JOL_GLOBAL,User,2.5,"How likely are you to correctly recall each of the items you just studied?|Type your response on a scale from 0-100 and then press Enter (0 = WILL NOT REMEMBER; 100 = DEFINITELY WILL REMEMBER).",Unrelated,JOL2,,24775,,,22383,23107,,,,50,1
M20321343!,he3vsy1w91,"DRM Reactivity 1_MSU",1,18,2023-10-25T22:29:58+00:00,3.9809339046478,3,Stim_A.csv,G_JOL_B.csv,"Global C",Global,,,,,,0,Instruct,User,2.5,"You will now be presented with a new study list. Click next when you are ready to begin.",,NEXT_LIST,,3836,,,-1,-1,,,,,1
M20321343!,he3vsy1w91,"DRM Reactivity 1_MSU",1,19,2023-10-25T22:30:01+00:00,2.2907011508942,3,Stim_A.csv,G_JOL_B.csv,"Global C",Global,Hockey,Hockey,U1,Unrelated,16,15,Study,User,-,,Related,R1,,2155,,,-1,-1,,,,,1
M20321343!,he3vsy1w91,"DRM Reactivity 1_MSU",1,20,2023-10-25T22:30:02+00:00,0.99430799484253,3,Stim_A.csv,G_JOL_B.csv,"Global C",Global,Jeep,Jeep,U1,Unrelated,23,18,Study,User,-,,Related,R1,,849,,,-1,-1,,,,,1
M20321343!,he3vsy1w91,"DRM Reactivity 1_MSU",1,21,2023-10-25T22:30:03+00:00,1.8616650104523,3,Stim_A.csv,G_JOL_B.csv,"Global C",Global,Rifle,Rifle,U1,Unrelated,13,17,Study,User,-,,Related,R1,,1716,,,-1,-1,,,,,1
M20321343!,he3vsy1w91,"DRM Reactivity 1_MSU",1,22,2023-10-25T22:30:05+00:00,1.1069278717041,3,Stim_A.csv,G_JOL_B.csv,"Global C",Global,Milk,Milk,U1,Unrelated,22,23,Study,User,-,,Related,R1,,971,,,-1,-1,,,,,1
M20321343!,he3vsy1w91,"DRM Reactivity 1_MSU",1,23,2023-10-25T22:30:06+00:00,1.3068830966949,3,Stim_A.csv,G_JOL_B.csv,"Global C",Global,Student,Student,U1,Unrelated,15,24,Study,User,-,,Related,R1,,1172,,,-1,-1,,,,,1
M20321343!,he3vsy1w91,"DRM Reactivity 1_MSU",1,24,2023-10-25T22:30:07+00:00,1.4523859024048,3,Stim_A.csv,G_JOL_B.csv,"Global C",Global,Guitar,Guitar,U1,Unrelated,19,22,Study,User,-,,Related,R1,,1311,,,-1,-1,,,,,1
M20321343!,he3vsy1w91,"DRM Reactivity 1_MSU",1,25,2023-10-25T22:30:09+00:00,1.309916973114,3,Stim_A.csv,G_JOL_B.csv,"Global C",Global,Parrot,Parrot,U1,Unrelated,21,14,Study,User,-,,Related,R1,,1167,,,-1,-1,,,,,1
M20321343!,he3vsy1w91,"DRM Reactivity 1_MSU",1,26,2023-10-25T22:30:10+00:00,1.0540261268616,3,Stim_A.csv,G_JOL_B.csv,"Global C",Global,Dollar,Dollar,U1,Unrelated,20,19,Study,User,-,,Related,R1,,916,,,-1,-1,,,,,1
M20321343!,he3vsy1w91,"DRM Reactivity 1_MSU",1,27,2023-10-25T22:30:11+00:00,1.2224178314209,3,Stim_A.csv,G_JOL_B.csv,"Global C",Global,Oxygen,Oxygen,U1,Unrelated,18,21,Study,User,-,,Related,R1,,1034,,,-1,-1,,,,,1
M20321343!,he3vsy1w91,"DRM Reactivity 1_MSU",1,28,2023-10-25T22:30:12+00:00,1.2085671424866,3,Stim_A.csv,G_JOL_B.csv,"Global C",Global,Ballet,Ballet,U1,Unrelated,24,25,Study,User,-,,Related,R1,,1071,,,-1,-1,,,,,1
M20321343!,he3vsy1w91,"DRM Reactivity 1_MSU",1,29,2023-10-25T22:30:13+00:00,1.132385969162,3,Stim_A.csv,G_JOL_B.csv,"Global C",Global,Pants,Pants,U1,Unrelated,17,16,Study,User,-,,Related,R1,,986,,,-1,-1,,,,,1
M20321343!,he3vsy1w91,"DRM Reactivity 1_MSU",1,30,2023-10-25T22:30:15+00:00,1.4639990329742,3,Stim_A.csv,G_JOL_B.csv,"Global C",Global,Mayor,Mayor,U1,Unrelated,14,20,Study,User,-,,Related,R1,,1320,,,-1,-1,,,,,1
M20321343!,he3vsy1w91,"DRM Reactivity 1_MSU",1,31,2023-10-25T22:30:17+00:00,1.8813970088959,3,Stim_A.csv,G_JOL_B.csv,"Global C",Global,,,,,,0,Instruct,User,-,"You have completed this section. Please click next to continue.",,Next_List1,,1739,,,-1,-1,,,,,1
M20321343!,he3vsy1w91,"DRM Reactivity 1_MSU",1,32,2023-10-25T22:30:27+00:00,10.440505027771,3,Stim_A.csv,G_JOL_B.csv,"Global C",Global,,,,,,0,JOL_GLOBAL,User,2.5,"How likely are you to correctly recall each of the items you just studied?|Type your response on a scale from 0-100 and then press Enter (0 = WILL NOT REMEMBER; 100 = DEFINITELY WILL REMEMBER).",Related,JOL1,,10223,,,6399,7016,,,,50,1
M20321343!,he3vsy1w91,"DRM Reactivity 1_MSU",1,33,2023-10-25T22:30:31+00:00,3.6176118850708,3,Stim_A.csv,G_JOL_B.csv,"Global C",Global,,,,,,0,Instruct,User,2.5,"You will now be presented with a new study list. Click next when you are ready to begin.",,NEXT_LIST,,3479,,,-1,-1,,,,,1
M20321343!,he3vsy1w91,"DRM Reactivity 1_MSU",1,34,2023-10-25T22:30:32+00:00,1.1412191390991,3,Stim_A.csv,G_JOL_B.csv,"Global C",Global,Goat,Goat,R2,Related,30,33,Study,User,-,,Unrelated,U2,,1007,,,-1,-1,,,,,1
M20321343!,he3vsy1w91,"DRM Reactivity 1_MSU",1,35,2023-10-25T22:30:33+00:00,0.90539288520813,3,Stim_A.csv,G_JOL_B.csv,"Global C",Global,Cow,Cow,R2,Related,36,30,Study,User,-,,Unrelated,U2,,768,,,-1,-1,,,,,1
M20321343!,he3vsy1w91,"DRM Reactivity 1_MSU",1,36,2023-10-25T22:30:34+00:00,0.90293312072754,3,Stim_A.csv,G_JOL_B.csv,"Global C",Global,Donkey,Donkey,R2,Related,34,28,Study,User,-,,Unrelated,U2,,746,,,-1,-1,,,,,1
M20321343!,he3vsy1w91,"DRM Reactivity 1_MSU",1,37,2023-10-25T22:30:35+00:00,1.1048138141632,3,Stim_A.csv,G_JOL_B.csv,"Global C",Global,Cheetah,Cheetah,R2,Related,28,31,Study,User,-,,Unrelated,U2,,955,,,-1,-1,,,,,1
M20321343!,he3vsy1w91,"DRM Reactivity 1_MSU",1,38,2023-10-25T22:30:36+00:00,0.98191118240356,3,Stim_A.csv,G_JOL_B.csv,"Global C",Global,Girraffe,Girraffe,R2,Related,31,34,Study,User,-,,Unrelated,U2,,851,,,-1,-1,,,,,1
M20321343!,he3vsy1w91,"DRM Reactivity 1_MSU",1,39,2023-10-25T22:30:37+00:00,1.0925068855286,3,Stim_A.csv,G_JOL_B.csv,"Global C",Global,Elephant,Elephant,R2,Related,32,37,Study,User,-,,Unrelated,U2,,956,,,-1,-1,,,,,1
M20321343!,he3vsy1w91,"DRM Reactivity 1_MSU",1,40,2023-10-25T22:30:38+00:00,1.0172729492188,3,Stim_A.csv,G_JOL_B.csv,"Global C",Global,Zebra,Zebra,R2,Related,27,36,Study,User,-,,Unrelated,U2,,879,,,-1,-1,,,,,1
M20321343!,he3vsy1w91,"DRM Reactivity 1_MSU",1,41,2023-10-25T22:30:39+00:00,0.98811507225037,3,Stim_A.csv,G_JOL_B.csv,"Global C",Global,Wolf,Wolf,R2,Related,29,26,Study,User,-,,Unrelated,U2,,857,,,-1,-1,,,,,1
M20321343!,he3vsy1w91,"DRM Reactivity 1_MSU",1,42,2023-10-25T22:30:40+00:00,1.0794730186462,3,Stim_A.csv,G_JOL_B.csv,"Global C",Global,Lion,Lion,R2,Related,26,29,Study,User,-,,Unrelated,U2,,944,,,-1,-1,,,,,1
M20321343!,he3vsy1w91,"DRM Reactivity 1_MSU",1,43,2023-10-25T22:30:41+00:00,1.0399160385132,3,Stim_A.csv,G_JOL_B.csv,"Global C",Global,Tiger,Tiger,R2,Related,25,32,Study,User,-,,Unrelated,U2,,907,,,-1,-1,,,,,1
M20321343!,he3vsy1w91,"DRM Reactivity 1_MSU",1,44,2023-10-25T22:30:42+00:00,1.016077041626,3,Stim_A.csv,G_JOL_B.csv,"Global C",Global,Bear,Bear,R2,Related,35,27,Study,User,-,,Unrelated,U2,,877,,,-1,-1,,,,,1
M20321343!,he3vsy1w91,"DRM Reactivity 1_MSU",1,45,2023-10-25T22:30:43+00:00,0.82854986190796,3,Stim_A.csv,G_JOL_B.csv,"Global C",Global,Cat,Cat,R2,Related,33,35,Study,User,-,,Unrelated,U2,,687,,,-1,-1,,,,,1
M20321343!,he3vsy1w91,"DRM Reactivity 1_MSU",1,46,2023-10-25T22:30:44+00:00,1.3196620941162,3,Stim_A.csv,G_JOL_B.csv,"Global C",Global,,,,,,0,Instruct,User,-,"You have completed this section. Please click next to continue.",,Next_List1,,1182,,,-1,-1,,,,,1
M20321343!,he3vsy1w91,"DRM Reactivity 1_MSU",1,47,2023-10-25T22:30:49+00:00,4.4193799495697,3,Stim_A.csv,G_JOL_B.csv,"Global C",Global,,,,,,0,JOL_GLOBAL,User,2.5,"How likely are you to correctly recall each of the items you just studied?|Type your response on a scale from 0-100 and then press Enter (0 = WILL NOT REMEMBER; 100 = DEFINITELY WILL REMEMBER).",Unrelated,JOL4,,4277,,,2144,2628,,,,60,1
M20321343!,he3vsy1w91,"DRM Reactivity 1_MSU",1,48,2023-10-25T22:30:53+00:00,4.4685070514679,3,Stim_A.csv,G_JOL_B.csv,"Global C",Global,,,,,,0,Instruct,User,2.5,"You will now be presented with a new study list. Click next when you are ready to begin.",,NEXT_LIST,,4334,,,-1,-1,,,,,1
M20321343!,he3vsy1w91,"DRM Reactivity 1_MSU",1,49,2023-10-25T22:30:54+00:00,1.4838049411774,3,Stim_A.csv,G_JOL_B.csv,"Global C",Global,Tea,Tea,U2,Unrelated,45,48,Study,User,-,,Related,R2,,1268,,,-1,-1,,,,,1
M20321343!,he3vsy1w91,"DRM Reactivity 1_MSU",1,50,2023-10-25T22:30:55+00:00,0.88669800758362,3,Stim_A.csv,G_JOL_B.csv,"Global C",Global,Computer,Computer,U2,Unrelated,47,47,Study,User,-,,Related,R2,,748,,,-1,-1,,,,,1
M20321343!,he3vsy1w91,"DRM Reactivity 1_MSU",1,51,2023-10-25T22:30:56+00:00,0.96588087081909,3,Stim_A.csv,G_JOL_B.csv,"Global C",Global,Lipstick,Lipstick,U2,Unrelated,46,46,Study,User,-,,Related,R2,,829,,,-1,-1,,,,,1
M20321343!,he3vsy1w91,"DRM Reactivity 1_MSU",1,52,2023-10-25T22:30:57+00:00,0.98093318939209,3,Stim_A.csv,G_JOL_B.csv,"Global C",Global,Blue,Blue,U2,Unrelated,41,40,Study,User,-,,Related,R2,,840,,,-1,-1,,,,,1
M20321343!,he3vsy1w91,"DRM Reactivity 1_MSU",1,53,2023-10-25T22:30:58+00:00,1.1267449855804,3,Stim_A.csv,G_JOL_B.csv,"Global C",Global,Tulip,Tulip,U2,Unrelated,39,38,Study,User,-,,Related,R2,,931,,,-1,-1,,,,,1
M20321343!,he3vsy1w91,"DRM Reactivity 1_MSU",1,54,2023-10-25T22:30:59+00:00,0.95672082901001,3,Stim_A.csv,G_JOL_B.csv,"Global C",Global,Shark,Shark,U2,Unrelated,43,44,Study,User,-,,Related,R2,,816,,,-1,-1,,,,,1
M20321343!,he3vsy1w91,"DRM Reactivity 1_MSU",1,55,2023-10-25T22:31:00+00:00,0.97467803955078,3,Stim_A.csv,G_JOL_B.csv,"Global C",Global,Eye,Eye,U2,Unrelated,48,49,Study,User,-,,Related,R2,,837,,,-1,-1,,,,,1
M20321343!,he3vsy1w91,"DRM Reactivity 1_MSU",1,56,2023-10-25T22:31:02+00:00,1.1880121231079,3,Stim_A.csv,G_JOL_B.csv,"Global C",Global,Viper,Viper,U2,Unrelated,44,39,Study,User,-,,Related,R2,,1045,,,-1,-1,,,,,1
M20321343!,he3vsy1w91,"DRM Reactivity 1_MSU",1,57,2023-10-25T22:31:03+00:00,0.99270486831665,3,Stim_A.csv,G_JOL_B.csv,"Global C",Global,Fly,Fly,U2,Unrelated,38,42,Study,User,-,,Related,R2,,841,,,-1,-1,,,,,1
M20321343!,he3vsy1w91,"DRM Reactivity 1_MSU",1,58,2023-10-25T22:31:04+00:00,1.1626801490784,3,Stim_A.csv,G_JOL_B.csv,"Global C",Global,Sandal,Sandal,U2,Unrelated,37,43,Study,User,-,,Related,R2,,944,,,-1,-1,,,,,1
M20321343!,he3vsy1w91,"DRM Reactivity 1_MSU",1,59,2023-10-25T22:31:05+00:00,0.94296193122864,3,Stim_A.csv,G_JOL_B.csv,"Global C",Global,Cruise,Cruise,U2,Unrelated,42,45,Study,User,-,,Related,R2,,805,,,-1,-1,,,,,1
M20321343!,he3vsy1w91,"DRM Reactivity 1_MSU",1,60,2023-10-25T22:31:06+00:00,0.98201107978821,3,Stim_A.csv,G_JOL_B.csv,"Global C",Global,Cold,Cold,U2,Unrelated,40,41,Study,User,-,,Related,R2,,845,,,-1,-1,,,,,1
M20321343!,he3vsy1w91,"DRM Reactivity 1_MSU",1,61,2023-10-25T22:31:07+00:00,1.2979559898376,3,Stim_A.csv,G_JOL_B.csv,"Global C",Global,,,,,,0,Instruct,User,-,"You have completed this section. Please click next to continue.",,Next_List1,,1158,,,-1,-1,,,,,1
M20321343!,he3vsy1w91,"DRM Reactivity 1_MSU",1,62,2023-10-25T22:31:10+00:00,3.4692099094391,3,Stim_A.csv,G_JOL_B.csv,"Global C",Global,,,,,,0,JOL_GLOBAL,User,2.5,"How likely are you to correctly recall each of the items you just studied?|Type your response on a scale from 0-100 and then press Enter (0 = WILL NOT REMEMBER; 100 = DEFINITELY WILL REMEMBER).",Related,JOL3,,3333,,,698,1317,,,,30,1
M20321343!,he3vsy1w91,"DRM Reactivity 1_MSU",1,63,2023-10-25T22:31:12+00:00,1.8561069965363,3,Stim_A.csv,G_JOL_B.csv,"Global C",Global,,,,,,0,Instruct,User,-,"You have completed this section. Please click next.",,Instruct166,,1728,,,-1,-1,,,,,1
M20321343!,he3vsy1w91,"DRM Reactivity 1_MSU",1,64,2023-10-25T22:33:12+00:00,120.23964500427,3,Stim_A.csv,G_JOL_B.csv,"Global C",Global,,,,,,0,FreeRecall,120,120,"Please list the 50 US States in alphabetical order. The computer will automatically advance to the next screen in 2 minutes.",,FILLER,,120005,"Alabama Alaska Arizona ",0,37080,74923,0,0,,,1
M20321343!,he3vsy1w91,"DRM Reactivity 1_MSU",1,65,2023-10-25T22:33:17+00:00,4.6930410861969,3,Stim_A.csv,G_JOL_B.csv,"Global C",Global,,,,,,0,Instruct,User,2.5,"You have completed this section. Please click next.",,Instruct166,,4550,,,-1,-1,,,,,1
M20321343!,he3vsy1w91,"DRM Reactivity 1_MSU",1,66,2023-10-25T22:33:28+00:00,11.306746959686,3,Stim_A.csv,G_JOL_B.csv,"Global C",Global,,,,,,0,Instruct,User,5,"After studying each set of words, you will be asked to rate your ability to remember all of the words on a later test. You will make these ratings using a scale of 0 to 100. A rating of 0 = WILL NOT REMEMBER, while a rating of 100 = WILL DEFINITELY REMEMBER. Please try to be as accurate as possible with these ratings!",,,,11159,,,-1,-1,,,,,1
M20321343!,he3vsy1w91,"DRM Reactivity 1_MSU",1,67,2023-10-25T22:33:40+00:00,11.85723400116,3,Stim_A.csv,G_JOL_B.csv,"Global C",Global,Document,Document,Recog,Control,63,98,Likert,User,1,"Was this item previously studied?","List Item Control",Recog,1::2,11446,NO,20,-1,-1,0,0,,,1
M20321343!,he3vsy1w91,"DRM Reactivity 1_MSU",1,68,2023-10-25T22:33:46+00:00,5.8696510791779,3,Stim_A.csv,G_JOL_B.csv,"Global C",Global,Hawk,Hawk,Recog,Control,72,123,Likert,User,1,"Was this item previously studied?","Critical Lure Control",Recog,1::2,5718,NO,0,-1,-1,0,0,,,1
M20321343!,he3vsy1w91,"DRM Reactivity 1_MSU",1,69,2023-10-25T22:33:49+00:00,3.1788148880005,3,Stim_A.csv,G_JOL_B.csv,"Global C",Global,Parrot,Parrot,Recog,Presented,117,141,Likert,User,1,"Was this item previously studied?","Critical Lure Control",Recog,1::2,3038,YES,0,-1,-1,0,0,,,1
M20321343!,he3vsy1w91,"DRM Reactivity 1_MSU",1,70,2023-10-25T22:33:53+00:00,3.4709079265594,3,Stim_A.csv,G_JOL_B.csv,"Global C",Global,Door,Door,Recog,Control,78,115,Likert,User,1,"Was this item previously studied?","List Item Control",Recog,1::2,3324,NO,33.333333333333,-1,-1,0,0,,,1
M20321343!,he3vsy1w91,"DRM Reactivity 1_MSU",1,71,2023-10-25T22:33:56+00:00,2.7519271373749,3,Stim_A.csv,G_JOL_B.csv,"Global C",Global,Cat,Cat,Recog,Presented,129,58,Likert,User,1,"Was this item previously studied?","List Item Sans F",Recog,1::2,2609,YES,0,-1,-1,0,0,,,1
M20321343!,he3vsy1w91,"DRM Reactivity 1_MSU",1,72,2023-10-25T22:33:59+00:00,3.4779829978943,3,Stim_A.csv,G_JOL_B.csv,"Global C",Global,Plum,Plum,Recog,Control,57,133,Likert,User,1,"Was this item previously studied?","Critical Lure Control",Recog,1::2,3338,NO,0,-1,-1,0,0,,,1
M20321343!,he3vsy1w91,"DRM Reactivity 1_MSU",1,73,2023-10-25T22:34:02+00:00,3.0639328956604,3,Stim_A.csv,G_JOL_B.csv,"Global C",Global,Blue,Blue,Recog,Presented,137,108,Likert,User,1,"Was this item previously studied?","List Item Control",Recog,1::2,2926,YES,28.571428571429,-1,-1,0,0,,,1
M20321343!,he3vsy1w91,"DRM Reactivity 1_MSU",1,74,2023-10-25T22:34:06+00:00,3.8692979812622,3,Stim_A.csv,G_JOL_B.csv,"Global C",Global,Rock,Rock,Recog,Presented,101,127,Likert,User,1,"Was this item previously studied?","Critical Lure Control",Recog,1::2,3721,YES,0,-1,-1,0,0,,,1
M20321343!,he3vsy1w91,"DRM Reactivity 1_MSU",1,75,2023-10-25T22:34:09+00:00,3.147999048233,3,Stim_A.csv,G_JOL_B.csv,"Global C",Global,Stairs,Stairs,Recog,Control,80,61,Likert,User,1,"Was this item previously studied?","List Item Standard F",Recog,1::2,3005,NO,0,-1,-1,0,0,,,1
M20321343!,he3vsy1w91,"DRM Reactivity 1_MSU",1,76,2023-10-25T22:34:15+00:00,5.6733031272888,3,Stim_A.csv,G_JOL_B.csv,"Global C",Global,Cloud,Cloud,Recog,Control,88,100,Likert,User,1,"Was this item previously studied?","List Item Control",Recog,1::2,5521,NO,28.571428571429,-1,-1,0,0,,,1
M20321343!,he3vsy1w91,"DRM Reactivity 1_MSU",1,77,2023-10-25T22:34:18+00:00,3.0805249214172,3,Stim_A.csv,G_JOL_B.csv,"Global C",Global,Island,Island,Recog,Presented,105,64,Likert,User,1,"Was this item previously studied?","List Item Sans F",Recog,1::2,2935,YES,22.222222222222,-1,-1,0,0,,,1
M20321343!,he3vsy1w91,"DRM Reactivity 1_MSU",1,78,2023-10-25T22:34:21+00:00,3.1211688518524,3,Stim_A.csv,G_JOL_B.csv,"Global C",Global,Salt,Salt,Recog,Control,87,74,Likert,User,1,"Was this item previously studied?","List Item Sans F",Recog,1::2,2902,NO,0,-1,-1,0,0,,,1
M20321343!,he3vsy1w91,"DRM Reactivity 1_MSU",1,79,2023-10-25T22:34:24+00:00,3.1537301540375,3,Stim_A.csv,G_JOL_B.csv,"Global C",Global,Jeep,Jeep,Recog,Presented,119,144,Likert,User,1,"Was this item previously studied?","Critical Lure Control",Recog,1::2,3005,YES,28.571428571429,-1,-1,0,0,,,1
M20321343!,he3vsy1w91,"DRM Reactivity 1_MSU",1,80,2023-10-25T22:34:27+00:00,3.0423328876495,3,Stim_A.csv,G_JOL_B.csv,"Global C",Global,Cave,Cave,Recog,Presented,107,130,Likert,User,1,"Was this item previously studied?","Critical Lure Control",Recog,1::2,2894,YES,28.571428571429,-1,-1,0,0,,,1
M20321343!,he3vsy1w91,"DRM Reactivity 1_MSU",1,81,2023-10-25T22:34:30+00:00,2.8247950077057,3,Stim_A.csv,G_JOL_B.csv,"Global C",Global,Yellow,Yellow,Recog,Control,67,56,Likert,User,1,"Was this item previously studied?","List Item Sans F",Recog,1::2,2684,NO,25,-1,-1,0,0,,,1
M20321343!,he3vsy1w91,"DRM Reactivity 1_MSU",1,82,2023-10-25T22:34:34+00:00,3.437518119812,3,Stim_A.csv,G_JOL_B.csv,"Global C",Global,Cow,Cow,Recog,Presented,132,88,Likert,User,1,"Was this item previously studied?","Critical Lure Sans F",Recog,1::2,3288,YES,0,-1,-1,0,0,,,1
M20321343!,he3vsy1w91,"DRM Reactivity 1_MSU",1,83,2023-10-25T22:34:37+00:00,3.2427289485931,3,Stim_A.csv,G_JOL_B.csv,"Global C",Global,Student,Student,Recog,Presented,111,128,Likert,User,1,"Was this item previously studied?","Critical Lure Control",Recog,1::2,3084,YES,20,-1,-1,0,0,,,1
M20321343!,he3vsy1w91,"DRM Reactivity 1_MSU",1,84,2023-10-25T22:34:41+00:00,3.91130900383,3,Stim_A.csv,G_JOL_B.csv,"Global C",Global,Frog,Frog,Recog,Control,61,50,Likert,User,1,"Was this item previously studied?","List Item Sans F",Recog,1::2,3696,NO,33.333333333333,-1,-1,0,0,,,1
M20321343!,he3vsy1w91,"DRM Reactivity 1_MSU",1,85,2023-10-25T22:34:45+00:00,3.8807199001312,3,Stim_A.csv,G_JOL_B.csv,"Global C",Global,Girraffe,Girraffe,Recog,Presented,127,106,Likert,User,1,"Was this item previously studied?","List Item Control",Recog,1::2,3735,NO,0,-1,-1,0,0,,,1
M20321343!,he3vsy1w91,"DRM Reactivity 1_MSU",1,86,2023-10-25T22:34:48+00:00,3.217246055603,3,Stim_A.csv,G_JOL_B.csv,"Global C",Global,Cheetah,Cheetah,Recog,Presented,124,111,Likert,User,1,"Was this item previously studied?","List Item Control",Recog,1::2,3017,YES,20,-1,-1,0,0,,,1
M20321343!,he3vsy1w91,"DRM Reactivity 1_MSU",1,87,2023-10-25T22:34:52+00:00,3.880007982254,3,Stim_A.csv,G_JOL_B.csv,"Global C",Global,Slow,Slow,Recog,Control,71,113,Likert,User,1,"Was this item previously studied?","List Item Control",Recog,1::2,3638,NO,33.333333333333,-1,-1,0,0,,,1
M20321343!,he3vsy1w91,"DRM Reactivity 1_MSU",1,88,2023-10-25T22:34:54+00:00,2.8310151100159,3,Stim_A.csv,G_JOL_B.csv,"Global C",Global,Shirt,Shirt,Recog,Control,66,80,Likert,User,1,"Was this item previously studied?","Critical Lure Sans F",Recog,1::2,2684,NO,0,-1,-1,0,0,,,1
M20321343!,he3vsy1w91,"DRM Reactivity 1_MSU",1,89,2023-10-25T22:34:58+00:00,3.2550008296967,3,Stim_A.csv,G_JOL_B.csv,"Global C",Global,Ballet,Ballet,Recog,Presented,120,51,Likert,User,1,"Was this item previously studied?","List Item Sans F",Recog,1::2,3108,YES,22.222222222222,-1,-1,0,0,,,1
M20321343!,he3vsy1w91,"DRM Reactivity 1_MSU",1,90,2023-10-25T22:35:01+00:00,3.434504032135,3,Stim_A.csv,G_JOL_B.csv,"Global C",Global,Dirt,Dirt,Recog,Control,64,118,Likert,User,1,"Was this item previously studied?","List Item Control",Recog,1::2,3288,YES,0,-1,-1,0,0,,,1
M20321343!,he3vsy1w91,"DRM Reactivity 1_MSU",1,91,2023-10-25T22:35:04+00:00,3.2358121871948,3,Stim_A.csv,G_JOL_B.csv,"Global C",Global,Cherry,Cherry,Recog,Control,59,91,Likert,User,1,"Was this item previously studied?","List Item Control",Recog,1::2,3055,NO,0,-1,-1,0,0,,,1
M20321343!,he3vsy1w91,"DRM Reactivity 1_MSU",1,92,2023-10-25T22:35:11+00:00,6.895751953125,3,Stim_A.csv,G_JOL_B.csv,"Global C",Global,Bean,Bean,Recog,Control,70,87,Likert,User,1,"Was this item previously studied?","Critical Lure Standard F",Recog,1::2,6740,YES,28.571428571429,-1,-1,0,0,,,1
M20321343!,he3vsy1w91,"DRM Reactivity 1_MSU",1,93,2023-10-25T22:35:24+00:00,12.811873912811,3,Stim_A.csv,G_JOL_B.csv,"Global C",Global,Tea,Tea,Recog,Presented,141,81,Likert,User,1,"Was this item previously studied?","Critical Lure Standard F",Recog,1::2,11623,YES,33.333333333333,-1,-1,0,0,,,1
M20321343!,he3vsy1w91,"DRM Reactivity 1_MSU",1,94,2023-10-25T22:35:28+00:00,4.0274710655212,3,Stim_A.csv,G_JOL_B.csv,"Global C",Global,Roof,Roof,Recog,Control,84,67,Likert,User,1,"Was this item previously studied?","List Item Standard F",Recog,1::2,3863,NO,33.333333333333,-1,-1,0,0,,,1
M20321343!,he3vsy1w91,"DRM Reactivity 1_MSU",1,95,2023-10-25T22:35:31+00:00,3.0847539901733,3,Stim_A.csv,G_JOL_B.csv,"Global C",Global,Tent,Tent,Recog,Control,94,75,Likert,User,1,"Was this item previously studied?","List Item Sans F",Recog,1::2,2866,NO,33.333333333333,-1,-1,0,0,,,1
M20321343!,he3vsy1w91,"DRM Reactivity 1_MSU",1,96,2023-10-25T22:35:36+00:00,4.473974943161,3,Stim_A.csv,G_JOL_B.csv,"Global C",Global,Fly,Fly,Recog,Presented,134,73,Likert,User,1,"Was this item previously studied?","List Item Standard F",Recog,1::2,4231,NO,0,-1,-1,0,0,,,1
M20321343!,he3vsy1w91,"DRM Reactivity 1_MSU",1,97,2023-10-25T22:35:39+00:00,2.9550359249115,3,Stim_A.csv,G_JOL_B.csv,"Global C",Global,Hockey,Hockey,Recog,Presented,112,142,Likert,User,1,"Was this item previously studied?","Critical Lure Control",Recog,1::2,2813,YES,22.222222222222,-1,-1,0,0,,,1
M20321343!,he3vsy1w91,"DRM Reactivity 1_MSU",1,98,2023-10-25T22:35:42+00:00,2.9878041744232,3,Stim_A.csv,G_JOL_B.csv,"Global C",Global,Floor,Floor,Recog,Control,79,53,Likert,User,1,"Was this item previously studied?","List Item Standard F",Recog,1::2,2772,YES,0,-1,-1,0,0,,,1
M20321343!,he3vsy1w91,"DRM Reactivity 1_MSU",1,99,2023-10-25T22:35:47+00:00,5.1964750289917,3,Stim_A.csv,G_JOL_B.csv,"Global C",Global,Card,Card,Recog,Control,85,143,Likert,User,1,"Was this item previously studied?","Critical Lure Control",Recog,1::2,5048,NO,0,-1,-1,0,0,,,1
M20321343!,he3vsy1w91,"DRM Reactivity 1_MSU",1,100,2023-10-25T22:35:51+00:00,4.3615198135376,3,Stim_A.csv,G_JOL_B.csv,"Global C",Global,Mother,Mother,Recog,Control,92,84,Likert,User,1,"Was this item previously studied?","Critical Lure Sans F",Recog,1::2,3606,NO,25,-1,-1,0,0,,,1
M20321343!,he3vsy1w91,"DRM Reactivity 1_MSU",1,101,2023-10-25T22:35:55+00:00,4.1882071495056,3,Stim_A.csv,G_JOL_B.csv,"Global C",Global,Tiger,Tiger,Recog,Presented,121,86,Likert,User,1,"Was this item previously studied?","Critical Lure Sans F",Recog,1::2,4035,NO,0,-1,-1,0,0,,,1
M20321343!,he3vsy1w91,"DRM Reactivity 1_MSU",1,102,2023-10-25T22:35:58+00:00,2.9133169651031,3,Stim_A.csv,G_JOL_B.csv,"Global C",Global,Hallway,Hallway,Recog,Control,83,82,Likert,User,1,"Was this item previously studied?","Critical Lure Sans F",Recog,1::2,2767,NO,0,-1,-1,0,0,,,1
M20321343!,he3vsy1w91,"DRM Reactivity 1_MSU",1,103,2023-10-25T22:36:02+00:00,3.9718608856201,3,Stim_A.csv,G_JOL_B.csv,"Global C",Global,Ocean,Ocean,Recog,Presented,104,54,Likert,User,1,"Was this item previously studied?","List Item Standard F",Recog,1::2,3756,NO,28.571428571429,-1,-1,0,0,,,1
M20321343!,he3vsy1w91,"DRM Reactivity 1_MSU",1,104,2023-10-25T22:36:05+00:00,3.0615260601044,3,Stim_A.csv,G_JOL_B.csv,"Global C",Global,Mayor,Mayor,Recog,Presented,110,85,Likert,User,1,"Was this item previously studied?","Critical Lure Standard F",Recog,1::2,2914,NO,28.571428571429,-1,-1,0,0,,,1
M20321343!,he3vsy1w91,"DRM Reactivity 1_MSU",1,105,2023-10-25T22:36:09+00:00,3.2507319450378,3,Stim_A.csv,G_JOL_B.csv,"Global C",Global,Rifle,Rifle,Recog,Presented,109,112,Likert,User,1,"Was this item previously studied?","List Item Control",Recog,1::2,3097,NO,0,-1,-1,0,0,,,1
M20321343!,he3vsy1w91,"DRM Reactivity 1_MSU",1,106,2023-10-25T22:36:12+00:00,3.1550171375275,3,Stim_A.csv,G_JOL_B.csv,"Global C",Global,Viper,Viper,Recog,Presented,140,126,Likert,User,1,"Was this item previously studied?","Critical Lure Control",Recog,1::2,2943,YES,25,-1,-1,0,0,,,1
M20321343!,he3vsy1w91,"DRM Reactivity 1_MSU",1,107,2023-10-25T22:36:15+00:00,3.5645070075989,3,Stim_A.csv,G_JOL_B.csv,"Global C",Global,Sandal,Sandal,Recog,Presented,133,77,Likert,User,1,"Was this item previously studied?","List Item Standard F",Recog,1::2,3425,YES,22.222222222222,-1,-1,0,0,,,1
M20321343!,he3vsy1w91,"DRM Reactivity 1_MSU",1,108,2023-10-25T22:36:18+00:00,3.0466709136963,3,Stim_A.csv,G_JOL_B.csv,"Global C",Global,Computer,Computer,Recog,Presented,143,139,Likert,User,1,"Was this item previously studied?","Critical Lure Control",Recog,1::2,2902,NO,20,-1,-1,0,0,,,1
M20321343!,he3vsy1w91,"DRM Reactivity 1_MSU",1,109,2023-10-25T22:36:22+00:00,3.4762279987335,3,Stim_A.csv,G_JOL_B.csv,"Global C",Global,Kayak,Kayak,Recog,Control,68,52,Likert,User,1,"Was this item previously studied?","List Item Sans F",Recog,1::2,3256,NO,0,-1,-1,0,0,,,1
M20321343!,he3vsy1w91,"DRM Reactivity 1_MSU",1,110,2023-10-25T22:36:25+00:00,3.0513169765472,3,Stim_A.csv,G_JOL_B.csv,"Global C",Global,Bathroom,Bathroom,Recog,Control,75,103,Likert,User,1,"Was this item previously studied?","List Item Control",Recog,1::2,2908,NO,20,-1,-1,0,0,,,1
M20321343!,he3vsy1w91,"DRM Reactivity 1_MSU",1,111,2023-10-25T22:36:28+00:00,2.6683900356293,3,Stim_A.csv,G_JOL_B.csv,"Global C",Global,Phone,Phone,Recog,Control,95,101,Likert,User,1,"Was this item previously studied?","List Item Control",Recog,1::2,2531,NO,28.571428571429,-1,-1,0,0,,,1
M20321343!,he3vsy1w91,"DRM Reactivity 1_MSU",1,112,2023-10-25T22:36:30+00:00,2.6013300418854,3,Stim_A.csv,G_JOL_B.csv,"Global C",Global,Cook,Cook,Recog,Control,90,69,Likert,User,1,"Was this item previously studied?","List Item Sans F",Recog,1::2,2370,NO,33.333333333333,-1,-1,0,0,,,1
M20321343!,he3vsy1w91,"DRM Reactivity 1_MSU",1,113,2023-10-25T22:36:34+00:00,3.6311118602753,3,Stim_A.csv,G_JOL_B.csv,"Global C",Global,Lemon,Lemon,Recog,Control,60,109,Likert,User,1,"Was this item previously studied?","List Item Control",Recog,1::2,3486,NO,28.571428571429,-1,-1,0,0,,,1
M20321343!,he3vsy1w91,"DRM Reactivity 1_MSU",1,114,2023-10-25T22:36:37+00:00,2.9175159931183,3,Stim_A.csv,G_JOL_B.csv,"Global C",Global,Mint,Mint,Recog,Control,65,57,Likert,User,1,"Was this item previously studied?","List Item Sans F",Recog,1::2,2764,NO,33.333333333333,-1,-1,0,0,,,1
M20321343!,he3vsy1w91,"DRM Reactivity 1_MSU",1,115,2023-10-25T22:36:40+00:00,2.8475751876831,3,Stim_A.csv,G_JOL_B.csv,"Global C",Global,Wall,Wall,Recog,Control,77,102,Likert,User,1,"Was this item previously studied?","List Item Control",Recog,1::2,2622,NO,0,-1,-1,0,0,,,1
M20321343!,he3vsy1w91,"DRM Reactivity 1_MSU",1,116,2023-10-25T22:36:42+00:00,2.6355760097504,3,Stim_A.csv,G_JOL_B.csv,"Global C",Global,Milk,Milk,Recog,Presented,118,136,Likert,User,1,"Was this item previously studied?","Critical Lure Control",Recog,1::2,2484,YES,0,-1,-1,0,0,,,1
M20321343!,he3vsy1w91,"DRM Reactivity 1_MSU",1,117,2023-10-25T22:36:45+00:00,2.9024968147278,3,Stim_A.csv,G_JOL_B.csv,"Global C",Global,Cruise,Cruise,Recog,Presented,138,110,Likert,User,1,"Was this item previously studied?","List Item Control",Recog,1::2,2755,YES,22.222222222222,-1,-1,0,0,,,1
M20321343!,he3vsy1w91,"DRM Reactivity 1_MSU",1,118,2023-10-25T22:36:48+00:00,3.3676462173462,3,Stim_A.csv,G_JOL_B.csv,"Global C",Global,Volcano,Volcano,Recog,Presented,100,71,Likert,User,1,"Was this item previously studied?","List Item Standard F",Recog,1::2,3219,YES,0,-1,-1,0,0,,,1
M20321343!,he3vsy1w91,"DRM Reactivity 1_MSU",1,119,2023-10-25T22:36:51+00:00,2.679093837738,3,Stim_A.csv,G_JOL_B.csv,"Global C",Global,Dollar,Dollar,Recog,Presented,116,105,Likert,User,1,"Was this item previously studied?","List Item Control",Recog,1::2,2454,YES,0,-1,-1,0,0,,,1
M20321343!,he3vsy1w91,"DRM Reactivity 1_MSU",1,120,2023-10-25T22:36:54+00:00,3.0443470478058,3,Stim_A.csv,G_JOL_B.csv,"Global C",Global,Strawberry,Strawberry,Recog,Control,55,129,Likert,User,1,"Was this item previously studied?","Critical Lure Control",Recog,1::2,2886,NO,0,-1,-1,0,0,,,1
M20321343!,he3vsy1w91,"DRM Reactivity 1_MSU",1,121,2023-10-25T22:36:58+00:00,3.3489151000977,3,Stim_A.csv,G_JOL_B.csv,"Global C",Global,Hill,Hill,Recog,Presented,102,117,Likert,User,1,"Was this item previously studied?","List Item Control",Recog,1::2,3206,NO,0,-1,-1,0,0,,,1
M20321343!,he3vsy1w91,"DRM Reactivity 1_MSU",1,122,2023-10-25T22:37:01+00:00,3.7316479682922,3,Stim_A.csv,G_JOL_B.csv,"Global C",Global,Drill,Drill,Recog,Control,93,96,Likert,User,1,"Was this item previously studied?","List Item Control",Recog,1::2,2729,NO,0,-1,-1,0,0,,,1
M20321343!,he3vsy1w91,"DRM Reactivity 1_MSU",1,123,2023-10-25T22:37:07+00:00,6.0498068332672,3,Stim_A.csv,G_JOL_B.csv,"Global C",Global,Shark,Shark,Recog,Presented,139,94,Likert,User,1,"Was this item previously studied?","List Item Control",Recog,1::2,5895,YES,25,-1,-1,0,0,,,1
M20321343!,he3vsy1w91,"DRM Reactivity 1_MSU",1,124,2023-10-25T22:37:11+00:00,3.7247860431671,3,Stim_A.csv,G_JOL_B.csv,"Global C",Global,Window,Window,Recog,Control,76,131,Likert,User,1,"Was this item previously studied?","Critical Lure Control",Recog,1::2,3579,YES,0,-1,-1,0,0,,,1
M20321343!,he3vsy1w91,"DRM Reactivity 1_MSU",1,125,2023-10-25T22:37:20+00:00,9.1888999938965,3,Stim_A.csv,G_JOL_B.csv,"Global C",Global,Grape,Grape,Recog,Control,52,60,Likert,User,1,"Was this item previously studied?","List Item Standard F",Recog,1::2,9034,NO,0,-1,-1,0,0,,,1
M20321343!,he3vsy1w91,"DRM Reactivity 1_MSU",1,126,2023-10-25T22:37:27+00:00,6.791079044342,3,Stim_A.csv,G_JOL_B.csv,"Global C",Global,Eye,Eye,Recog,Presented,144,92,Likert,User,1,"Was this item previously studied?","List Item Control",Recog,1::2,6567,NO,0,-1,-1,0,0,,,1
M20321343!,he3vsy1w91,"DRM Reactivity 1_MSU",1,127,2023-10-25T22:37:30+00:00,2.8640220165253,3,Stim_A.csv,G_JOL_B.csv,"Global C",Global,Pants,Pants,Recog,Presented,113,72,Likert,User,1,"Was this item previously studied?","List Item Standard F",Recog,1::2,2719,NO,28.571428571429,-1,-1,0,0,,,1
M20321343!,he3vsy1w91,"DRM Reactivity 1_MSU",1,128,2023-10-25T22:37:32+00:00,2.3422350883484,3,Stim_A.csv,G_JOL_B.csv,"Global C",Global,Mango,Mango,Recog,Control,58,99,Likert,User,1,"Was this item previously studied?","List Item Control",Recog,1::2,2203,YES,0,-1,-1,0,0,,,1
M20321343!,he3vsy1w91,"DRM Reactivity 1_MSU",1,129,2023-10-25T22:37:35+00:00,2.4785299301147,3,Stim_A.csv,G_JOL_B.csv,"Global C",Global,Flea,Flea,Recog,Control,69,68,Likert,User,1,"Was this item previously studied?","List Item Sans F",Recog,1::2,2254,NO,0,-1,-1,0,0,,,1
M20321343!,he3vsy1w91,"DRM Reactivity 1_MSU",1,130,2023-10-25T22:37:37+00:00,2.3941400051117,3,Stim_A.csv,G_JOL_B.csv,"Global C",Global,Valley,Valley,Recog,Presented,97,135,Likert,User,1,"Was this item previously studied?","Critical Lure Control",Recog,1::2,2245,YES,22.222222222222,-1,-1,0,0,,,1
M20321343!,he3vsy1w91,"DRM Reactivity 1_MSU",1,131,2023-10-25T22:37:39+00:00,2.2139508724213,3,Stim_A.csv,G_JOL_B.csv,"Global C",Global,Goat,Goat,Recog,Presented,126,132,Likert,User,1,"Was this item previously studied?","Critical Lure Control",Recog,1::2,2078,YES,0,-1,-1,0,0,,,1
M20321343!,he3vsy1w91,"DRM Reactivity 1_MSU",1,132,2023-10-25T22:37:42+00:00,2.9192080497742,3,Stim_A.csv,G_JOL_B.csv,"Global C",Global,Wolf,Wolf,Recog,Presented,125,90,Likert,User,1,"Was this item previously studied?","List Item Control",Recog,1::2,2775,NO,33.333333333333,-1,-1,0,0,,,1
M20321343!,he3vsy1w91,"DRM Reactivity 1_MSU",1,133,2023-10-25T22:37:45+00:00,3.0509159564972,3,Stim_A.csv,G_JOL_B.csv,"Global C",Global,River,River,Recog,Presented,98,120,Likert,User,1,"Was this item previously studied?","Critical Lure Control",Recog,1::2,2197,YES,25,-1,-1,0,0,,,1
M20321343!,he3vsy1w91,"DRM Reactivity 1_MSU",1,134,2023-10-25T22:37:48+00:00,2.7248301506042,3,Stim_A.csv,G_JOL_B.csv,"Global C",Global,Peach,Peach,Recog,Control,54,114,Likert,User,1,"Was this item previously studied?","List Item Control",Recog,1::2,2578,NO,0,-1,-1,0,0,,,1
M20321343!,he3vsy1w91,"DRM Reactivity 1_MSU",1,135,2023-10-25T22:37:51+00:00,2.6358649730682,3,Stim_A.csv,G_JOL_B.csv,"Global C",Global,Lion,Lion,Recog,Presented,122,78,Likert,User,1,"Was this item previously studied?","List Item Standard F",Recog,1::2,2487,NO,33.333333333333,-1,-1,0,0,,,1
M20321343!,he3vsy1w91,"DRM Reactivity 1_MSU",1,136,2023-10-25T22:37:55+00:00,3.955295085907,3,Stim_A.csv,G_JOL_B.csv,"Global C",Global,Cold,Cold,Recog,Presented,136,137,Likert,User,1,"Was this item previously studied?","Critical Lure Control",Recog,1::2,3743,NO,33.333333333333,-1,-1,0,0,,,1
M20321343!,he3vsy1w91,"DRM Reactivity 1_MSU",1,137,2023-10-25T22:37:57+00:00,2.4653809070587,3,Stim_A.csv,G_JOL_B.csv,"Global C",Global,Guitar,Guitar,Recog,Presented,115,55,Likert,User,1,"Was this item previously studied?","List Item Standard F",Recog,1::2,2322,NO,0,-1,-1,0,0,,,1
M20321343!,he3vsy1w91,"DRM Reactivity 1_MSU",1,138,2023-10-25T22:38:00+00:00,3.2927949428558,3,Stim_A.csv,G_JOL_B.csv,"Global C",Global,Elevator,Elevator,Recog,Control,81,79,Likert,User,1,"Was this item previously studied?","List Item Standard F",Recog,1::2,3152,NO,20,-1,-1,0,0,,,1
M20321343!,he3vsy1w91,"DRM Reactivity 1_MSU",1,139,2023-10-25T22:38:03+00:00,2.671774148941,3,Stim_A.csv,G_JOL_B.csv,"Global C",Global,Canyon,Canyon,Recog,Presented,99,59,Likert,User,1,"Was this item previously studied?","List Item Standard F",Recog,1::2,2527,YES,22.222222222222,-1,-1,0,0,,,1
M20321343!,he3vsy1w91,"DRM Reactivity 1_MSU",1,140,2023-10-25T22:38:06+00:00,2.4936130046844,3,Stim_A.csv,G_JOL_B.csv,"Global C",Global,Orange,Orange,Recog,Control,50,65,Likert,User,1,"Was this item previously studied?","List Item Standard F",Recog,1::2,2272,YES,22.222222222222,-1,-1,0,0,,,1
M20321343!,he3vsy1w91,"DRM Reactivity 1_MSU",1,141,2023-10-25T22:38:07+00:00,1.9638829231262,3,Stim_A.csv,G_JOL_B.csv,"Global C",Global,Basket,Basket,Recog,Control,89,76,Likert,User,1,"Was this item previously studied?","List Item Sans F",Recog,1::2,1821,NO,0,-1,-1,0,0,,,1
M20321343!,he3vsy1w91,"DRM Reactivity 1_MSU",1,142,2023-10-25T22:38:10+00:00,2.104868888855,3,Stim_A.csv,G_JOL_B.csv,"Global C",Global,Zebra,Zebra,Recog,Presented,123,116,Likert,User,1,"Was this item previously studied?","List Item Control",Recog,1::2,1961,YES,25,-1,-1,0,0,,,1
M20321343!,he3vsy1w91,"DRM Reactivity 1_MSU",1,143,2023-10-25T22:38:12+00:00,2.2919371128082,3,Stim_A.csv,G_JOL_B.csv,"Global C",Global,Lake,Lake,Recog,Presented,106,119,Likert,User,1,"Was this item previously studied?","List Item Control",Recog,1::2,2142,YES,28.571428571429,-1,-1,0,0,,,1
M20321343!,he3vsy1w91,"DRM Reactivity 1_MSU",1,144,2023-10-25T22:38:14+00:00,2.1009039878845,3,Stim_A.csv,G_JOL_B.csv,"Global C",Global,Elephant,Elephant,Recog,Presented,128,104,Likert,User,1,"Was this item previously studied?","List Item Control",Recog,1::2,1948,NO,20,-1,-1,0,0,,,1
M20321343!,he3vsy1w91,"DRM Reactivity 1_MSU",1,145,2023-10-25T22:38:16+00:00,1.9502868652344,3,Stim_A.csv,G_JOL_B.csv,"Global C",Global,Donkey,Donkey,Recog,Presented,130,125,Likert,User,1,"Was this item previously studied?","Critical Lure Control",Recog,1::2,1730,YES,22.222222222222,-1,-1,0,0,,,1
M20321343!,he3vsy1w91,"DRM Reactivity 1_MSU",1,146,2023-10-25T22:38:18+00:00,2.3254141807556,3,Stim_A.csv,G_JOL_B.csv,"Global C",Global,Lipstick,Lipstick,Recog,Presented,142,62,Likert,User,1,"Was this item previously studied?","List Item Sans F",Recog,1::2,2184,NO,0,-1,-1,0,0,,,1
M20321343!,he3vsy1w91,"DRM Reactivity 1_MSU",1,147,2023-10-25T22:38:21+00:00,2.3916149139404,3,Stim_A.csv,G_JOL_B.csv,"Global C",Global,Banana,Banana,Recog,Control,51,97,Likert,User,1,"Was this item previously studied?","List Item Control",Recog,1::2,2253,NO,25,-1,-1,0,0,,,1
M20321343!,he3vsy1w91,"DRM Reactivity 1_MSU",1,148,2023-10-25T22:38:23+00:00,2.4099440574646,3,Stim_A.csv,G_JOL_B.csv,"Global C",Global,Flute,Flute,Recog,Control,86,95,Likert,User,1,"Was this item previously studied?","List Item Control",Recog,1::2,2268,NO,0,-1,-1,0,0,,,1
M20321343!,he3vsy1w91,"DRM Reactivity 1_MSU",1,149,2023-10-25T22:38:28+00:00,4.6265318393707,3,Stim_A.csv,G_JOL_B.csv,"Global C",Global,Apple,Apple,Recog,Control,49,70,Likert,User,1,"Was this item previously studied?","List Item Sans F",Recog,1::2,4396,YES,25,-1,-1,0,0,,,1
M20321343!,he3vsy1w91,"DRM Reactivity 1_MSU",1,150,2023-10-25T22:38:31+00:00,3.4540901184082,3,Stim_A.csv,G_JOL_B.csv,"Global C",Global,Rest,Rest,Recog,Control,96,134,Likert,User,1,"Was this item previously studied?","Critical Lure Control",Recog,1::2,3316,NO,0,-1,-1,0,0,,,1
M20321343!,he3vsy1w91,"DRM Reactivity 1_MSU",1,151,2023-10-25T22:38:34+00:00,2.4621839523315,3,Stim_A.csv,G_JOL_B.csv,"Global C",Global,Oxygen,Oxygen,Recog,Presented,114,63,Likert,User,1,"Was this item previously studied?","List Item Sans F",Recog,1::2,2314,NO,25,-1,-1,0,0,,,1
M20321343!,he3vsy1w91,"DRM Reactivity 1_MSU",1,152,2023-10-25T22:38:37+00:00,3.8876280784607,3,Stim_A.csv,G_JOL_B.csv,"Global C",Global,Bed,Bed,Recog,Control,62,107,Likert,User,1,"Was this item previously studied?","List Item Control",Recog,1::2,2918,YES,33.333333333333,-1,-1,0,0,,,1
M20321343!,he3vsy1w91,"DRM Reactivity 1_MSU",1,153,2023-10-25T22:38:40+00:00,2.807354927063,3,Stim_A.csv,G_JOL_B.csv,"Global C",Global,Glacier,Glacier,Recog,Presented,108,121,Likert,User,1,"Was this item previously studied?","Critical Lure Control",Recog,1::2,2654,YES,20,-1,-1,0,0,,,1
M20321343!,he3vsy1w91,"DRM Reactivity 1_MSU",1,154,2023-10-25T22:38:42+00:00,2.0426239967346,3,Stim_A.csv,G_JOL_B.csv,"Global C",Global,Pear,Pear,Recog,Control,53,93,Likert,User,1,"Was this item previously studied?","List Item Control",Recog,1::2,1894,NO,0,-1,-1,0,0,,,1
M20321343!,he3vsy1w91,"DRM Reactivity 1_MSU",1,155,2023-10-25T22:38:45+00:00,2.6282720565796,3,Stim_A.csv,G_JOL_B.csv,"Global C",Global,Tulip,Tulip,Recog,Presented,135,83,Likert,User,1,"Was this item previously studied?","Critical Lure Standard F",Recog,1::2,2415,NO,0,-1,-1,0,0,,,1
M20321343!,he3vsy1w91,"DRM Reactivity 1_MSU",1,156,2023-10-25T22:38:48+00:00,2.734855890274,3,Stim_A.csv,G_JOL_B.csv,"Global C",Global,Attic,Attic,Recog,Control,82,145,Likert,User,1,"Was this item previously studied?","Critical Lure Control",Recog,1::2,2583,NO,0,-1,-1,0,0,,,1
M20321343!,he3vsy1w91,"DRM Reactivity 1_MSU",1,157,2023-10-25T22:38:50+00:00,2.6373779773712,3,Stim_A.csv,G_JOL_B.csv,"Global C",Global,Mountain,Mountain,Recog,Presented,103,122,Likert,User,1,"Was this item previously studied?","Critical Lure Control",Recog,1::2,2492,YES,0,-1,-1,0,0,,,1
M20321343!,he3vsy1w91,"DRM Reactivity 1_MSU",1,158,2023-10-25T22:38:53+00:00,2.4494051933289,3,Stim_A.csv,G_JOL_B.csv,"Global C",Global,Bear,Bear,Recog,Presented,131,89,Likert,User,1,"Was this item previously studied?","Critical Lure Standard F",Recog,1::2,2306,NO,0,-1,-1,0,0,,,1
M20321343!,he3vsy1w91,"DRM Reactivity 1_MSU",1,159,2023-10-25T22:38:55+00:00,2.6175718307495,3,Stim_A.csv,G_JOL_B.csv,"Global C",Global,Kiwi,Kiwi,Recog,Control,56,140,Likert,User,1,"Was this item previously studied?","Critical Lure Control",Recog,1::2,2392,NO,0,-1,-1,0,0,,,1
M20321343!,he3vsy1w91,"DRM Reactivity 1_MSU",1,160,2023-10-25T22:38:58+00:00,2.496945142746,3,Stim_A.csv,G_JOL_B.csv,"Global C",Global,Fossil,Fossil,Recog,Control,91,124,Likert,User,1,"Was this item previously studied?","Critical Lure Control",Recog,1::2,2351,NO,25,-1,-1,0,0,,,1
M20321343!,he3vsy1w91,"DRM Reactivity 1_MSU",1,161,2023-10-25T22:39:00+00:00,2.1442978382111,3,Stim_A.csv,G_JOL_B.csv,"Global C",Global,Basement,Basement,Recog,Control,74,138,Likert,User,1,"Was this item previously studied?","Critical Lure Control",Recog,1::2,2009,YES,18.181818181818,-1,-1,0,0,,,1
M20321343!,he3vsy1w91,"DRM Reactivity 1_MSU",1,162,2023-10-25T22:39:03+00:00,2.8614890575409,3,Stim_A.csv,G_JOL_B.csv,"Global C",Global,Ceiling,Ceiling,Recog,Control,73,66,Likert,User,1,"Was this item previously studied?","List Item Standard F",Recog,1::2,2717,YES,20,-1,-1,0,0,,,1
M20321343!,he3vsy1w91,"DRM Reactivity 1_MSU",1,163,2023-10-25T22:39:05+00:00,1.7035880088806,3,Stim_A.csv,G_JOL_B.csv,"Global C",Global,,,,,,0,Instruct,User,-,"You have completed this section. Please click next.",,Instruct7,,1481,,,-1,-1,,,,,1
M20321343!,he3vsy1w91,"DRM Reactivity 1_MSU",1,164,2023-10-25T22:39:50+00:00,45.558344125748,3,Stim_A.csv,G_JOL_B.csv,"Global C",Global,,,,,,0,Instruct,User,-,"The following screen will ask you a few questions abour your experience today. You must complete these questions to receive credit.",,Instruct8,,45329,,,-1,-1,,,,,1
