Username,ID,ExperimentName,Session,Trial,Date,TimeDif,"Condition Number","Stimuli File","Order File","Condition Description","Condition Notes",Stimuli*Cue,Stimuli*Answer,Stimuli*Shuffle,"Stimuli*Stimuli Notes",Stimuli*Value,Procedure*Item,"Procedure*Trial Type","Procedure*Max Time","Procedure*Min Time",Procedure*Text,"Procedure*Procedure Notes",Procedure*Shuffle,Procedure*,Response*RT,Response*Response,Response*Accuracy,Response*RTfirst,Response*RTlast,Response*strictAcc,Response*lenientAcc,Response*focus,Response*Focus
m20319677,qs1fqhjcmh,"DRM Reactivity 1_MSU",1,1,2023-10-18T17:24:52+00:00,7.3129909038544,11,Stim_A.csv,Read_B.csv,"Read C",Read,,,,,,0,Instruct,-,5,"In this section, you will be presented with a series of words. Please study each word carefully. Your memory will be tested! Click next to continue.",Initial_Instruct,Instruct1,,6575,,,-1,-1,,,,1
m20319677,qs1fqhjcmh,"DRM Reactivity 1_MSU",1,2,2023-10-18T17:24:55+00:00,2.4743361473083,11,Stim_A.csv,Read_B.csv,"Read C",Read,,,,,,0,Instruct,User,-,"You will now begin the study. Click next when you are ready to begin.",,Instruct16,,2279,,,-1,-1,,,,1
m20319677,qs1fqhjcmh,"DRM Reactivity 1_MSU",1,3,2023-10-18T17:24:59+00:00,4.3607289791107,11,Stim_A.csv,Read_B.csv,"Read C",Read,Ocean,Ocean,R1,Related,8,13,Study,User,-,,Unrelated,U1,,4230,,,-1,-1,,,,1
m20319677,qs1fqhjcmh,"DRM Reactivity 1_MSU",1,4,2023-10-18T17:25:03+00:00,3.2737009525299,11,Stim_A.csv,Read_B.csv,"Read C",Read,Island,Island,R1,Related,9,8,Study,User,-,,Unrelated,U1,,3149,,,-1,-1,,,,1
m20319677,qs1fqhjcmh,"DRM Reactivity 1_MSU",1,5,2023-10-18T17:25:06+00:00,3.2452778816223,11,Stim_A.csv,Read_B.csv,"Read C",Read,Hill,Hill,R1,Related,6,12,Study,User,-,,Unrelated,U1,,3096,,,-1,-1,,,,1
m20319677,qs1fqhjcmh,"DRM Reactivity 1_MSU",1,6,2023-10-18T17:25:09+00:00,3.5518391132355,11,Stim_A.csv,Read_B.csv,"Read C",Read,Glacier,Glacier,R1,Related,12,7,Study,User,-,,Unrelated,U1,,3417,,,-1,-1,,,,1
m20319677,qs1fqhjcmh,"DRM Reactivity 1_MSU",1,7,2023-10-18T17:25:15+00:00,5.2007169723511,11,Stim_A.csv,Read_B.csv,"Read C",Read,Cave,Cave,R1,Related,11,6,Study,User,-,,Unrelated,U1,,5059,,,-1,-1,,,,1
m20319677,qs1fqhjcmh,"DRM Reactivity 1_MSU",1,8,2023-10-18T17:25:23+00:00,8.2906880378723,11,Stim_A.csv,Read_B.csv,"Read C",Read,Lake,Lake,R1,Related,10,3,Study,User,-,,Unrelated,U1,,8154,,,-1,-1,,,,1
m20319677,qs1fqhjcmh,"DRM Reactivity 1_MSU",1,9,2023-10-18T17:25:28+00:00,5.4560370445251,11,Stim_A.csv,Read_B.csv,"Read C",Read,Mountain,Mountain,R1,Related,7,2,Study,User,-,,Unrelated,U1,,5315,,,-1,-1,,,,1
m20319677,qs1fqhjcmh,"DRM Reactivity 1_MSU",1,10,2023-10-18T17:25:36+00:00,7.2881939411163,11,Stim_A.csv,Read_B.csv,"Read C",Read,River,River,R1,Related,2,5,Study,User,-,,Unrelated,U1,,7156,,,-1,-1,,,,1
m20319677,qs1fqhjcmh,"DRM Reactivity 1_MSU",1,11,2023-10-18T17:25:42+00:00,6.5880320072174,11,Stim_A.csv,Read_B.csv,"Read C",Read,Valley,Valley,R1,Related,1,11,Study,User,-,,Unrelated,U1,,6452,,,-1,-1,,,,1
m20319677,qs1fqhjcmh,"DRM Reactivity 1_MSU",1,12,2023-10-18T17:25:50+00:00,7.5122039318085,11,Stim_A.csv,Read_B.csv,"Read C",Read,Volcano,Volcano,R1,Related,4,10,Study,User,-,,Unrelated,U1,,7363,,,-1,-1,,,,1
m20319677,qs1fqhjcmh,"DRM Reactivity 1_MSU",1,13,2023-10-18T17:25:53+00:00,3.1323180198669,11,Stim_A.csv,Read_B.csv,"Read C",Read,Rock,Rock,R1,Related,5,4,Study,User,-,,Unrelated,U1,,2987,,,-1,-1,,,,1
m20319677,qs1fqhjcmh,"DRM Reactivity 1_MSU",1,14,2023-10-18T17:26:03+00:00,9.749048948288,11,Stim_A.csv,Read_B.csv,"Read C",Read,Canyon,Canyon,R1,Related,3,9,Study,User,-,,Unrelated,U1,,9213,,,-1,-1,,,,1
m20319677,qs1fqhjcmh,"DRM Reactivity 1_MSU",1,15,2023-10-18T17:26:07+00:00,4.1816320419312,11,Stim_A.csv,Read_B.csv,"Read C",Read,,,,,,0,Instruct,User,3,"You will now be presented with a new study list. Click next when you are ready to begin.",,NEXT_LIST,,3916,,,-1,-1,,,,1
m20319677,qs1fqhjcmh,"DRM Reactivity 1_MSU",1,16,2023-10-18T17:26:10+00:00,3.1261920928955,11,Stim_A.csv,Read_B.csv,"Read C",Read,Rifle,Rifle,U1,Unrelated,13,20,Study,User,-,,Related,R1,,2875,,,-1,-1,,,,1
m20319677,qs1fqhjcmh,"DRM Reactivity 1_MSU",1,17,2023-10-18T17:26:13+00:00,2.7729909420013,11,Stim_A.csv,Read_B.csv,"Read C",Read,Jeep,Jeep,U1,Unrelated,23,21,Study,User,-,,Related,R1,,2140,,,-1,-1,,,,1
m20319677,qs1fqhjcmh,"DRM Reactivity 1_MSU",1,18,2023-10-18T17:26:15+00:00,2.3970649242401,11,Stim_A.csv,Read_B.csv,"Read C",Read,Dollar,Dollar,U1,Unrelated,20,15,Study,User,-,,Related,R1,,2267,,,-1,-1,,,,1
m20319677,qs1fqhjcmh,"DRM Reactivity 1_MSU",1,19,2023-10-18T17:26:18+00:00,2.8889060020447,11,Stim_A.csv,Read_B.csv,"Read C",Read,Mayor,Mayor,U1,Unrelated,14,16,Study,User,-,,Related,R1,,2760,,,-1,-1,,,,1
m20319677,qs1fqhjcmh,"DRM Reactivity 1_MSU",1,20,2023-10-18T17:26:23+00:00,4.9811911582947,11,Stim_A.csv,Read_B.csv,"Read C",Read,Parrot,Parrot,U1,Unrelated,21,18,Study,User,-,,Related,R1,,4787,,,-1,-1,,,,1
m20319677,qs1fqhjcmh,"DRM Reactivity 1_MSU",1,21,2023-10-18T17:26:26+00:00,3.3148369789124,11,Stim_A.csv,Read_B.csv,"Read C",Read,Hockey,Hockey,U1,Unrelated,16,23,Study,User,-,,Related,R1,,3189,,,-1,-1,,,,1
m20319677,qs1fqhjcmh,"DRM Reactivity 1_MSU",1,22,2023-10-18T17:26:29+00:00,2.8703029155731,11,Stim_A.csv,Read_B.csv,"Read C",Read,Oxygen,Oxygen,U1,Unrelated,18,25,Study,User,-,,Related,R1,,2741,,,-1,-1,,,,1
m20319677,qs1fqhjcmh,"DRM Reactivity 1_MSU",1,23,2023-10-18T17:26:32+00:00,2.7722070217133,11,Stim_A.csv,Read_B.csv,"Read C",Read,Milk,Milk,U1,Unrelated,22,14,Study,User,-,,Related,R1,,2637,,,-1,-1,,,,1
m20319677,qs1fqhjcmh,"DRM Reactivity 1_MSU",1,24,2023-10-18T17:26:34+00:00,2.5825469493866,11,Stim_A.csv,Read_B.csv,"Read C",Read,Student,Student,U1,Unrelated,15,19,Study,User,-,,Related,R1,,2452,,,-1,-1,,,,1
m20319677,qs1fqhjcmh,"DRM Reactivity 1_MSU",1,25,2023-10-18T17:26:38+00:00,3.2465200424194,11,Stim_A.csv,Read_B.csv,"Read C",Read,Guitar,Guitar,U1,Unrelated,19,24,Study,User,-,,Related,R1,,3113,,,-1,-1,,,,1
m20319677,qs1fqhjcmh,"DRM Reactivity 1_MSU",1,26,2023-10-18T17:26:43+00:00,4.8276169300079,11,Stim_A.csv,Read_B.csv,"Read C",Read,Pants,Pants,U1,Unrelated,17,17,Study,User,-,,Related,R1,,4694,,,-1,-1,,,,1
m20319677,qs1fqhjcmh,"DRM Reactivity 1_MSU",1,27,2023-10-18T17:26:52+00:00,8.9994230270386,11,Stim_A.csv,Read_B.csv,"Read C",Read,Ballet,Ballet,U1,Unrelated,24,22,Study,User,-,,Related,R1,,8863,,,-1,-1,,,,1
m20319677,qs1fqhjcmh,"DRM Reactivity 1_MSU",1,28,2023-10-18T17:26:55+00:00,3.9589669704437,11,Stim_A.csv,Read_B.csv,"Read C",Read,,,,,,0,Instruct,User,3,"You will now be presented with a new study list. Click next when you are ready to begin.",,NEXT_LIST,,3822,,,-1,-1,,,,1
m20319677,qs1fqhjcmh,"DRM Reactivity 1_MSU",1,29,2023-10-18T17:26:59+00:00,3.5246970653534,11,Stim_A.csv,Read_B.csv,"Read C",Read,Tiger,Tiger,R2,Related,25,34,Study,User,-,,Unrelated,U2,,3395,,,-1,-1,,,,1
m20319677,qs1fqhjcmh,"DRM Reactivity 1_MSU",1,30,2023-10-18T17:27:12+00:00,12.766792058945,11,Stim_A.csv,Read_B.csv,"Read C",Read,Girraffe,Girraffe,R2,Related,31,37,Study,User,-,,Unrelated,U2,,12626,,,-1,-1,,,,1
m20319677,qs1fqhjcmh,"DRM Reactivity 1_MSU",1,31,2023-10-18T17:27:17+00:00,4.9342179298401,11,Stim_A.csv,Read_B.csv,"Read C",Read,Lion,Lion,R2,Related,26,32,Study,User,-,,Unrelated,U2,,2999,,,-1,-1,,,,1
m20319677,qs1fqhjcmh,"DRM Reactivity 1_MSU",1,32,2023-10-18T17:27:21+00:00,4.6470549106598,11,Stim_A.csv,Read_B.csv,"Read C",Read,Zebra,Zebra,R2,Related,27,31,Study,User,-,,Unrelated,U2,,4514,,,-1,-1,,,,1
m20319677,qs1fqhjcmh,"DRM Reactivity 1_MSU",1,33,2023-10-18T17:27:24+00:00,2.5537490844727,11,Stim_A.csv,Read_B.csv,"Read C",Read,Cow,Cow,R2,Related,36,29,Study,User,-,,Unrelated,U2,,2429,,,-1,-1,,,,1
m20319677,qs1fqhjcmh,"DRM Reactivity 1_MSU",1,34,2023-10-18T17:27:26+00:00,2.3602769374847,11,Stim_A.csv,Read_B.csv,"Read C",Read,Cheetah,Cheetah,R2,Related,28,30,Study,User,-,,Unrelated,U2,,2049,,,-1,-1,,,,1
m20319677,qs1fqhjcmh,"DRM Reactivity 1_MSU",1,35,2023-10-18T17:27:33+00:00,6.3508470058441,11,Stim_A.csv,Read_B.csv,"Read C",Read,Wolf,Wolf,R2,Related,29,26,Study,User,-,,Unrelated,U2,,6207,,,-1,-1,,,,1
m20319677,qs1fqhjcmh,"DRM Reactivity 1_MSU",1,36,2023-10-18T17:27:36+00:00,3.4931149482727,11,Stim_A.csv,Read_B.csv,"Read C",Read,Goat,Goat,R2,Related,30,35,Study,User,-,,Unrelated,U2,,3311,,,-1,-1,,,,1
m20319677,qs1fqhjcmh,"DRM Reactivity 1_MSU",1,37,2023-10-18T17:27:41+00:00,5.2652921676636,11,Stim_A.csv,Read_B.csv,"Read C",Read,Donkey,Donkey,R2,Related,34,27,Study,User,-,,Unrelated,U2,,5015,,,-1,-1,,,,1
m20319677,qs1fqhjcmh,"DRM Reactivity 1_MSU",1,38,2023-10-18T17:27:46+00:00,5.1174139976501,11,Stim_A.csv,Read_B.csv,"Read C",Read,Bear,Bear,R2,Related,35,28,Study,User,-,,Unrelated,U2,,4943,,,-1,-1,,,,1
m20319677,qs1fqhjcmh,"DRM Reactivity 1_MSU",1,39,2023-10-18T17:27:49+00:00,2.0885689258575,11,Stim_A.csv,Read_B.csv,"Read C",Read,Elephant,Elephant,R2,Related,32,33,Study,User,-,,Unrelated,U2,,1945,,,-1,-1,,,,1
m20319677,qs1fqhjcmh,"DRM Reactivity 1_MSU",1,40,2023-10-18T17:27:53+00:00,4.4500501155853,11,Stim_A.csv,Read_B.csv,"Read C",Read,Cat,Cat,R2,Related,33,36,Study,User,-,,Unrelated,U2,,4308,,,-1,-1,,,,1
m20319677,qs1fqhjcmh,"DRM Reactivity 1_MSU",1,41,2023-10-18T17:27:58+00:00,5.0990688800812,11,Stim_A.csv,Read_B.csv,"Read C",Read,,,,,,0,Instruct,User,3,"You will now be presented with a new study list. Click next when you are ready to begin.",,NEXT_LIST,,4928,,,-1,-1,,,,1
m20319677,qs1fqhjcmh,"DRM Reactivity 1_MSU",1,42,2023-10-18T17:28:00+00:00,1.7930541038513,11,Stim_A.csv,Read_B.csv,"Read C",Read,Cold,Cold,U2,Unrelated,40,48,Study,User,-,,Related,R2,,1659,,,-1,-1,,,,1
m20319677,qs1fqhjcmh,"DRM Reactivity 1_MSU",1,43,2023-10-18T17:28:03+00:00,3.2014408111572,11,Stim_A.csv,Read_B.csv,"Read C",Read,Tulip,Tulip,U2,Unrelated,39,44,Study,User,-,,Related,R2,,3071,,,-1,-1,,,,1
m20319677,qs1fqhjcmh,"DRM Reactivity 1_MSU",1,44,2023-10-18T17:28:06+00:00,2.9019441604614,11,Stim_A.csv,Read_B.csv,"Read C",Read,Viper,Viper,U2,Unrelated,44,40,Study,User,-,,Related,R2,,2766,,,-1,-1,,,,1
m20319677,qs1fqhjcmh,"DRM Reactivity 1_MSU",1,45,2023-10-18T17:28:07+00:00,1.4362590312958,11,Stim_A.csv,Read_B.csv,"Read C",Read,Blue,Blue,U2,Unrelated,41,38,Study,User,-,,Related,R2,,1295,,,-1,-1,,,,1
m20319677,qs1fqhjcmh,"DRM Reactivity 1_MSU",1,46,2023-10-18T17:28:11+00:00,3.4942409992218,11,Stim_A.csv,Read_B.csv,"Read C",Read,Shark,Shark,U2,Unrelated,43,39,Study,User,-,,Related,R2,,3350,,,-1,-1,,,,1
m20319677,qs1fqhjcmh,"DRM Reactivity 1_MSU",1,47,2023-10-18T17:28:12+00:00,1.0663709640503,11,Stim_A.csv,Read_B.csv,"Read C",Read,Tea,Tea,U2,Unrelated,45,46,Study,User,-,,Related,R2,,930,,,-1,-1,,,,1
m20319677,qs1fqhjcmh,"DRM Reactivity 1_MSU",1,48,2023-10-18T17:28:39+00:00,26.947435855865,11,Stim_A.csv,Read_B.csv,"Read C",Read,Lipstick,Lipstick,U2,Unrelated,46,47,Study,User,-,,Related,R2,,26791,,,-1,-1,,,,1
m20319677,qs1fqhjcmh,"DRM Reactivity 1_MSU",1,49,2023-10-18T17:28:41+00:00,1.5933780670166,11,Stim_A.csv,Read_B.csv,"Read C",Read,Cruise,Cruise,U2,Unrelated,42,43,Study,User,-,,Related,R2,,1376,,,-1,-1,,,,1
m20319677,qs1fqhjcmh,"DRM Reactivity 1_MSU",1,50,2023-10-18T17:28:44+00:00,3.7381200790405,11,Stim_A.csv,Read_B.csv,"Read C",Read,Eye,Eye,U2,Unrelated,48,41,Study,User,-,,Related,R2,,3608,,,-1,-1,,,,1
m20319677,qs1fqhjcmh,"DRM Reactivity 1_MSU",1,51,2023-10-18T17:28:48+00:00,3.6200330257416,11,Stim_A.csv,Read_B.csv,"Read C",Read,Computer,Computer,U2,Unrelated,47,49,Study,User,-,,Related,R2,,3476,,,-1,-1,,,,1
m20319677,qs1fqhjcmh,"DRM Reactivity 1_MSU",1,52,2023-10-18T17:28:50+00:00,2.2400488853455,11,Stim_A.csv,Read_B.csv,"Read C",Read,Fly,Fly,U2,Unrelated,38,42,Study,User,-,,Related,R2,,2102,,,-1,-1,,,,1
m20319677,qs1fqhjcmh,"DRM Reactivity 1_MSU",1,53,2023-10-18T17:28:52+00:00,1.7411019802094,11,Stim_A.csv,Read_B.csv,"Read C",Read,Sandal,Sandal,U2,Unrelated,37,45,Study,User,-,,Related,R2,,1593,,,-1,-1,,,,1
m20319677,qs1fqhjcmh,"DRM Reactivity 1_MSU",1,54,2023-10-18T17:28:54+00:00,1.7593159675598,11,Stim_A.csv,Read_B.csv,"Read C",Read,,,,,,0,Instruct,User,-,"You have completed this section. Please click next.",,Instruct166,,1549,,,-1,-1,,,,1
m20319677,qs1fqhjcmh,"DRM Reactivity 1_MSU",1,55,2023-10-18T17:30:54+00:00,120.4277510643,11,Stim_A.csv,Read_B.csv,"Read C",Read,,,,,,0,FreeRecall,120,120,"Please list the 50 US States in alphabetical order. The computer will automatically advance to the next screen in 2 minutes.",,FILLER,,120007,"texas, alabama, alaska, nevada, new york, california, oregon, minnesota, oklahome, akransas, kansas, michigan, ohio, idaho, massachusetts, vermont, colarado, utah, illino ",0,4265,119355,0,0,,1
m20319677,qs1fqhjcmh,"DRM Reactivity 1_MSU",1,56,2023-10-18T17:30:57+00:00,2.6948170661926,11,Stim_A.csv,Read_B.csv,"Read C",Read,,,,,,0,Instruct,User,-,"You have completed this section. Please click next.",,Instruct166,,2558,,,-1,-1,,,,1
m20319677,qs1fqhjcmh,"DRM Reactivity 1_MSU",1,57,2023-10-18T17:31:08+00:00,11.533046960831,11,Stim_A.csv,Read_B.csv,"Read C",Read,,,,,,0,Instruct,User,10,"Your memory will now be tested. You will be presented with a series of words. If the word on the screen was previously studied, please select YES. If the word was not studied, select NO. PLEASE DO NOT SKIP ITEMS! Click next when you are ready to begin.",,,,11390,,,-1,-1,,,,1
m20319677,qs1fqhjcmh,"DRM Reactivity 1_MSU",1,58,2023-10-18T17:31:12+00:00,3.8722949028015,11,Stim_A.csv,Read_B.csv,"Read C",Read,Tea,Tea,Recog,Presented,141,73,Likert,User,1,"Was this item previously studied?","List Item Standard F",Recog,1::2,3733,NO,0,-1,-1,0,0,,1
m20319677,qs1fqhjcmh,"DRM Reactivity 1_MSU",1,59,2023-10-18T17:31:15+00:00,2.4221000671387,11,Stim_A.csv,Read_B.csv,"Read C",Read,Kayak,Kayak,Recog,Control,68,125,Likert,User,1,"Was this item previously studied?","Critical Lure Control",Recog,1::2,2286,NO,0,-1,-1,0,0,,1
m20319677,qs1fqhjcmh,"DRM Reactivity 1_MSU",1,60,2023-10-18T17:31:17+00:00,2.3207709789276,11,Stim_A.csv,Read_B.csv,"Read C",Read,Goat,Goat,Recog,Presented,126,76,Likert,User,1,"Was this item previously studied?","List Item Sans F",Recog,1::2,2191,NO,33.333333333333,-1,-1,0,0,,1
m20319677,qs1fqhjcmh,"DRM Reactivity 1_MSU",1,61,2023-10-18T17:31:19+00:00,2.4116151332855,11,Stim_A.csv,Read_B.csv,"Read C",Read,Fly,Fly,Recog,Presented,134,121,Likert,User,1,"Was this item previously studied?","Critical Lure Control",Recog,1::2,2263,NO,0,-1,-1,0,0,,1
m20319677,qs1fqhjcmh,"DRM Reactivity 1_MSU",1,62,2023-10-18T17:31:22+00:00,2.2177410125732,11,Stim_A.csv,Read_B.csv,"Read C",Read,Grape,Grape,Recog,Control,52,111,Likert,User,1,"Was this item previously studied?","List Item Control",Recog,1::2,2087,NO,0,-1,-1,0,0,,1
m20319677,qs1fqhjcmh,"DRM Reactivity 1_MSU",1,63,2023-10-18T17:31:24+00:00,2.0286958217621,11,Stim_A.csv,Read_B.csv,"Read C",Read,Computer,Computer,Recog,Presented,143,128,Likert,User,1,"Was this item previously studied?","Critical Lure Control",Recog,1::2,1899,NO,20,-1,-1,0,0,,1
m20319677,qs1fqhjcmh,"DRM Reactivity 1_MSU",1,64,2023-10-18T17:31:26+00:00,2.2177321910858,11,Stim_A.csv,Read_B.csv,"Read C",Read,Floor,Floor,Recog,Control,79,108,Likert,User,1,"Was this item previously studied?","List Item Control",Recog,1::2,2088,NO,28.571428571429,-1,-1,0,0,,1
m20319677,qs1fqhjcmh,"DRM Reactivity 1_MSU",1,65,2023-10-18T17:31:28+00:00,2.2737069129944,11,Stim_A.csv,Read_B.csv,"Read C",Read,Bed,Bed,Recog,Control,62,96,Likert,User,1,"Was this item previously studied?","List Item Control",Recog,1::2,2142,NO,0,-1,-1,0,0,,1
m20319677,qs1fqhjcmh,"DRM Reactivity 1_MSU",1,66,2023-10-18T17:31:31+00:00,2.4649469852448,11,Stim_A.csv,Read_B.csv,"Read C",Read,Pants,Pants,Recog,Presented,113,72,Likert,User,1,"Was this item previously studied?","List Item Standard F",Recog,1::2,2338,YES,25,-1,-1,0,0,,1
m20319677,qs1fqhjcmh,"DRM Reactivity 1_MSU",1,67,2023-10-18T17:31:33+00:00,2.0998799800873,11,Stim_A.csv,Read_B.csv,"Read C",Read,Glacier,Glacier,Recog,Presented,108,136,Likert,User,1,"Was this item previously studied?","Critical Lure Control",Recog,1::2,1967,YES,20,-1,-1,0,0,,1
m20319677,qs1fqhjcmh,"DRM Reactivity 1_MSU",1,68,2023-10-18T17:31:35+00:00,2.6289410591125,11,Stim_A.csv,Read_B.csv,"Read C",Read,Roof,Roof,Recog,Control,84,86,Likert,User,1,"Was this item previously studied?","Critical Lure Sans F",Recog,1::2,2495,NO,33.333333333333,-1,-1,0,0,,1
m20319677,qs1fqhjcmh,"DRM Reactivity 1_MSU",1,69,2023-10-18T17:31:38+00:00,2.3946590423584,11,Stim_A.csv,Read_B.csv,"Read C",Read,Tulip,Tulip,Recog,Presented,135,105,Likert,User,1,"Was this item previously studied?","List Item Control",Recog,1::2,2258,YES,0,-1,-1,0,0,,1
m20319677,qs1fqhjcmh,"DRM Reactivity 1_MSU",1,70,2023-10-18T17:31:39+00:00,1.5745298862457,11,Stim_A.csv,Read_B.csv,"Read C",Read,Cold,Cold,Recog,Presented,136,88,Likert,User,1,"Was this item previously studied?","Critical Lure Sans F",Recog,1::2,1398,YES,0,-1,-1,0,0,,1
m20319677,qs1fqhjcmh,"DRM Reactivity 1_MSU",1,71,2023-10-18T17:31:41+00:00,1.6964521408081,11,Stim_A.csv,Read_B.csv,"Read C",Read,Cave,Cave,Recog,Presented,107,113,Likert,User,1,"Was this item previously studied?","List Item Control",Recog,1::2,1556,YES,28.571428571429,-1,-1,0,0,,1
m20319677,qs1fqhjcmh,"DRM Reactivity 1_MSU",1,72,2023-10-18T17:31:45+00:00,3.7172558307648,11,Stim_A.csv,Read_B.csv,"Read C",Read,Cloud,Cloud,Recog,Control,88,117,Likert,User,1,"Was this item previously studied?","List Item Control",Recog,1::2,3577,NO,28.571428571429,-1,-1,0,0,,1
m20319677,qs1fqhjcmh,"DRM Reactivity 1_MSU",1,73,2023-10-18T17:31:48+00:00,3.0477521419525,11,Stim_A.csv,Read_B.csv,"Read C",Read,Lipstick,Lipstick,Recog,Presented,142,140,Likert,User,1,"Was this item previously studied?","Critical Lure Control",Recog,1::2,2909,YES,18.181818181818,-1,-1,0,0,,1
m20319677,qs1fqhjcmh,"DRM Reactivity 1_MSU",1,74,2023-10-18T17:31:49+00:00,1.714409828186,11,Stim_A.csv,Read_B.csv,"Read C",Read,Ocean,Ocean,Recog,Presented,104,99,Likert,User,1,"Was this item previously studied?","List Item Control",Recog,1::2,1579,YES,25,-1,-1,0,0,,1
m20319677,qs1fqhjcmh,"DRM Reactivity 1_MSU",1,75,2023-10-18T17:31:51+00:00,1.8917491436005,11,Stim_A.csv,Read_B.csv,"Read C",Read,Shark,Shark,Recog,Presented,139,63,Likert,User,1,"Was this item previously studied?","List Item Sans F",Recog,1::2,1758,YES,25,-1,-1,0,0,,1
m20319677,qs1fqhjcmh,"DRM Reactivity 1_MSU",1,76,2023-10-18T17:31:54+00:00,2.5196118354797,11,Stim_A.csv,Read_B.csv,"Read C",Read,Kiwi,Kiwi,Recog,Control,56,50,Likert,User,1,"Was this item previously studied?","List Item Sans F",Recog,1::2,2382,NO,0,-1,-1,0,0,,1
m20319677,qs1fqhjcmh,"DRM Reactivity 1_MSU",1,77,2023-10-18T17:31:56+00:00,2.0081610679626,11,Stim_A.csv,Read_B.csv,"Read C",Read,Orange,Orange,Recog,Control,50,137,Likert,User,1,"Was this item previously studied?","Critical Lure Control",Recog,1::2,1877,NO,25,-1,-1,0,0,,1
m20319677,qs1fqhjcmh,"DRM Reactivity 1_MSU",1,78,2023-10-18T17:31:57+00:00,1.5481481552124,11,Stim_A.csv,Read_B.csv,"Read C",Read,Cat,Cat,Recog,Presented,129,144,Likert,User,1,"Was this item previously studied?","Critical Lure Control",Recog,1::2,1418,NO,0,-1,-1,0,0,,1
m20319677,qs1fqhjcmh,"DRM Reactivity 1_MSU",1,79,2023-10-18T17:31:59+00:00,1.7758038043976,11,Stim_A.csv,Read_B.csv,"Read C",Read,Basement,Basement,Recog,Control,74,112,Likert,User,1,"Was this item previously studied?","List Item Control",Recog,1::2,1642,NO,20,-1,-1,0,0,,1
m20319677,qs1fqhjcmh,"DRM Reactivity 1_MSU",1,80,2023-10-18T17:32:02+00:00,2.5672152042389,11,Stim_A.csv,Read_B.csv,"Read C",Read,Lake,Lake,Recog,Presented,106,118,Likert,User,1,"Was this item previously studied?","List Item Control",Recog,1::2,2439,YES,28.571428571429,-1,-1,0,0,,1
m20319677,qs1fqhjcmh,"DRM Reactivity 1_MSU",1,81,2023-10-18T17:32:05+00:00,2.8147099018097,11,Stim_A.csv,Read_B.csv,"Read C",Read,Slow,Slow,Recog,Control,71,60,Likert,User,1,"Was this item previously studied?","List Item Standard F",Recog,1::2,2681,NO,33.333333333333,-1,-1,0,0,,1
m20319677,qs1fqhjcmh,"DRM Reactivity 1_MSU",1,82,2023-10-18T17:32:07+00:00,2.186224937439,11,Stim_A.csv,Read_B.csv,"Read C",Read,Canyon,Canyon,Recog,Presented,99,127,Likert,User,1,"Was this item previously studied?","Critical Lure Control",Recog,1::2,2053,YES,22.222222222222,-1,-1,0,0,,1
m20319677,qs1fqhjcmh,"DRM Reactivity 1_MSU",1,83,2023-10-18T17:32:11+00:00,3.9248270988464,11,Stim_A.csv,Read_B.csv,"Read C",Read,Cherry,Cherry,Recog,Control,59,90,Likert,User,1,"Was this item previously studied?","List Item Control",Recog,1::2,3790,NO,0,-1,-1,0,0,,1
m20319677,qs1fqhjcmh,"DRM Reactivity 1_MSU",1,84,2023-10-18T17:32:13+00:00,2.386109828949,11,Stim_A.csv,Read_B.csv,"Read C",Read,Cow,Cow,Recog,Presented,132,122,Likert,User,1,"Was this item previously studied?","Critical Lure Control",Recog,1::2,2241,YES,0,-1,-1,0,0,,1
m20319677,qs1fqhjcmh,"DRM Reactivity 1_MSU",1,85,2023-10-18T17:32:14+00:00,1.2238512039185,11,Stim_A.csv,Read_B.csv,"Read C",Read,Blue,Blue,Recog,Presented,137,110,Likert,User,1,"Was this item previously studied?","List Item Control",Recog,1::2,1092,YES,28.571428571429,-1,-1,0,0,,1
m20319677,qs1fqhjcmh,"DRM Reactivity 1_MSU",1,86,2023-10-18T17:32:17+00:00,3.2362489700317,11,Stim_A.csv,Read_B.csv,"Read C",Read,Lemon,Lemon,Recog,Control,60,79,Likert,User,1,"Was this item previously studied?","List Item Standard F",Recog,1::2,3097,NO,28.571428571429,-1,-1,0,0,,1
m20319677,qs1fqhjcmh,"DRM Reactivity 1_MSU",1,87,2023-10-18T17:32:19+00:00,2.0012679100037,11,Stim_A.csv,Read_B.csv,"Read C",Read,Attic,Attic,Recog,Control,82,93,Likert,User,1,"Was this item previously studied?","List Item Control",Recog,1::2,1794,NO,0,-1,-1,0,0,,1
m20319677,qs1fqhjcmh,"DRM Reactivity 1_MSU",1,88,2023-10-18T17:32:22+00:00,2.1435270309448,11,Stim_A.csv,Read_B.csv,"Read C",Read,Document,Document,Recog,Control,63,123,Likert,User,1,"Was this item previously studied?","Critical Lure Control",Recog,1::2,1993,NO,20,-1,-1,0,0,,1
m20319677,qs1fqhjcmh,"DRM Reactivity 1_MSU",1,89,2023-10-18T17:32:23+00:00,1.4199290275574,11,Stim_A.csv,Read_B.csv,"Read C",Read,Basket,Basket,Recog,Control,89,120,Likert,User,1,"Was this item previously studied?","Critical Lure Control",Recog,1::2,1285,NO,0,-1,-1,0,0,,1
m20319677,qs1fqhjcmh,"DRM Reactivity 1_MSU",1,90,2023-10-18T17:32:26+00:00,2.7796649932861,11,Stim_A.csv,Read_B.csv,"Read C",Read,Mountain,Mountain,Recog,Presented,103,107,Likert,User,1,"Was this item previously studied?","List Item Control",Recog,1::2,2640,YES,0,-1,-1,0,0,,1
m20319677,qs1fqhjcmh,"DRM Reactivity 1_MSU",1,91,2023-10-18T17:32:30+00:00,3.7498700618744,11,Stim_A.csv,Read_B.csv,"Read C",Read,Elevator,Elevator,Recog,Control,81,62,Likert,User,1,"Was this item previously studied?","List Item Sans F",Recog,1::2,3479,NO,20,-1,-1,0,0,,1
m20319677,qs1fqhjcmh,"DRM Reactivity 1_MSU",1,92,2023-10-18T17:32:33+00:00,3.416277885437,11,Stim_A.csv,Read_B.csv,"Read C",Read,Tent,Tent,Recog,Control,94,92,Likert,User,1,"Was this item previously studied?","List Item Control",Recog,1::2,3278,NO,33.333333333333,-1,-1,0,0,,1
m20319677,qs1fqhjcmh,"DRM Reactivity 1_MSU",1,93,2023-10-18T17:32:36+00:00,2.8204290866852,11,Stim_A.csv,Read_B.csv,"Read C",Read,Shirt,Shirt,Recog,Control,66,81,Likert,User,1,"Was this item previously studied?","Critical Lure Standard F",Recog,1::2,2614,YES,25,-1,-1,0,0,,1
m20319677,qs1fqhjcmh,"DRM Reactivity 1_MSU",1,94,2023-10-18T17:32:38+00:00,2.6551840305328,11,Stim_A.csv,Read_B.csv,"Read C",Read,Frog,Frog,Recog,Control,61,70,Likert,User,1,"Was this item previously studied?","List Item Sans F",Recog,1::2,2499,NO,33.333333333333,-1,-1,0,0,,1
m20319677,qs1fqhjcmh,"DRM Reactivity 1_MSU",1,95,2023-10-18T17:32:41+00:00,2.4554398059845,11,Stim_A.csv,Read_B.csv,"Read C",Read,Island,Island,Recog,Presented,105,130,Likert,User,1,"Was this item previously studied?","Critical Lure Control",Recog,1::2,1982,YES,22.222222222222,-1,-1,0,0,,1
m20319677,qs1fqhjcmh,"DRM Reactivity 1_MSU",1,96,2023-10-18T17:32:43+00:00,2.2928340435028,11,Stim_A.csv,Read_B.csv,"Read C",Read,Hill,Hill,Recog,Presented,102,75,Likert,User,1,"Was this item previously studied?","List Item Sans F",Recog,1::2,2157,YES,0,-1,-1,0,0,,1
m20319677,qs1fqhjcmh,"DRM Reactivity 1_MSU",1,97,2023-10-18T17:32:45+00:00,1.3918800354004,11,Stim_A.csv,Read_B.csv,"Read C",Read,Hockey,Hockey,Recog,Presented,112,52,Likert,User,1,"Was this item previously studied?","List Item Sans F",Recog,1::2,1259,YES,22.222222222222,-1,-1,0,0,,1
m20319677,qs1fqhjcmh,"DRM Reactivity 1_MSU",1,98,2023-10-18T17:32:47+00:00,2.6111490726471,11,Stim_A.csv,Read_B.csv,"Read C",Read,Mint,Mint,Recog,Control,65,129,Likert,User,1,"Was this item previously studied?","Critical Lure Control",Recog,1::2,2477,NO,33.333333333333,-1,-1,0,0,,1
m20319677,qs1fqhjcmh,"DRM Reactivity 1_MSU",1,99,2023-10-18T17:32:49+00:00,1.8797609806061,11,Stim_A.csv,Read_B.csv,"Read C",Read,Banana,Banana,Recog,Control,51,58,Likert,User,1,"Was this item previously studied?","List Item Sans F",Recog,1::2,1739,NO,25,-1,-1,0,0,,1
m20319677,qs1fqhjcmh,"DRM Reactivity 1_MSU",1,100,2023-10-18T17:32:53+00:00,3.5369079113007,11,Stim_A.csv,Read_B.csv,"Read C",Read,Dollar,Dollar,Recog,Presented,116,143,Likert,User,1,"Was this item previously studied?","Critical Lure Control",Recog,1::2,3357,YES,0,-1,-1,0,0,,1
m20319677,qs1fqhjcmh,"DRM Reactivity 1_MSU",1,101,2023-10-18T17:32:55+00:00,2.2294101715088,11,Stim_A.csv,Read_B.csv,"Read C",Read,Ballet,Ballet,Recog,Presented,120,84,Likert,User,1,"Was this item previously studied?","Critical Lure Sans F",Recog,1::2,2093,NO,0,-1,-1,0,0,,1
m20319677,qs1fqhjcmh,"DRM Reactivity 1_MSU",1,102,2023-10-18T17:32:57+00:00,1.7177119255066,11,Stim_A.csv,Read_B.csv,"Read C",Read,Mango,Mango,Recog,Control,58,89,Likert,User,1,"Was this item previously studied?","Critical Lure Standard F",Recog,1::2,1576,NO,57.142857142857,-1,-1,0,0,,1
m20319677,qs1fqhjcmh,"DRM Reactivity 1_MSU",1,103,2023-10-18T17:32:59+00:00,2.3887720108032,11,Stim_A.csv,Read_B.csv,"Read C",Read,Mayor,Mayor,Recog,Presented,110,69,Likert,User,1,"Was this item previously studied?","List Item Sans F",Recog,1::2,2251,YES,25,-1,-1,0,0,,1
m20319677,qs1fqhjcmh,"DRM Reactivity 1_MSU",1,104,2023-10-18T17:33:01+00:00,1.5583019256592,11,Stim_A.csv,Read_B.csv,"Read C",Read,Lion,Lion,Recog,Presented,122,116,Likert,User,1,"Was this item previously studied?","List Item Control",Recog,1::2,1430,YES,0,-1,-1,0,0,,1
m20319677,qs1fqhjcmh,"DRM Reactivity 1_MSU",1,105,2023-10-18T17:33:04+00:00,3.1087069511414,11,Stim_A.csv,Read_B.csv,"Read C",Read,Apple,Apple,Recog,Control,49,83,Likert,User,1,"Was this item previously studied?","Critical Lure Standard F",Recog,1::2,2970,NO,0,-1,-1,0,0,,1
m20319677,qs1fqhjcmh,"DRM Reactivity 1_MSU",1,106,2023-10-18T17:33:08+00:00,3.9441521167755,11,Stim_A.csv,Read_B.csv,"Read C",Read,Sandal,Sandal,Recog,Presented,133,124,Likert,User,1,"Was this item previously studied?","Critical Lure Control",Recog,1::2,3807,NO,25,-1,-1,0,0,,1
m20319677,qs1fqhjcmh,"DRM Reactivity 1_MSU",1,107,2023-10-18T17:33:10+00:00,2.7761268615723,11,Stim_A.csv,Read_B.csv,"Read C",Read,Tiger,Tiger,Recog,Presented,121,115,Likert,User,1,"Was this item previously studied?","List Item Control",Recog,1::2,2646,YES,25,-1,-1,0,0,,1
m20319677,qs1fqhjcmh,"DRM Reactivity 1_MSU",1,108,2023-10-18T17:33:15+00:00,4.1436340808868,11,Stim_A.csv,Read_B.csv,"Read C",Read,Pear,Pear,Recog,Control,53,134,Likert,User,1,"Was this item previously studied?","Critical Lure Control",Recog,1::2,3809,NO,0,-1,-1,0,0,,1
m20319677,qs1fqhjcmh,"DRM Reactivity 1_MSU",1,109,2023-10-18T17:33:17+00:00,2.3013291358948,11,Stim_A.csv,Read_B.csv,"Read C",Read,Rock,Rock,Recog,Presented,101,78,Likert,User,1,"Was this item previously studied?","List Item Standard F",Recog,1::2,2153,YES,0,-1,-1,0,0,,1
m20319677,qs1fqhjcmh,"DRM Reactivity 1_MSU",1,110,2023-10-18T17:33:19+00:00,1.7672009468079,11,Stim_A.csv,Read_B.csv,"Read C",Read,Zebra,Zebra,Recog,Presented,123,54,Likert,User,1,"Was this item previously studied?","List Item Standard F",Recog,1::2,1619,YES,25,-1,-1,0,0,,1
m20319677,qs1fqhjcmh,"DRM Reactivity 1_MSU",1,111,2023-10-18T17:33:21+00:00,2.5676259994507,11,Stim_A.csv,Read_B.csv,"Read C",Read,Door,Door,Recog,Control,78,59,Likert,User,1,"Was this item previously studied?","List Item Standard F",Recog,1::2,2439,NO,33.333333333333,-1,-1,0,0,,1
m20319677,qs1fqhjcmh,"DRM Reactivity 1_MSU",1,112,2023-10-18T17:33:24+00:00,3.0475358963013,11,Stim_A.csv,Read_B.csv,"Read C",Read,Card,Card,Recog,Control,85,109,Likert,User,1,"Was this item previously studied?","List Item Control",Recog,1::2,2867,NO,0,-1,-1,0,0,,1
m20319677,qs1fqhjcmh,"DRM Reactivity 1_MSU",1,113,2023-10-18T17:33:29+00:00,4.5290360450745,11,Stim_A.csv,Read_B.csv,"Read C",Read,Salt,Salt,Recog,Control,87,56,Likert,User,1,"Was this item previously studied?","List Item Sans F",Recog,1::2,4367,YES,28.571428571429,-1,-1,0,0,,1
m20319677,qs1fqhjcmh,"DRM Reactivity 1_MSU",1,114,2023-10-18T17:33:31+00:00,2.5601699352264,11,Stim_A.csv,Read_B.csv,"Read C",Read,Donkey,Donkey,Recog,Presented,130,145,Likert,User,1,"Was this item previously studied?","Critical Lure Control",Recog,1::2,2427,NO,25,-1,-1,0,0,,1
m20319677,qs1fqhjcmh,"DRM Reactivity 1_MSU",1,115,2023-10-18T17:33:34+00:00,2.3327369689941,11,Stim_A.csv,Read_B.csv,"Read C",Read,Girraffe,Girraffe,Recog,Presented,127,85,Likert,User,1,"Was this item previously studied?","Critical Lure Standard F",Recog,1::2,2200,YES,18.181818181818,-1,-1,0,0,,1
m20319677,qs1fqhjcmh,"DRM Reactivity 1_MSU",1,116,2023-10-18T17:33:35+00:00,1.4010961055756,11,Stim_A.csv,Read_B.csv,"Read C",Read,Jeep,Jeep,Recog,Presented,119,82,Likert,User,1,"Was this item previously studied?","Critical Lure Sans F",Recog,1::2,1271,YES,28.571428571429,-1,-1,0,0,,1
m20319677,qs1fqhjcmh,"DRM Reactivity 1_MSU",1,117,2023-10-18T17:33:38+00:00,2.9671740531921,11,Stim_A.csv,Read_B.csv,"Read C",Read,Hawk,Hawk,Recog,Control,72,104,Likert,User,1,"Was this item previously studied?","List Item Control",Recog,1::2,2820,NO,0,-1,-1,0,0,,1
m20319677,qs1fqhjcmh,"DRM Reactivity 1_MSU",1,118,2023-10-18T17:33:40+00:00,2.2850029468536,11,Stim_A.csv,Read_B.csv,"Read C",Read,Guitar,Guitar,Recog,Presented,115,119,Likert,User,1,"Was this item previously studied?","List Item Control",Recog,1::2,2146,YES,0,-1,-1,0,0,,1
m20319677,qs1fqhjcmh,"DRM Reactivity 1_MSU",1,119,2023-10-18T17:33:43+00:00,2.3547439575195,11,Stim_A.csv,Read_B.csv,"Read C",Read,Mother,Mother,Recog,Control,92,87,Likert,User,1,"Was this item previously studied?","Critical Lure Standard F",Recog,1::2,2215,NO,25,-1,-1,0,0,,1
m20319677,qs1fqhjcmh,"DRM Reactivity 1_MSU",1,120,2023-10-18T17:33:44+00:00,1.5438220500946,11,Stim_A.csv,Read_B.csv,"Read C",Read,Phone,Phone,Recog,Control,95,67,Likert,User,1,"Was this item previously studied?","List Item Standard F",Recog,1::2,1411,NO,28.571428571429,-1,-1,0,0,,1
m20319677,qs1fqhjcmh,"DRM Reactivity 1_MSU",1,121,2023-10-18T17:33:47+00:00,2.3507730960846,11,Stim_A.csv,Read_B.csv,"Read C",Read,Milk,Milk,Recog,Presented,118,102,Likert,User,1,"Was this item previously studied?","List Item Control",Recog,1::2,2192,YES,0,-1,-1,0,0,,1
m20319677,qs1fqhjcmh,"DRM Reactivity 1_MSU",1,122,2023-10-18T17:33:49+00:00,2.2685809135437,11,Stim_A.csv,Read_B.csv,"Read C",Read,Window,Window,Recog,Control,76,77,Likert,User,1,"Was this item previously studied?","List Item Standard F",Recog,1::2,2133,NO,50,-1,-1,0,0,,1
m20319677,qs1fqhjcmh,"DRM Reactivity 1_MSU",1,123,2023-10-18T17:33:51+00:00,2.3663330078125,11,Stim_A.csv,Read_B.csv,"Read C",Read,Wolf,Wolf,Recog,Presented,125,114,Likert,User,1,"Was this item previously studied?","List Item Control",Recog,1::2,2233,YES,0,-1,-1,0,0,,1
m20319677,qs1fqhjcmh,"DRM Reactivity 1_MSU",1,124,2023-10-18T17:33:54+00:00,2.6821069717407,11,Stim_A.csv,Read_B.csv,"Read C",Read,Dirt,Dirt,Recog,Control,64,132,Likert,User,1,"Was this item previously studied?","Critical Lure Control",Recog,1::2,2539,NO,0,-1,-1,0,0,,1
m20319677,qs1fqhjcmh,"DRM Reactivity 1_MSU",1,125,2023-10-18T17:33:56+00:00,1.6798439025879,11,Stim_A.csv,Read_B.csv,"Read C",Read,Eye,Eye,Recog,Presented,144,64,Likert,User,1,"Was this item previously studied?","List Item Sans F",Recog,1::2,1538,NO,0,-1,-1,0,0,,1
m20319677,qs1fqhjcmh,"DRM Reactivity 1_MSU",1,126,2023-10-18T17:33:57+00:00,1.4823939800262,11,Stim_A.csv,Read_B.csv,"Read C",Read,Bean,Bean,Recog,Control,70,71,Likert,User,1,"Was this item previously studied?","List Item Standard F",Recog,1::2,1352,NO,33.333333333333,-1,-1,0,0,,1
m20319677,qs1fqhjcmh,"DRM Reactivity 1_MSU",1,127,2023-10-18T17:34:00+00:00,2.9925680160522,11,Stim_A.csv,Read_B.csv,"Read C",Read,River,River,Recog,Presented,98,97,Likert,User,1,"Was this item previously studied?","List Item Control",Recog,1::2,2853,YES,25,-1,-1,0,0,,1
m20319677,qs1fqhjcmh,"DRM Reactivity 1_MSU",1,128,2023-10-18T17:34:02+00:00,1.5451121330261,11,Stim_A.csv,Read_B.csv,"Read C",Read,Viper,Viper,Recog,Presented,140,61,Likert,User,1,"Was this item previously studied?","List Item Standard F",Recog,1::2,1412,YES,25,-1,-1,0,0,,1
m20319677,qs1fqhjcmh,"DRM Reactivity 1_MSU",1,129,2023-10-18T17:34:04+00:00,2.7409658432007,11,Stim_A.csv,Read_B.csv,"Read C",Read,Rest,Rest,Recog,Control,96,126,Likert,User,1,"Was this item previously studied?","Critical Lure Control",Recog,1::2,2608,NO,0,-1,-1,0,0,,1
m20319677,qs1fqhjcmh,"DRM Reactivity 1_MSU",1,130,2023-10-18T17:34:07+00:00,2.9985010623932,11,Stim_A.csv,Read_B.csv,"Read C",Read,Oxygen,Oxygen,Recog,Presented,114,101,Likert,User,1,"Was this item previously studied?","List Item Control",Recog,1::2,2858,NO,25,-1,-1,0,0,,1
m20319677,qs1fqhjcmh,"DRM Reactivity 1_MSU",1,131,2023-10-18T17:34:09+00:00,2.2258620262146,11,Stim_A.csv,Read_B.csv,"Read C",Read,Cruise,Cruise,Recog,Presented,138,95,Likert,User,1,"Was this item previously studied?","List Item Control",Recog,1::2,2082,YES,22.222222222222,-1,-1,0,0,,1
m20319677,qs1fqhjcmh,"DRM Reactivity 1_MSU",1,132,2023-10-18T17:34:12+00:00,2.965075969696,11,Stim_A.csv,Read_B.csv,"Read C",Read,Valley,Valley,Recog,Presented,97,141,Likert,User,1,"Was this item previously studied?","Critical Lure Control",Recog,1::2,2823,YES,22.222222222222,-1,-1,0,0,,1
m20319677,qs1fqhjcmh,"DRM Reactivity 1_MSU",1,133,2023-10-18T17:34:15+00:00,2.2623660564423,11,Stim_A.csv,Read_B.csv,"Read C",Read,Plum,Plum,Recog,Control,57,138,Likert,User,1,"Was this item previously studied?","Critical Lure Control",Recog,1::2,2127,NO,0,-1,-1,0,0,,1
m20319677,qs1fqhjcmh,"DRM Reactivity 1_MSU",1,134,2023-10-18T17:34:17+00:00,1.9599289894104,11,Stim_A.csv,Read_B.csv,"Read C",Read,Student,Student,Recog,Presented,111,80,Likert,User,1,"Was this item previously studied?","Critical Lure Sans F",Recog,1::2,1825,YES,20,-1,-1,0,0,,1
m20319677,qs1fqhjcmh,"DRM Reactivity 1_MSU",1,135,2023-10-18T17:34:19+00:00,2.1684911251068,11,Stim_A.csv,Read_B.csv,"Read C",Read,Wall,Wall,Recog,Control,77,74,Likert,User,1,"Was this item previously studied?","List Item Sans F",Recog,1::2,1971,NO,0,-1,-1,0,0,,1
m20319677,qs1fqhjcmh,"DRM Reactivity 1_MSU",1,136,2023-10-18T17:34:21+00:00,2.6046059131622,11,Stim_A.csv,Read_B.csv,"Read C",Read,Bear,Bear,Recog,Presented,131,51,Likert,User,1,"Was this item previously studied?","List Item Sans F",Recog,1::2,2254,YES,28.571428571429,-1,-1,0,0,,1
m20319677,qs1fqhjcmh,"DRM Reactivity 1_MSU",1,137,2023-10-18T17:34:24+00:00,2.2027139663696,11,Stim_A.csv,Read_B.csv,"Read C",Read,Strawberry,Strawberry,Recog,Control,55,139,Likert,User,1,"Was this item previously studied?","Critical Lure Control",Recog,1::2,2063,NO,0,-1,-1,0,0,,1
m20319677,qs1fqhjcmh,"DRM Reactivity 1_MSU",1,138,2023-10-18T17:34:28+00:00,4.2442500591278,11,Stim_A.csv,Read_B.csv,"Read C",Read,Bathroom,Bathroom,Recog,Control,75,98,Likert,User,1,"Was this item previously studied?","List Item Control",Recog,1::2,4107,YES,0,-1,-1,0,0,,1
m20319677,qs1fqhjcmh,"DRM Reactivity 1_MSU",1,139,2023-10-18T17:34:30+00:00,1.6162190437317,11,Stim_A.csv,Read_B.csv,"Read C",Read,Cheetah,Cheetah,Recog,Presented,124,68,Likert,User,1,"Was this item previously studied?","List Item Sans F",Recog,1::2,1470,YES,20,-1,-1,0,0,,1
m20319677,qs1fqhjcmh,"DRM Reactivity 1_MSU",1,140,2023-10-18T17:34:32+00:00,2.4581909179688,11,Stim_A.csv,Read_B.csv,"Read C",Read,Peach,Peach,Recog,Control,54,131,Likert,User,1,"Was this item previously studied?","Critical Lure Control",Recog,1::2,2315,NO,0,-1,-1,0,0,,1
m20319677,qs1fqhjcmh,"DRM Reactivity 1_MSU",1,141,2023-10-18T17:34:35+00:00,2.7786450386047,11,Stim_A.csv,Read_B.csv,"Read C",Read,Elephant,Elephant,Recog,Presented,128,91,Likert,User,1,"Was this item previously studied?","List Item Control",Recog,1::2,2645,YES,18.181818181818,-1,-1,0,0,,1
m20319677,qs1fqhjcmh,"DRM Reactivity 1_MSU",1,142,2023-10-18T17:34:37+00:00,2.4810769557953,11,Stim_A.csv,Read_B.csv,"Read C",Read,Flute,Flute,Recog,Control,86,53,Likert,User,1,"Was this item previously studied?","List Item Standard F",Recog,1::2,2350,NO,0,-1,-1,0,0,,1
m20319677,qs1fqhjcmh,"DRM Reactivity 1_MSU",1,143,2023-10-18T17:34:40+00:00,2.3462948799133,11,Stim_A.csv,Read_B.csv,"Read C",Read,Ceiling,Ceiling,Recog,Control,73,100,Likert,User,1,"Was this item previously studied?","List Item Control",Recog,1::2,2193,YES,20,-1,-1,0,0,,1
m20319677,qs1fqhjcmh,"DRM Reactivity 1_MSU",1,144,2023-10-18T17:34:44+00:00,4.2729902267456,11,Stim_A.csv,Read_B.csv,"Read C",Read,Hallway,Hallway,Recog,Control,83,133,Likert,User,1,"Was this item previously studied?","Critical Lure Control",Recog,1::2,4137,NO,0,-1,-1,0,0,,1
m20319677,qs1fqhjcmh,"DRM Reactivity 1_MSU",1,145,2023-10-18T17:34:47+00:00,3.0026957988739,11,Stim_A.csv,Read_B.csv,"Read C",Read,Drill,Drill,Recog,Control,93,135,Likert,User,1,"Was this item previously studied?","Critical Lure Control",Recog,1::2,2850,YES,0,-1,-1,0,0,,1
m20319677,qs1fqhjcmh,"DRM Reactivity 1_MSU",1,146,2023-10-18T17:34:49+00:00,1.9370231628418,11,Stim_A.csv,Read_B.csv,"Read C",Read,Fossil,Fossil,Recog,Control,91,142,Likert,User,1,"Was this item previously studied?","Critical Lure Control",Recog,1::2,1794,NO,25,-1,-1,0,0,,1
m20319677,qs1fqhjcmh,"DRM Reactivity 1_MSU",1,147,2023-10-18T17:34:51+00:00,2.2445619106293,11,Stim_A.csv,Read_B.csv,"Read C",Read,Rifle,Rifle,Recog,Presented,109,94,Likert,User,1,"Was this item previously studied?","List Item Control",Recog,1::2,2056,YES,25,-1,-1,0,0,,1
m20319677,qs1fqhjcmh,"DRM Reactivity 1_MSU",1,148,2023-10-18T17:34:53+00:00,2.3064510822296,11,Stim_A.csv,Read_B.csv,"Read C",Read,Parrot,Parrot,Recog,Presented,117,65,Likert,User,1,"Was this item previously studied?","List Item Standard F",Recog,1::2,2150,NO,25,-1,-1,0,0,,1
m20319677,qs1fqhjcmh,"DRM Reactivity 1_MSU",1,149,2023-10-18T17:34:56+00:00,2.6950578689575,11,Stim_A.csv,Read_B.csv,"Read C",Read,Stairs,Stairs,Recog,Control,80,103,Likert,User,1,"Was this item previously studied?","List Item Control",Recog,1::2,2555,YES,22.222222222222,-1,-1,0,0,,1
m20319677,qs1fqhjcmh,"DRM Reactivity 1_MSU",1,150,2023-10-18T17:34:58+00:00,2.1069250106812,11,Stim_A.csv,Read_B.csv,"Read C",Read,Cook,Cook,Recog,Control,90,66,Likert,User,1,"Was this item previously studied?","List Item Standard F",Recog,1::2,1959,NO,33.333333333333,-1,-1,0,0,,1
m20319677,qs1fqhjcmh,"DRM Reactivity 1_MSU",1,151,2023-10-18T17:35:00+00:00,1.8013551235199,11,Stim_A.csv,Read_B.csv,"Read C",Read,Flea,Flea,Recog,Control,69,55,Likert,User,1,"Was this item previously studied?","List Item Standard F",Recog,1::2,1574,NO,0,-1,-1,0,0,,1
m20319677,qs1fqhjcmh,"DRM Reactivity 1_MSU",1,152,2023-10-18T17:35:02+00:00,1.6362278461456,11,Stim_A.csv,Read_B.csv,"Read C",Read,Volcano,Volcano,Recog,Presented,100,57,Likert,User,1,"Was this item previously studied?","List Item Sans F",Recog,1::2,1458,YES,0,-1,-1,0,0,,1
m20319677,qs1fqhjcmh,"DRM Reactivity 1_MSU",1,153,2023-10-18T17:35:04+00:00,1.9754660129547,11,Stim_A.csv,Read_B.csv,"Read C",Read,Yellow,Yellow,Recog,Control,67,106,Likert,User,1,"Was this item previously studied?","List Item Control",Recog,1::2,1814,NO,25,-1,-1,0,0,,1
m20319677,qs1fqhjcmh,"DRM Reactivity 1_MSU",1,154,2023-10-18T17:35:06+00:00,2.4470040798187,11,Stim_A.csv,Read_B.csv,"Read C",Read,,,,,,0,Instruct,User,-,"You have completed this section. Please click next.",,Instruct7,,2299,,,-1,-1,,,,1
m20319677,qs1fqhjcmh,"DRM Reactivity 1_MSU",1,155,2023-10-18T17:35:09+00:00,3.4781739711761,11,Stim_A.csv,Read_B.csv,"Read C",Read,,,,,,0,Instruct,User,-,"The following screen will ask you a few questions abour your experience today. You must complete these questions to receive credit.",,Instruct8,,3089,,,-1,-1,,,,1
