Username,ID,ExperimentName,Session,Trial,Date,TimeDif,"Condition Number","Stimuli File","Order File","Condition Description","Condition Notes",Stimuli*Cue,Stimuli*Answer,Stimuli*Shuffle,"Stimuli*Stimuli Notes",Stimuli*Value,Procedure*Item,"Procedure*Trial Type","Procedure*Max Time","Procedure*Min Time",Procedure*Text,"Procedure*Procedure Notes",Procedure*Shuffle,Procedure*,Response*RT,Response*Response,Response*Accuracy,Response*RTfirst,Response*RTlast,Response*strictAcc,Response*lenientAcc,Response*focus,Response*Focus
M20320375,7emw5dmb52,"DRM Reactivity 1_MSU",1,1,2023-10-18T20:42:29+00:00,6.7908480167389,12,Stim_B.csv,Read_B.csv,"Read D",Read,,,,,,0,Instruct,-,5,"In this section, you will be presented with a series of words. Please study each word carefully. Your memory will be tested! Click next to continue.",Initial_Instruct,Instruct1,,6684,,,-1,-1,,,,1
M20320375,7emw5dmb52,"DRM Reactivity 1_MSU",1,2,2023-10-18T20:42:31+00:00,2.1982431411743,12,Stim_B.csv,Read_B.csv,"Read D",Read,,,,,,0,Instruct,User,-,"You will now begin the study. Click next when you are ready to begin.",,Instruct16,,2034,,,-1,-1,,,,1
M20320375,7emw5dmb52,"DRM Reactivity 1_MSU",1,3,2023-10-18T20:42:32+00:00,1.4163820743561,12,Stim_B.csv,Read_B.csv,"Read D",Read,Banana,Banana,R1,Related,3,7,Study,User,-,,Unrelated,U1,,1256,,,-1,-1,,,,1
M20320375,7emw5dmb52,"DRM Reactivity 1_MSU",1,4,2023-10-18T20:42:33+00:00,1.0100898742676,12,Stim_B.csv,Read_B.csv,"Read D",Read,Apple,Apple,R1,Related,1,8,Study,User,-,,Unrelated,U1,,855,,,-1,-1,,,,1
M20320375,7emw5dmb52,"DRM Reactivity 1_MSU",1,5,2023-10-18T20:42:34+00:00,0.77882409095764,12,Stim_B.csv,Read_B.csv,"Read D",Read,Orange,Orange,R1,Related,2,4,Study,User,-,,Unrelated,U1,,612,,,-1,-1,,,,1
M20320375,7emw5dmb52,"DRM Reactivity 1_MSU",1,6,2023-10-18T20:42:35+00:00,0.77756881713867,12,Stim_B.csv,Read_B.csv,"Read D",Read,Plum,Plum,R1,Related,9,11,Study,User,-,,Unrelated,U1,,623,,,-1,-1,,,,1
M20320375,7emw5dmb52,"DRM Reactivity 1_MSU",1,7,2023-10-18T20:42:36+00:00,0.80549120903015,12,Stim_B.csv,Read_B.csv,"Read D",Read,Lemon,Lemon,R1,Related,12,6,Study,User,-,,Unrelated,U1,,651,,,-1,-1,,,,1
M20320375,7emw5dmb52,"DRM Reactivity 1_MSU",1,8,2023-10-18T20:42:37+00:00,0.68637990951538,12,Stim_B.csv,Read_B.csv,"Read D",Read,Strawberry,Strawberry,R1,Related,7,9,Study,User,-,,Unrelated,U1,,537,,,-1,-1,,,,1
M20320375,7emw5dmb52,"DRM Reactivity 1_MSU",1,9,2023-10-18T20:42:37+00:00,0.67850208282471,12,Stim_B.csv,Read_B.csv,"Read D",Read,Cherry,Cherry,R1,Related,11,2,Study,User,-,,Unrelated,U1,,523,,,-1,-1,,,,1
M20320375,7emw5dmb52,"DRM Reactivity 1_MSU",1,10,2023-10-18T20:42:38+00:00,0.71003699302673,12,Stim_B.csv,Read_B.csv,"Read D",Read,Pear,Pear,R1,Related,5,13,Study,User,-,,Unrelated,U1,,559,,,-1,-1,,,,1
M20320375,7emw5dmb52,"DRM Reactivity 1_MSU",1,11,2023-10-18T20:42:39+00:00,0.71289396286011,12,Stim_B.csv,Read_B.csv,"Read D",Read,Mango,Mango,R1,Related,10,5,Study,User,-,,Unrelated,U1,,561,,,-1,-1,,,,1
M20320375,7emw5dmb52,"DRM Reactivity 1_MSU",1,12,2023-10-18T20:42:39+00:00,0.63120484352112,12,Stim_B.csv,Read_B.csv,"Read D",Read,Kiwi,Kiwi,R1,Related,8,10,Study,User,-,,Unrelated,U1,,481,,,-1,-1,,,,1
M20320375,7emw5dmb52,"DRM Reactivity 1_MSU",1,13,2023-10-18T20:42:40+00:00,0.66036319732666,12,Stim_B.csv,Read_B.csv,"Read D",Read,Peach,Peach,R1,Related,6,12,Study,User,-,,Unrelated,U1,,504,,,-1,-1,,,,1
M20320375,7emw5dmb52,"DRM Reactivity 1_MSU",1,14,2023-10-18T20:42:41+00:00,0.66127586364746,12,Stim_B.csv,Read_B.csv,"Read D",Read,Grape,Grape,R1,Related,4,3,Study,User,-,,Unrelated,U1,,499,,,-1,-1,,,,1
M20320375,7emw5dmb52,"DRM Reactivity 1_MSU",1,15,2023-10-18T20:42:44+00:00,3.2325310707092,12,Stim_B.csv,Read_B.csv,"Read D",Read,,,,,,0,Instruct,User,3,"You will now be presented with a new study list. Click next when you are ready to begin.",,NEXT_LIST,,3073,,,-1,-1,,,,1
M20320375,7emw5dmb52,"DRM Reactivity 1_MSU",1,16,2023-10-18T20:42:45+00:00,1.198606967926,12,Stim_B.csv,Read_B.csv,"Read D",Read,Yellow,Yellow,U1,Unrelated,19,23,Study,User,-,,Related,R1,,1052,,,-1,-1,,,,1
M20320375,7emw5dmb52,"DRM Reactivity 1_MSU",1,17,2023-10-18T20:42:46+00:00,0.59592700004578,12,Stim_B.csv,Read_B.csv,"Read D",Read,Frog,Frog,U1,Unrelated,13,14,Study,User,-,,Related,R1,,445,,,-1,-1,,,,1
M20320375,7emw5dmb52,"DRM Reactivity 1_MSU",1,18,2023-10-18T20:42:46+00:00,0.58603501319885,12,Stim_B.csv,Read_B.csv,"Read D",Read,Shirt,Shirt,U1,Unrelated,18,18,Study,User,-,,Related,R1,,436,,,-1,-1,,,,1
M20320375,7emw5dmb52,"DRM Reactivity 1_MSU",1,19,2023-10-18T20:42:47+00:00,0.77693009376526,12,Stim_B.csv,Read_B.csv,"Read D",Read,Mint,Mint,U1,Unrelated,17,24,Study,User,-,,Related,R1,,617,,,-1,-1,,,,1
M20320375,7emw5dmb52,"DRM Reactivity 1_MSU",1,20,2023-10-18T20:42:48+00:00,0.6584038734436,12,Stim_B.csv,Read_B.csv,"Read D",Read,Flea,Flea,U1,Unrelated,21,20,Study,User,-,,Related,R1,,496,,,-1,-1,,,,1
M20320375,7emw5dmb52,"DRM Reactivity 1_MSU",1,21,2023-10-18T20:42:48+00:00,0.61639308929443,12,Stim_B.csv,Read_B.csv,"Read D",Read,Dirt,Dirt,U1,Unrelated,16,16,Study,User,-,,Related,R1,,458,,,-1,-1,,,,1
M20320375,7emw5dmb52,"DRM Reactivity 1_MSU",1,22,2023-10-18T20:42:49+00:00,0.61463189125061,12,Stim_B.csv,Read_B.csv,"Read D",Read,Hawk,Hawk,U1,Unrelated,24,22,Study,User,-,,Related,R1,,456,,,-1,-1,,,,1
M20320375,7emw5dmb52,"DRM Reactivity 1_MSU",1,23,2023-10-18T20:42:49+00:00,0.58527994155884,12,Stim_B.csv,Read_B.csv,"Read D",Read,Slow,Slow,U1,Unrelated,23,25,Study,User,-,,Related,R1,,436,,,-1,-1,,,,1
M20320375,7emw5dmb52,"DRM Reactivity 1_MSU",1,24,2023-10-18T20:42:50+00:00,0.62808012962341,12,Stim_B.csv,Read_B.csv,"Read D",Read,Document,Document,U1,Unrelated,15,15,Study,User,-,,Related,R1,,472,,,-1,-1,,,,1
M20320375,7emw5dmb52,"DRM Reactivity 1_MSU",1,25,2023-10-18T20:42:51+00:00,0.58948087692261,12,Stim_B.csv,Read_B.csv,"Read D",Read,Kayak,Kayak,U1,Unrelated,20,21,Study,User,-,,Related,R1,,440,,,-1,-1,,,,1
M20320375,7emw5dmb52,"DRM Reactivity 1_MSU",1,26,2023-10-18T20:42:51+00:00,0.61222004890442,12,Stim_B.csv,Read_B.csv,"Read D",Read,Bean,Bean,U1,Unrelated,22,17,Study,User,-,,Related,R1,,455,,,-1,-1,,,,1
M20320375,7emw5dmb52,"DRM Reactivity 1_MSU",1,27,2023-10-18T20:42:52+00:00,0.57401013374329,12,Stim_B.csv,Read_B.csv,"Read D",Read,Bed,Bed,U1,Unrelated,14,19,Study,User,-,,Related,R1,,414,,,-1,-1,,,,1
M20320375,7emw5dmb52,"DRM Reactivity 1_MSU",1,28,2023-10-18T20:43:36+00:00,43.905762910843,12,Stim_B.csv,Read_B.csv,"Read D",Read,,,,,,0,Instruct,User,3,"You will now be presented with a new study list. Click next when you are ready to begin.",,NEXT_LIST,,43632,,,-1,-1,,,,1
M20320375,7emw5dmb52,"DRM Reactivity 1_MSU",1,29,2023-10-18T20:43:37+00:00,1.1917889118195,12,Stim_B.csv,Read_B.csv,"Read D",Read,Stairs,Stairs,R2,Related,32,26,Study,User,-,,Unrelated,U2,,1029,,,-1,-1,,,,1
M20320375,7emw5dmb52,"DRM Reactivity 1_MSU",1,30,2023-10-18T20:43:37+00:00,0.33006906509399,12,Stim_B.csv,Read_B.csv,"Read D",Read,Wall,Wall,R2,Related,29,27,Study,User,-,,Unrelated,U2,,183,,,-1,-1,,,,1
M20320375,7emw5dmb52,"DRM Reactivity 1_MSU",1,31,2023-10-18T20:43:38+00:00,0.4645779132843,12,Stim_B.csv,Read_B.csv,"Read D",Read,Basement,Basement,R2,Related,26,31,Study,User,-,,Unrelated,U2,,302,,,-1,-1,,,,1
M20320375,7emw5dmb52,"DRM Reactivity 1_MSU",1,32,2023-10-18T20:43:38+00:00,0.74223208427429,12,Stim_B.csv,Read_B.csv,"Read D",Read,Door,Door,R2,Related,30,34,Study,User,-,,Unrelated,U2,,593,,,-1,-1,,,,1
M20320375,7emw5dmb52,"DRM Reactivity 1_MSU",1,33,2023-10-18T20:43:39+00:00,0.31940007209778,12,Stim_B.csv,Read_B.csv,"Read D",Read,Window,Window,R2,Related,28,28,Study,User,-,,Unrelated,U2,,164,,,-1,-1,,,,1
M20320375,7emw5dmb52,"DRM Reactivity 1_MSU",1,34,2023-10-18T20:43:39+00:00,0.29262804985046,12,Stim_B.csv,Read_B.csv,"Read D",Read,Floor,Floor,R2,Related,31,35,Study,User,-,,Unrelated,U2,,137,,,-1,-1,,,,1
M20320375,7emw5dmb52,"DRM Reactivity 1_MSU",1,35,2023-10-18T20:43:39+00:00,0.29093194007874,12,Stim_B.csv,Read_B.csv,"Read D",Read,Elevator,Elevator,R2,Related,33,30,Study,User,-,,Unrelated,U2,,141,,,-1,-1,,,,1
M20320375,7emw5dmb52,"DRM Reactivity 1_MSU",1,36,2023-10-18T20:43:40+00:00,0.58870887756348,12,Stim_B.csv,Read_B.csv,"Read D",Read,Hallway,Hallway,R2,Related,35,36,Study,User,-,,Unrelated,U2,,434,,,-1,-1,,,,1
M20320375,7emw5dmb52,"DRM Reactivity 1_MSU",1,37,2023-10-18T20:43:40+00:00,0.31314301490784,12,Stim_B.csv,Read_B.csv,"Read D",Read,Bathroom,Bathroom,R2,Related,27,33,Study,User,-,,Unrelated,U2,,160,,,-1,-1,,,,1
M20320375,7emw5dmb52,"DRM Reactivity 1_MSU",1,38,2023-10-18T20:43:41+00:00,0.5493791103363,12,Stim_B.csv,Read_B.csv,"Read D",Read,Roof,Roof,R2,Related,36,32,Study,User,-,,Unrelated,U2,,396,,,-1,-1,,,,1
M20320375,7emw5dmb52,"DRM Reactivity 1_MSU",1,39,2023-10-18T20:43:41+00:00,0.58447289466858,12,Stim_B.csv,Read_B.csv,"Read D",Read,Ceiling,Ceiling,R2,Related,25,29,Study,User,-,,Unrelated,U2,,422,,,-1,-1,,,,1
M20320375,7emw5dmb52,"DRM Reactivity 1_MSU",1,40,2023-10-18T20:43:42+00:00,0.58553194999695,12,Stim_B.csv,Read_B.csv,"Read D",Read,Attic,Attic,R2,Related,34,37,Study,User,-,,Unrelated,U2,,415,,,-1,-1,,,,1
M20320375,7emw5dmb52,"DRM Reactivity 1_MSU",1,41,2023-10-18T20:44:16+00:00,33.664833068848,12,Stim_B.csv,Read_B.csv,"Read D",Read,,,,,,0,Instruct,User,3,"You will now be presented with a new study list. Click next when you are ready to begin.",,NEXT_LIST,,33491,,,-1,-1,,,,1
M20320375,7emw5dmb52,"DRM Reactivity 1_MSU",1,42,2023-10-18T20:44:17+00:00,1.544429063797,12,Stim_B.csv,Read_B.csv,"Read D",Read,Phone,Phone,U2,Unrelated,47,39,Study,User,-,,Related,R2,,1383,,,-1,-1,,,,1
M20320375,7emw5dmb52,"DRM Reactivity 1_MSU",1,43,2023-10-18T20:44:18+00:00,0.54626393318176,12,Stim_B.csv,Read_B.csv,"Read D",Read,Fossil,Fossil,U2,Unrelated,43,47,Study,User,-,,Related,R2,,386,,,-1,-1,,,,1
M20320375,7emw5dmb52,"DRM Reactivity 1_MSU",1,44,2023-10-18T20:44:18+00:00,0.38970303535461,12,Stim_B.csv,Read_B.csv,"Read D",Read,Tent,Tent,U2,Unrelated,46,49,Study,User,-,,Related,R2,,232,,,-1,-1,,,,1
M20320375,7emw5dmb52,"DRM Reactivity 1_MSU",1,45,2023-10-18T20:44:19+00:00,0.41920804977417,12,Stim_B.csv,Read_B.csv,"Read D",Read,Cloud,Cloud,U2,Unrelated,40,40,Study,User,-,,Related,R2,,264,,,-1,-1,,,,1
M20320375,7emw5dmb52,"DRM Reactivity 1_MSU",1,46,2023-10-18T20:44:19+00:00,0.42238092422485,12,Stim_B.csv,Read_B.csv,"Read D",Read,Mother,Mother,U2,Unrelated,44,45,Study,User,-,,Related,R2,,257,,,-1,-1,,,,1
M20320375,7emw5dmb52,"DRM Reactivity 1_MSU",1,47,2023-10-18T20:44:19+00:00,0.35784292221069,12,Stim_B.csv,Read_B.csv,"Read D",Read,Basket,Basket,U2,Unrelated,41,43,Study,User,-,,Related,R2,,214,,,-1,-1,,,,1
M20320375,7emw5dmb52,"DRM Reactivity 1_MSU",1,48,2023-10-18T20:44:20+00:00,0.39914321899414,12,Stim_B.csv,Read_B.csv,"Read D",Read,Rest,Rest,U2,Unrelated,48,38,Study,User,-,,Related,R2,,217,,,-1,-1,,,,1
M20320375,7emw5dmb52,"DRM Reactivity 1_MSU",1,49,2023-10-18T20:44:20+00:00,0.36324882507324,12,Stim_B.csv,Read_B.csv,"Read D",Read,Salt,Salt,U2,Unrelated,39,42,Study,User,-,,Related,R2,,204,,,-1,-1,,,,1
M20320375,7emw5dmb52,"DRM Reactivity 1_MSU",1,50,2023-10-18T20:44:20+00:00,0.34589815139771,12,Stim_B.csv,Read_B.csv,"Read D",Read,Card,Card,U2,Unrelated,37,41,Study,User,-,,Related,R2,,194,,,-1,-1,,,,1
M20320375,7emw5dmb52,"DRM Reactivity 1_MSU",1,51,2023-10-18T20:44:21+00:00,0.35634994506836,12,Stim_B.csv,Read_B.csv,"Read D",Read,Flute,Flute,U2,Unrelated,38,44,Study,User,-,,Related,R2,,211,,,-1,-1,,,,1
M20320375,7emw5dmb52,"DRM Reactivity 1_MSU",1,52,2023-10-18T20:44:21+00:00,0.33311295509338,12,Stim_B.csv,Read_B.csv,"Read D",Read,Drill,Drill,U2,Unrelated,45,46,Study,User,-,,Related,R2,,187,,,-1,-1,,,,1
M20320375,7emw5dmb52,"DRM Reactivity 1_MSU",1,53,2023-10-18T20:44:21+00:00,0.31160402297974,12,Stim_B.csv,Read_B.csv,"Read D",Read,Cook,Cook,U2,Unrelated,42,48,Study,User,-,,Related,R2,,164,,,-1,-1,,,,1
M20320375,7emw5dmb52,"DRM Reactivity 1_MSU",1,54,2023-10-18T20:44:23+00:00,1.1100540161133,12,Stim_B.csv,Read_B.csv,"Read D",Read,,,,,,0,Instruct,User,-,"You have completed this section. Please click next.",,Instruct166,,962,,,-1,-1,,,,1
M20320375,7emw5dmb52,"DRM Reactivity 1_MSU",1,55,2023-10-18T20:46:23+00:00,120.27934098244,12,Stim_B.csv,Read_B.csv,"Read D",Read,,,,,,0,FreeRecall,120,120,"Please list the 50 US States in alphabetical order. The computer will automatically advance to the next screen in 2 minutes.",,FILLER,,120000,"Alabama Alaska Arizona Arkansas California Colorado Connecticut Delaware Florida Georgia Hawaii Idaho Illinois Indiana Iowa Kansas Kentucky Louisiana Maine Maryland Massachusetts Michigan Minnesota Mississippi Missouri Montana Nebraska Nevada New Hampshire New Jersey New Mexico New York North Carolina North Dakota Ohio Oklahoma Oregon Pennsylvania Rhode Island South Carolina South Dakota Tennessee Texas Utah Vermont Virginia Washington West Virginia Wisconsin Wyoming",0,68351,81052,0,0,,0.863
M20320375,7emw5dmb52,"DRM Reactivity 1_MSU",1,56,2023-10-18T20:46:44+00:00,21.000447034836,12,Stim_B.csv,Read_B.csv,"Read D",Read,,,,,,0,Instruct,User,-,"You have completed this section. Please click next.",,Instruct166,,20608,,,-1,-1,,,,1
M20320375,7emw5dmb52,"DRM Reactivity 1_MSU",1,57,2023-10-18T20:48:45+00:00,121.43043684959,12,Stim_B.csv,Read_B.csv,"Read D",Read,,,,,,0,Instruct,User,10,"Your memory will now be tested. You will be presented with a series of words. If the word on the screen was previously studied, please select YES. If the word was not studied, select NO. PLEASE DO NOT SKIP ITEMS! Click next when you are ready to begin.",,,,121136,,,-1,-1,,,,1
M20320375,7emw5dmb52,"DRM Reactivity 1_MSU",1,58,2023-10-18T20:48:49+00:00,3.6524980068207,12,Stim_B.csv,Read_B.csv,"Read D",Read,Lemon,Lemon,Recog,Presented,108,72,Likert,User,1,"Was this item previously studied?","List Item Standard F",Recog,1::2,3449,YES,25,-1,-1,0,0,,1
M20320375,7emw5dmb52,"DRM Reactivity 1_MSU",1,59,2023-10-18T20:48:51+00:00,2.508828163147,12,Stim_B.csv,Read_B.csv,"Read D",Read,Glacier,Glacier,Recog,Control,60,87,Likert,User,1,"Was this item previously studied?","Critical Lure Standard F",Recog,1::2,2350,NO,0,-1,-1,0,0,,1
M20320375,7emw5dmb52,"DRM Reactivity 1_MSU",1,60,2023-10-18T20:48:54+00:00,2.6213719844818,12,Stim_B.csv,Read_B.csv,"Read D",Read,Cook,Cook,Recog,Presented,138,138,Likert,User,1,"Was this item previously studied?","Critical Lure Control",Recog,1::2,2461,NO,33.333333333333,-1,-1,0,0,,1
M20320375,7emw5dmb52,"DRM Reactivity 1_MSU",1,61,2023-10-18T20:48:57+00:00,2.6066229343414,12,Stim_B.csv,Read_B.csv,"Read D",Read,Shark,Shark,Recog,Control,91,114,Likert,User,1,"Was this item previously studied?","List Item Control",Recog,1::2,2449,YES,25,-1,-1,0,0,,1
M20320375,7emw5dmb52,"DRM Reactivity 1_MSU",1,62,2023-10-18T20:48:59+00:00,2.3080539703369,12,Stim_B.csv,Read_B.csv,"Read D",Read,Grape,Grape,Recog,Presented,100,99,Likert,User,1,"Was this item previously studied?","List Item Control",Recog,1::2,2146,YES,25,-1,-1,0,0,,1
M20320375,7emw5dmb52,"DRM Reactivity 1_MSU",1,63,2023-10-18T20:49:01+00:00,2.2062170505524,12,Stim_B.csv,Read_B.csv,"Read D",Read,Drill,Drill,Recog,Presented,141,81,Likert,User,1,"Was this item previously studied?","Critical Lure Standard F",Recog,1::2,2054,NO,0,-1,-1,0,0,,1
M20320375,7emw5dmb52,"DRM Reactivity 1_MSU",1,64,2023-10-18T20:49:04+00:00,2.8012199401855,12,Stim_B.csv,Read_B.csv,"Read D",Read,Mother,Mother,Recog,Presented,140,136,Likert,User,1,"Was this item previously studied?","Critical Lure Control",Recog,1::2,2642,NO,25,-1,-1,0,0,,1
M20320375,7emw5dmb52,"DRM Reactivity 1_MSU",1,65,2023-10-18T20:49:06+00:00,1.9486930370331,12,Stim_B.csv,Read_B.csv,"Read D",Read,Kiwi,Kiwi,Recog,Presented,104,109,Likert,User,1,"Was this item previously studied?","List Item Control",Recog,1::2,1801,YES,0,-1,-1,0,0,,1
M20320375,7emw5dmb52,"DRM Reactivity 1_MSU",1,66,2023-10-18T20:49:08+00:00,1.859827041626,12,Stim_B.csv,Read_B.csv,"Read D",Read,Eye,Eye,Recog,Control,96,97,Likert,User,1,"Was this item previously studied?","List Item Control",Recog,1::2,1704,YES,66.666666666667,-1,-1,0,0,,1
M20320375,7emw5dmb52,"DRM Reactivity 1_MSU",1,67,2023-10-18T20:49:12+00:00,4.357136964798,12,Stim_B.csv,Read_B.csv,"Read D",Read,Cherry,Cherry,Recog,Presented,107,71,Likert,User,1,"Was this item previously studied?","List Item Standard F",Recog,1::2,4186,YES,22.222222222222,-1,-1,0,0,,1
M20320375,7emw5dmb52,"DRM Reactivity 1_MSU",1,68,2023-10-18T20:52:21+00:00,188.94437813759,12,Stim_B.csv,Read_B.csv,"Read D",Read,Card,Card,Recog,Presented,133,123,Likert,User,1,"Was this item previously studied?","Critical Lure Control",Recog,1::2,188670,NO,0,-1,-1,0,0,,1
M20320375,7emw5dmb52,"DRM Reactivity 1_MSU",1,69,2023-10-18T20:52:24+00:00,2.7678899765015,12,Stim_B.csv,Read_B.csv,"Read D",Read,Floor,Floor,Recog,Presented,127,95,Likert,User,1,"Was this item previously studied?","List Item Control",Recog,1::2,2610,NO,28.571428571429,-1,-1,0,0,,1
M20320375,7emw5dmb52,"DRM Reactivity 1_MSU",1,70,2023-10-18T20:52:26+00:00,1.9790549278259,12,Stim_B.csv,Read_B.csv,"Read D",Read,Bean,Bean,Recog,Presented,118,145,Likert,User,1,"Was this item previously studied?","Critical Lure Control",Recog,1::2,1830,YES,28.571428571429,-1,-1,0,0,,1
M20320375,7emw5dmb52,"DRM Reactivity 1_MSU",1,71,2023-10-18T20:52:33+00:00,7.2789099216461,12,Stim_B.csv,Read_B.csv,"Read D",Read,Dirt,Dirt,Recog,Presented,112,106,Likert,User,1,"Was this item previously studied?","List Item Control",Recog,1::2,6944,YES,0,-1,-1,0,0,,1
M20320375,7emw5dmb52,"DRM Reactivity 1_MSU",1,72,2023-10-18T20:52:36+00:00,2.7642929553986,12,Stim_B.csv,Read_B.csv,"Read D",Read,Bear,Bear,Recog,Control,83,53,Likert,User,1,"Was this item previously studied?","List Item Standard F",Recog,1::2,2597,YES,28.571428571429,-1,-1,0,0,,1
M20320375,7emw5dmb52,"DRM Reactivity 1_MSU",1,73,2023-10-18T21:00:37+00:00,481.38539910316,12,Stim_B.csv,Read_B.csv,"Read D",Read,Viper,Viper,Recog,Control,92,108,Likert,User,1,"Was this item previously studied?","List Item Control",Recog,1::2,480785,NO,0,-1,-1,0,0,,1
M20320375,7emw5dmb52,"DRM Reactivity 1_MSU",1,74,2023-10-18T21:00:40+00:00,2.5742409229279,12,Stim_B.csv,Read_B.csv,"Read D",Read,Cat,Cat,Recog,Control,81,96,Likert,User,1,"Was this item previously studied?","List Item Control",Recog,1::2,2301,YES,0,-1,-1,0,0,,1
M20320375,7emw5dmb52,"DRM Reactivity 1_MSU",1,75,2023-10-18T21:00:43+00:00,3.5997250080109,12,Stim_B.csv,Read_B.csv,"Read D",Read,Student,Student,Recog,Control,63,77,Likert,User,1,"Was this item previously studied?","List Item Standard F",Recog,1::2,3434,YES,20,-1,-1,0,0,,1
M20320375,7emw5dmb52,"DRM Reactivity 1_MSU",1,76,2023-10-18T21:00:46+00:00,2.1667540073395,12,Stim_B.csv,Read_B.csv,"Read D",Read,Oxygen,Oxygen,Recog,Control,66,75,Likert,User,1,"Was this item previously studied?","List Item Sans F",Recog,1::2,2016,YES,44.444444444444,-1,-1,0,0,,1
M20320375,7emw5dmb52,"DRM Reactivity 1_MSU",1,77,2023-10-18T21:00:47+00:00,1.8096210956573,12,Stim_B.csv,Read_B.csv,"Read D",Read,Salt,Salt,Recog,Presented,135,90,Likert,User,1,"Was this item previously studied?","List Item Control",Recog,1::2,1649,YES,28.571428571429,-1,-1,0,0,,1
M20320375,7emw5dmb52,"DRM Reactivity 1_MSU",1,78,2023-10-18T21:00:50+00:00,2.6575689315796,12,Stim_B.csv,Read_B.csv,"Read D",Read,Basement,Basement,Recog,Presented,122,64,Likert,User,1,"Was this item previously studied?","List Item Sans F",Recog,1::2,2493,YES,18.181818181818,-1,-1,0,0,,1
M20320375,7emw5dmb52,"DRM Reactivity 1_MSU",1,79,2023-10-18T21:00:52+00:00,1.8270239830017,12,Stim_B.csv,Read_B.csv,"Read D",Read,Jeep,Jeep,Recog,Control,71,65,Likert,User,1,"Was this item previously studied?","List Item Standard F",Recog,1::2,1670,YES,28.571428571429,-1,-1,0,0,,1
M20320375,7emw5dmb52,"DRM Reactivity 1_MSU",1,80,2023-10-18T21:00:54+00:00,2.3472311496735,12,Stim_B.csv,Read_B.csv,"Read D",Read,Pants,Pants,Recog,Control,65,142,Likert,User,1,"Was this item previously studied?","Critical Lure Control",Recog,1::2,2187,YES,25,-1,-1,0,0,,1
M20320375,7emw5dmb52,"DRM Reactivity 1_MSU",1,81,2023-10-18T21:00:58+00:00,3.9179899692535,12,Stim_B.csv,Read_B.csv,"Read D",Read,Hill,Hill,Recog,Control,54,61,Likert,User,1,"Was this item previously studied?","List Item Standard F",Recog,1::2,3760,YES,0,-1,-1,0,0,,1
M20320375,7emw5dmb52,"DRM Reactivity 1_MSU",1,82,2023-10-18T21:01:00+00:00,1.7601189613342,12,Stim_B.csv,Read_B.csv,"Read D",Read,Cow,Cow,Recog,Control,84,57,Likert,User,1,"Was this item previously studied?","List Item Sans F",Recog,1::2,1595,YES,0,-1,-1,0,0,,1
M20320375,7emw5dmb52,"DRM Reactivity 1_MSU",1,83,2023-10-18T21:01:03+00:00,3.0463590621948,12,Stim_B.csv,Read_B.csv,"Read D",Read,Hockey,Hockey,Recog,Control,64,69,Likert,User,1,"Was this item previously studied?","List Item Sans F",Recog,1::2,2881,NO,25,-1,-1,0,0,,1
M20320375,7emw5dmb52,"DRM Reactivity 1_MSU",1,84,2023-10-18T21:01:05+00:00,2.5055019855499,12,Stim_B.csv,Read_B.csv,"Read D",Read,Frog,Frog,Recog,Presented,109,59,Likert,User,1,"Was this item previously studied?","List Item Standard F",Recog,1::2,2278,YES,0,-1,-1,0,0,,1
M20320375,7emw5dmb52,"DRM Reactivity 1_MSU",1,85,2023-10-18T21:01:07+00:00,1.941526889801,12,Stim_B.csv,Read_B.csv,"Read D",Read,Tiger,Tiger,Recog,Control,73,130,Likert,User,1,"Was this item previously studied?","Critical Lure Control",Recog,1::2,1771,YES,25,-1,-1,0,0,,1
M20320375,7emw5dmb52,"DRM Reactivity 1_MSU",1,86,2023-10-18T21:01:10+00:00,2.4045331478119,12,Stim_B.csv,Read_B.csv,"Read D",Read,Canyon,Canyon,Recog,Control,51,113,Likert,User,1,"Was this item previously studied?","List Item Control",Recog,1::2,2234,YES,22.222222222222,-1,-1,0,0,,1
M20320375,7emw5dmb52,"DRM Reactivity 1_MSU",1,87,2023-10-18T21:01:12+00:00,1.8643198013306,12,Stim_B.csv,Read_B.csv,"Read D",Read,Flute,Flute,Recog,Presented,134,122,Likert,User,1,"Was this item previously studied?","Critical Lure Control",Recog,1::2,1704,YES,25,-1,-1,0,0,,1
M20320375,7emw5dmb52,"DRM Reactivity 1_MSU",1,88,2023-10-18T21:01:14+00:00,2.179347038269,12,Stim_B.csv,Read_B.csv,"Read D",Read,Rest,Rest,Recog,Presented,144,110,Likert,User,1,"Was this item previously studied?","List Item Control",Recog,1::2,2018,YES,57.142857142857,-1,-1,0,0,,1
M20320375,7emw5dmb52,"DRM Reactivity 1_MSU",1,89,2023-10-18T21:01:15+00:00,1.5933630466461,12,Stim_B.csv,Read_B.csv,"Read D",Read,Bathroom,Bathroom,Recog,Presented,123,80,Likert,User,1,"Was this item previously studied?","Critical Lure Sans F",Recog,1::2,1436,YES,0,-1,-1,0,0,,1
M20320375,7emw5dmb52,"DRM Reactivity 1_MSU",1,90,2023-10-18T21:01:18+00:00,2.2920610904694,12,Stim_B.csv,Read_B.csv,"Read D",Read,Bed,Bed,Recog,Presented,110,52,Likert,User,1,"Was this item previously studied?","List Item Sans F",Recog,1::2,2123,YES,33.333333333333,-1,-1,0,0,,1
M20320375,7emw5dmb52,"DRM Reactivity 1_MSU",1,91,2023-10-18T21:01:20+00:00,2.5980358123779,12,Stim_B.csv,Read_B.csv,"Read D",Read,Slow,Slow,Recog,Presented,119,143,Likert,User,1,"Was this item previously studied?","Critical Lure Control",Recog,1::2,2448,NO,33.333333333333,-1,-1,0,0,,1
M20320375,7emw5dmb52,"DRM Reactivity 1_MSU",1,92,2023-10-18T21:02:25+00:00,64.493126153946,12,Stim_B.csv,Read_B.csv,"Read D",Read,Elevator,Elevator,Recog,Presented,129,73,Likert,User,1,"Was this item previously studied?","List Item Standard F",Recog,1::2,64195,YES,18.181818181818,-1,-1,0,0,,1
M20320375,7emw5dmb52,"DRM Reactivity 1_MSU",1,93,2023-10-18T21:02:27+00:00,2.5068678855896,12,Stim_B.csv,Read_B.csv,"Read D",Read,Ceiling,Ceiling,Recog,Presented,121,102,Likert,User,1,"Was this item previously studied?","List Item Control",Recog,1::2,2336,NO,22.222222222222,-1,-1,0,0,,1
M20320375,7emw5dmb52,"DRM Reactivity 1_MSU",1,94,2023-10-18T21:02:29+00:00,1.7315559387207,12,Stim_B.csv,Read_B.csv,"Read D",Read,Goat,Goat,Recog,Control,78,54,Likert,User,1,"Was this item previously studied?","List Item Standard F",Recog,1::2,1564,YES,0,-1,-1,0,0,,1
M20320375,7emw5dmb52,"DRM Reactivity 1_MSU",1,95,2023-10-18T21:02:31+00:00,1.8655722141266,12,Stim_B.csv,Read_B.csv,"Read D",Read,Girraffe,Girraffe,Recog,Control,79,55,Likert,User,1,"Was this item previously studied?","List Item Standard F",Recog,1::2,1655,YES,18.181818181818,-1,-1,0,0,,1
M20320375,7emw5dmb52,"DRM Reactivity 1_MSU",1,96,2023-10-18T21:02:33+00:00,1.8884778022766,12,Stim_B.csv,Read_B.csv,"Read D",Read,Pear,Pear,Recog,Presented,101,105,Likert,User,1,"Was this item previously studied?","List Item Control",Recog,1::2,1709,YES,28.571428571429,-1,-1,0,0,,1
M20320375,7emw5dmb52,"DRM Reactivity 1_MSU",1,97,2023-10-18T21:02:34+00:00,1.5771350860596,12,Stim_B.csv,Read_B.csv,"Read D",Read,Island,Island,Recog,Control,57,132,Likert,User,1,"Was this item previously studied?","Critical Lure Control",Recog,1::2,1408,YES,22.222222222222,-1,-1,0,0,,1
M20320375,7emw5dmb52,"DRM Reactivity 1_MSU",1,98,2023-10-18T21:02:36+00:00,1.9556980133057,12,Stim_B.csv,Read_B.csv,"Read D",Read,Elephant,Elephant,Recog,Control,80,74,Likert,User,1,"Was this item previously studied?","List Item Sans F",Recog,1::2,1796,YES,18.181818181818,-1,-1,0,0,,1
M20320375,7emw5dmb52,"DRM Reactivity 1_MSU",1,99,2023-10-18T21:02:39+00:00,2.6357951164246,12,Stim_B.csv,Read_B.csv,"Read D",Read,Hallway,Hallway,Recog,Presented,131,115,Likert,User,1,"Was this item previously studied?","List Item Control",Recog,1::2,2474,NO,0,-1,-1,0,0,,1
M20320375,7emw5dmb52,"DRM Reactivity 1_MSU",1,100,2023-10-18T21:02:41+00:00,2.0521728992462,12,Stim_B.csv,Read_B.csv,"Read D",Read,Apple,Apple,Recog,Presented,97,121,Likert,User,1,"Was this item previously studied?","Critical Lure Control",Recog,1::2,1886,YES,25,-1,-1,0,0,,1
M20320375,7emw5dmb52,"DRM Reactivity 1_MSU",1,101,2023-10-18T21:02:43+00:00,2.3050630092621,12,Stim_B.csv,Read_B.csv,"Read D",Read,Ballet,Ballet,Recog,Control,72,79,Likert,User,1,"Was this item previously studied?","List Item Standard F",Recog,1::2,2129,YES,22.222222222222,-1,-1,0,0,,1
M20320375,7emw5dmb52,"DRM Reactivity 1_MSU",1,102,2023-10-18T21:02:46+00:00,2.7543039321899,12,Stim_B.csv,Read_B.csv,"Read D",Read,Sandal,Sandal,Recog,Control,85,51,Likert,User,1,"Was this item previously studied?","List Item Sans F",Recog,1::2,2598,NO,25,-1,-1,0,0,,1
M20320375,7emw5dmb52,"DRM Reactivity 1_MSU",1,103,2023-10-18T21:02:49+00:00,2.9541771411896,12,Stim_B.csv,Read_B.csv,"Read D",Read,Rifle,Rifle,Recog,Control,61,92,Likert,User,1,"Was this item previously studied?","List Item Control",Recog,1::2,2789,NO,0,-1,-1,0,0,,1
M20320375,7emw5dmb52,"DRM Reactivity 1_MSU",1,104,2023-10-18T21:02:51+00:00,2.08131980896,12,Stim_B.csv,Read_B.csv,"Read D",Read,Donkey,Donkey,Recog,Control,82,112,Likert,User,1,"Was this item previously studied?","List Item Control",Recog,1::2,1914,YES,22.222222222222,-1,-1,0,0,,1
M20320375,7emw5dmb52,"DRM Reactivity 1_MSU",1,105,2023-10-18T21:02:54+00:00,3.3086512088776,12,Stim_B.csv,Read_B.csv,"Read D",Read,Mayor,Mayor,Recog,Control,62,58,Likert,User,1,"Was this item previously studied?","List Item Sans F",Recog,1::2,3144,YES,25,-1,-1,0,0,,1
M20320375,7emw5dmb52,"DRM Reactivity 1_MSU",1,106,2023-10-18T21:02:56+00:00,1.6588637828827,12,Stim_B.csv,Read_B.csv,"Read D",Read,Cheetah,Cheetah,Recog,Control,76,124,Likert,User,1,"Was this item previously studied?","Critical Lure Control",Recog,1::2,1495,NO,0,-1,-1,0,0,,1
M20320375,7emw5dmb52,"DRM Reactivity 1_MSU",1,107,2023-10-18T21:02:58+00:00,1.5728452205658,12,Stim_B.csv,Read_B.csv,"Read D",Read,Cave,Cave,Recog,Control,59,56,Likert,User,1,"Was this item previously studied?","List Item Sans F",Recog,1::2,1414,NO,0,-1,-1,0,0,,1
M20320375,7emw5dmb52,"DRM Reactivity 1_MSU",1,108,2023-10-18T21:02:59+00:00,1.6010718345642,12,Stim_B.csv,Read_B.csv,"Read D",Read,Phone,Phone,Recog,Presented,143,66,Likert,User,1,"Was this item previously studied?","List Item Standard F",Recog,1::2,1424,NO,28.571428571429,-1,-1,0,0,,1
M20320375,7emw5dmb52,"DRM Reactivity 1_MSU",1,109,2023-10-18T21:03:02+00:00,2.2311561107635,12,Stim_B.csv,Read_B.csv,"Read D",Read,Banana,Banana,Recog,Presented,99,70,Likert,User,1,"Was this item previously studied?","List Item Sans F",Recog,1::2,2071,YES,0,-1,-1,0,0,,1
M20320375,7emw5dmb52,"DRM Reactivity 1_MSU",1,110,2023-10-18T21:03:05+00:00,3.0617668628693,12,Stim_B.csv,Read_B.csv,"Read D",Read,River,River,Recog,Control,50,117,Likert,User,1,"Was this item previously studied?","List Item Control",Recog,1::2,2903,YES,25,-1,-1,0,0,,1
M20320375,7emw5dmb52,"DRM Reactivity 1_MSU",1,111,2023-10-18T21:03:10+00:00,5.3009159564972,12,Stim_B.csv,Read_B.csv,"Read D",Read,Lake,Lake,Recog,Control,58,131,Likert,User,1,"Was this item previously studied?","Critical Lure Control",Recog,1::2,5061,NO,0,-1,-1,0,0,,1
M20320375,7emw5dmb52,"DRM Reactivity 1_MSU",1,112,2023-10-18T21:03:12+00:00,1.7859702110291,12,Stim_B.csv,Read_B.csv,"Read D",Read,Rock,Rock,Recog,Control,53,91,Likert,User,1,"Was this item previously studied?","List Item Control",Recog,1::2,1606,YES,0,-1,-1,0,0,,1
M20320375,7emw5dmb52,"DRM Reactivity 1_MSU",1,113,2023-10-18T21:03:14+00:00,2.0089328289032,12,Stim_B.csv,Read_B.csv,"Read D",Read,Flea,Flea,Recog,Presented,117,125,Likert,User,1,"Was this item previously studied?","Critical Lure Control",Recog,1::2,1845,YES,28.571428571429,-1,-1,0,0,,1
M20320375,7emw5dmb52,"DRM Reactivity 1_MSU",1,114,2023-10-18T21:03:19+00:00,5.151349067688,12,Stim_B.csv,Read_B.csv,"Read D",Read,Cruise,Cruise,Recog,Control,90,88,Likert,User,1,"Was this item previously studied?","Critical Lure Sans F",Recog,1::2,4795,NO,0,-1,-1,0,0,,1
M20320375,7emw5dmb52,"DRM Reactivity 1_MSU",1,115,2023-10-18T21:03:21+00:00,1.9820659160614,12,Stim_B.csv,Read_B.csv,"Read D",Read,Zebra,Zebra,Recog,Control,75,100,Likert,User,1,"Was this item previously studied?","List Item Control",Recog,1::2,1810,YES,25,-1,-1,0,0,,1
M20320375,7emw5dmb52,"DRM Reactivity 1_MSU",1,116,2023-10-18T21:03:23+00:00,1.8949460983276,12,Stim_B.csv,Read_B.csv,"Read D",Read,Plum,Plum,Recog,Presented,105,98,Likert,User,1,"Was this item previously studied?","List Item Control",Recog,1::2,1664,YES,0,-1,-1,0,0,,1
M20320375,7emw5dmb52,"DRM Reactivity 1_MSU",1,117,2023-10-18T21:03:25+00:00,2.5424211025238,12,Stim_B.csv,Read_B.csv,"Read D",Read,Document,Document,Recog,Presented,111,126,Likert,User,1,"Was this item previously studied?","Critical Lure Control",Recog,1::2,2381,NO,20,-1,-1,0,0,,1
M20320375,7emw5dmb52,"DRM Reactivity 1_MSU",1,118,2023-10-18T21:03:27+00:00,1.8858149051666,12,Stim_B.csv,Read_B.csv,"Read D",Read,Shirt,Shirt,Recog,Presented,114,86,Likert,User,1,"Was this item previously studied?","Critical Lure Sans F",Recog,1::2,1725,YES,25,-1,-1,0,0,,1
M20320375,7emw5dmb52,"DRM Reactivity 1_MSU",1,119,2023-10-18T21:03:29+00:00,1.9470660686493,12,Stim_B.csv,Read_B.csv,"Read D",Read,Computer,Computer,Recog,Control,95,93,Likert,User,1,"Was this item previously studied?","List Item Control",Recog,1::2,1785,YES,18.181818181818,-1,-1,0,0,,1
M20320375,7emw5dmb52,"DRM Reactivity 1_MSU",1,120,2023-10-18T21:03:31+00:00,2.0336349010468,12,Stim_B.csv,Read_B.csv,"Read D",Read,Cloud,Cloud,Recog,Presented,136,62,Likert,User,1,"Was this item previously studied?","List Item Sans F",Recog,1::2,1853,YES,0,-1,-1,0,0,,1
M20320375,7emw5dmb52,"DRM Reactivity 1_MSU",1,121,2023-10-18T21:03:33+00:00,2.3316221237183,12,Stim_B.csv,Read_B.csv,"Read D",Read,Kayak,Kayak,Recog,Presented,116,103,Likert,User,1,"Was this item previously studied?","List Item Control",Recog,1::2,2154,YES,25,-1,-1,0,0,,1
M20320375,7emw5dmb52,"DRM Reactivity 1_MSU",1,122,2023-10-18T21:03:36+00:00,2.9160299301147,12,Stim_B.csv,Read_B.csv,"Read D",Read,Volcano,Volcano,Recog,Control,52,50,Likert,User,1,"Was this item previously studied?","List Item Sans F",Recog,1::2,2756,NO,44.444444444444,-1,-1,0,0,,1
M20320375,7emw5dmb52,"DRM Reactivity 1_MSU",1,123,2023-10-18T21:03:39+00:00,2.6169440746307,12,Stim_B.csv,Read_B.csv,"Read D",Read,Ocean,Ocean,Recog,Control,56,144,Likert,User,1,"Was this item previously studied?","Critical Lure Control",Recog,1::2,2457,NO,28.571428571429,-1,-1,0,0,,1
M20320375,7emw5dmb52,"DRM Reactivity 1_MSU",1,124,2023-10-18T21:03:42+00:00,2.5642058849335,12,Stim_B.csv,Read_B.csv,"Read D",Read,Parrot,Parrot,Recog,Control,69,120,Likert,User,1,"Was this item previously studied?","Critical Lure Control",Recog,1::2,2394,NO,25,-1,-1,0,0,,1
M20320375,7emw5dmb52,"DRM Reactivity 1_MSU",1,125,2023-10-18T21:03:44+00:00,2.8180959224701,12,Stim_B.csv,Read_B.csv,"Read D",Read,Orange,Orange,Recog,Presented,98,119,Likert,User,1,"Was this item previously studied?","List Item Control",Recog,1::2,2352,YES,22.222222222222,-1,-1,0,0,,1
M20320375,7emw5dmb52,"DRM Reactivity 1_MSU",1,126,2023-10-18T21:03:47+00:00,2.3686351776123,12,Stim_B.csv,Read_B.csv,"Read D",Read,Valley,Valley,Recog,Control,49,85,Likert,User,1,"Was this item previously studied?","Critical Lure Standard F",Recog,1::2,2213,NO,0,-1,-1,0,0,,1
M20320375,7emw5dmb52,"DRM Reactivity 1_MSU",1,127,2023-10-18T21:03:50+00:00,3.5721518993378,12,Stim_B.csv,Read_B.csv,"Read D",Read,Tea,Tea,Recog,Control,93,134,Likert,User,1,"Was this item previously studied?","Critical Lure Control",Recog,1::2,3404,NO,0,-1,-1,0,0,,1
M20320375,7emw5dmb52,"DRM Reactivity 1_MSU",1,128,2023-10-18T21:03:53+00:00,2.9151020050049,12,Stim_B.csv,Read_B.csv,"Read D",Read,Fly,Fly,Recog,Control,86,139,Likert,User,1,"Was this item previously studied?","Critical Lure Control",Recog,1::2,2756,NO,0,-1,-1,0,0,,1
M20320375,7emw5dmb52,"DRM Reactivity 1_MSU",1,129,2023-10-18T21:03:57+00:00,3.7465848922729,12,Stim_B.csv,Read_B.csv,"Read D",Read,Wolf,Wolf,Recog,Control,77,82,Likert,User,1,"Was this item previously studied?","Critical Lure Sans F",Recog,1::2,3594,NO,33.333333333333,-1,-1,0,0,,1
M20320375,7emw5dmb52,"DRM Reactivity 1_MSU",1,130,2023-10-18T21:03:59+00:00,2.1832511425018,12,Stim_B.csv,Read_B.csv,"Read D",Read,Tulip,Tulip,Recog,Control,87,63,Likert,User,1,"Was this item previously studied?","List Item Sans F",Recog,1::2,2019,NO,0,-1,-1,0,0,,1
M20320375,7emw5dmb52,"DRM Reactivity 1_MSU",1,131,2023-10-18T21:04:01+00:00,1.9014329910278,12,Stim_B.csv,Read_B.csv,"Read D",Read,Mountain,Mountain,Recog,Control,55,118,Likert,User,1,"Was this item previously studied?","List Item Control",Recog,1::2,1742,NO,20,-1,-1,0,0,,1
M20320375,7emw5dmb52,"DRM Reactivity 1_MSU",1,132,2023-10-18T21:04:03+00:00,2.4164249897003,12,Stim_B.csv,Read_B.csv,"Read D",Read,Yellow,Yellow,Recog,Presented,115,89,Likert,User,1,"Was this item previously studied?","Critical Lure Standard F",Recog,1::2,2248,YES,44.444444444444,-1,-1,0,0,,1
M20320375,7emw5dmb52,"DRM Reactivity 1_MSU",1,133,2023-10-18T21:04:06+00:00,2.044163942337,12,Stim_B.csv,Read_B.csv,"Read D",Read,Cold,Cold,Recog,Control,88,111,Likert,User,1,"Was this item previously studied?","List Item Control",Recog,1::2,1877,YES,0,-1,-1,0,0,,1
M20320375,7emw5dmb52,"DRM Reactivity 1_MSU",1,134,2023-10-18T21:04:08+00:00,2.5134060382843,12,Stim_B.csv,Read_B.csv,"Read D",Read,Strawberry,Strawberry,Recog,Presented,103,107,Likert,User,1,"Was this item previously studied?","List Item Control",Recog,1::2,2351,YES,15.384615384615,-1,-1,0,0,,1
M20320375,7emw5dmb52,"DRM Reactivity 1_MSU",1,135,2023-10-18T21:04:11+00:00,2.9990789890289,12,Stim_B.csv,Read_B.csv,"Read D",Read,Basket,Basket,Recog,Presented,137,68,Likert,User,1,"Was this item previously studied?","List Item Sans F",Recog,1::2,2837,YES,22.222222222222,-1,-1,0,0,,1
M20320375,7emw5dmb52,"DRM Reactivity 1_MSU",1,136,2023-10-18T21:04:13+00:00,2.4132559299469,12,Stim_B.csv,Read_B.csv,"Read D",Read,Roof,Roof,Recog,Presented,132,76,Likert,User,1,"Was this item previously studied?","List Item Sans F",Recog,1::2,2156,NO,33.333333333333,-1,-1,0,0,,1
M20320375,7emw5dmb52,"DRM Reactivity 1_MSU",1,137,2023-10-18T21:04:16+00:00,2.5568270683289,12,Stim_B.csv,Read_B.csv,"Read D",Read,Stairs,Stairs,Recog,Presented,128,67,Likert,User,1,"Was this item previously studied?","List Item Standard F",Recog,1::2,2394,NO,0,-1,-1,0,0,,1
M20320375,7emw5dmb52,"DRM Reactivity 1_MSU",1,138,2023-10-18T21:04:19+00:00,2.4936060905457,12,Stim_B.csv,Read_B.csv,"Read D",Read,Window,Window,Recog,Presented,124,141,Likert,User,1,"Was this item previously studied?","Critical Lure Control",Recog,1::2,2323,YES,0,-1,-1,0,0,,1
M20320375,7emw5dmb52,"DRM Reactivity 1_MSU",1,139,2023-10-18T21:04:20+00:00,1.6477978229523,12,Stim_B.csv,Read_B.csv,"Read D",Read,Milk,Milk,Recog,Control,70,127,Likert,User,1,"Was this item previously studied?","Critical Lure Control",Recog,1::2,1483,YES,0,-1,-1,0,0,,1
M20320375,7emw5dmb52,"DRM Reactivity 1_MSU",1,140,2023-10-18T21:04:22+00:00,2.0840480327606,12,Stim_B.csv,Read_B.csv,"Read D",Read,Lipstick,Lipstick,Recog,Control,94,135,Likert,User,1,"Was this item previously studied?","Critical Lure Control",Recog,1::2,1919,NO,0,-1,-1,0,0,,1
M20320375,7emw5dmb52,"DRM Reactivity 1_MSU",1,141,2023-10-18T21:04:24+00:00,1.6595990657806,12,Stim_B.csv,Read_B.csv,"Read D",Read,Mint,Mint,Recog,Presented,113,133,Likert,User,1,"Was this item previously studied?","Critical Lure Control",Recog,1::2,1504,NO,33.333333333333,-1,-1,0,0,,1
M20320375,7emw5dmb52,"DRM Reactivity 1_MSU",1,142,2023-10-18T21:04:25+00:00,1.5441970825195,12,Stim_B.csv,Read_B.csv,"Read D",Read,Dollar,Dollar,Recog,Control,68,129,Likert,User,1,"Was this item previously studied?","Critical Lure Control",Recog,1::2,1371,NO,25,-1,-1,0,0,,1
M20320375,7emw5dmb52,"DRM Reactivity 1_MSU",1,143,2023-10-18T21:04:28+00:00,2.4555389881134,12,Stim_B.csv,Read_B.csv,"Read D",Read,Hawk,Hawk,Recog,Presented,120,101,Likert,User,1,"Was this item previously studied?","List Item Control",Recog,1::2,2300,YES,0,-1,-1,0,0,,1
M20320375,7emw5dmb52,"DRM Reactivity 1_MSU",1,144,2023-10-18T21:04:30+00:00,1.6144700050354,12,Stim_B.csv,Read_B.csv,"Read D",Read,Fossil,Fossil,Recog,Presented,139,60,Likert,User,1,"Was this item previously studied?","List Item Standard F",Recog,1::2,1453,NO,25,-1,-1,0,0,,1
M20320375,7emw5dmb52,"DRM Reactivity 1_MSU",1,145,2023-10-18T21:04:31+00:00,1.8200340270996,12,Stim_B.csv,Read_B.csv,"Read D",Read,Lion,Lion,Recog,Control,74,137,Likert,User,1,"Was this item previously studied?","Critical Lure Control",Recog,1::2,1656,YES,0,-1,-1,0,0,,1
M20320375,7emw5dmb52,"DRM Reactivity 1_MSU",1,146,2023-10-18T21:04:34+00:00,2.9520049095154,12,Stim_B.csv,Read_B.csv,"Read D",Read,Tent,Tent,Recog,Presented,142,116,Likert,User,1,"Was this item previously studied?","List Item Control",Recog,1::2,2798,NO,33.333333333333,-1,-1,0,0,,1
M20320375,7emw5dmb52,"DRM Reactivity 1_MSU",1,147,2023-10-18T21:04:36+00:00,2.1513929367065,12,Stim_B.csv,Read_B.csv,"Read D",Read,Blue,Blue,Recog,Control,89,128,Likert,User,1,"Was this item previously studied?","Critical Lure Control",Recog,1::2,1985,NO,0,-1,-1,0,0,,1
M20320375,7emw5dmb52,"DRM Reactivity 1_MSU",1,148,2023-10-18T21:04:39+00:00,2.2811710834503,12,Stim_B.csv,Read_B.csv,"Read D",Read,Wall,Wall,Recog,Presented,125,104,Likert,User,1,"Was this item previously studied?","List Item Control",Recog,1::2,2092,NO,0,-1,-1,0,0,,1
M20320375,7emw5dmb52,"DRM Reactivity 1_MSU",1,149,2023-10-18T21:04:41+00:00,2.6766550540924,12,Stim_B.csv,Read_B.csv,"Read D",Read,Mango,Mango,Recog,Presented,106,140,Likert,User,1,"Was this item previously studied?","Critical Lure Control",Recog,1::2,2510,YES,0,-1,-1,0,0,,1
M20320375,7emw5dmb52,"DRM Reactivity 1_MSU",1,150,2023-10-18T21:04:44+00:00,2.2785449028015,12,Stim_B.csv,Read_B.csv,"Read D",Read,Attic,Attic,Recog,Presented,130,84,Likert,User,1,"Was this item previously studied?","Critical Lure Sans F",Recog,1::2,2107,NO,0,-1,-1,0,0,,1
M20320375,7emw5dmb52,"DRM Reactivity 1_MSU",1,151,2023-10-18T21:04:46+00:00,2.000324010849,12,Stim_B.csv,Read_B.csv,"Read D",Read,Guitar,Guitar,Recog,Control,67,94,Likert,User,1,"Was this item previously studied?","List Item Control",Recog,1::2,1834,NO,0,-1,-1,0,0,,1
M20320375,7emw5dmb52,"DRM Reactivity 1_MSU",1,152,2023-10-18T21:04:48+00:00,2.2662129402161,12,Stim_B.csv,Read_B.csv,"Read D",Read,Peach,Peach,Recog,Presented,102,78,Likert,User,1,"Was this item previously studied?","List Item Standard F",Recog,1::2,2094,YES,25,-1,-1,0,0,,1
M20320375,7emw5dmb52,"DRM Reactivity 1_MSU",1,153,2023-10-18T21:04:50+00:00,2.4296250343323,12,Stim_B.csv,Read_B.csv,"Read D",Read,Door,Door,Recog,Presented,126,83,Likert,User,1,"Was this item previously studied?","Critical Lure Standard F",Recog,1::2,2264,NO,33.333333333333,-1,-1,0,0,,1
M20320375,7emw5dmb52,"DRM Reactivity 1_MSU",1,154,2023-10-18T21:04:52+00:00,1.346794128418,12,Stim_B.csv,Read_B.csv,"Read D",Read,,,,,,0,Instruct,User,-,"You have completed this section. Please click next.",,Instruct7,,1179,,,-1,-1,,,,1
M20320375,7emw5dmb52,"DRM Reactivity 1_MSU",1,155,2023-10-18T21:04:54+00:00,2.5644288063049,12,Stim_B.csv,Read_B.csv,"Read D",Read,,,,,,0,Instruct,User,-,"The following screen will ask you a few questions abour your experience today. You must complete these questions to receive credit.",,Instruct8,,2399,,,-1,-1,,,,1
