"Username","Trial","Condition.Number","Condition.Description","Stimuli.Cue","Stimuli.Answer","Stimuli.Shuffle","Stimuli.Stimuli.Notes","Stimuli.Value","Procedure.Item","Procedure.Trial.Type","Procedure.Procedure.Notes","Procedure.Shuffle","Response.RT","Response.Response","Response.JOL"
"543e85adfdf99b7356902e90",5,5,"Item A","Volcano","Volcano","R1","Related",4,12,"JOL","Related","R1",31943,"",75
"543e85adfdf99b7356902e90",6,5,"Item A","Cave","Cave","R1","Related",11,9,"JOL","Related","R1",11092,"",20
"543e85adfdf99b7356902e90",7,5,"Item A","Rock","Rock","R1","Related",5,4,"JOL","Related","R1",7291,"",40
"543e85adfdf99b7356902e90",8,5,"Item A","Ocean","Ocean","R1","Related",8,3,"JOL","Related","R1",7398,"",25
"543e85adfdf99b7356902e90",9,5,"Item A","Canyon","Canyon","R1","Related",3,13,"JOL","Related","R1",7310,"",50
"543e85adfdf99b7356902e90",10,5,"Item A","Lake","Lake","R1","Related",10,11,"JOL","Related","R1",6104,"",43
"543e85adfdf99b7356902e90",11,5,"Item A","Island","Island","R1","Related",9,7,"JOL","Related","R1",5062,"",62
"543e85adfdf99b7356902e90",12,5,"Item A","Hill","Hill","R1","Related",6,8,"JOL","Related","R1",7198,"",20
"543e85adfdf99b7356902e90",13,5,"Item A","River","River","R1","Related",2,2,"JOL","Related","R1",4373,"",15
"543e85adfdf99b7356902e90",14,5,"Item A","Valley","Valley","R1","Related",1,6,"JOL","Related","R1",6133,"",38
"543e85adfdf99b7356902e90",15,5,"Item A","Glacier","Glacier","R1","Related",12,5,"JOL","Related","R1",4777,"",90
"543e85adfdf99b7356902e90",16,5,"Item A","Mountain","Mountain","R1","Related",7,10,"JOL","Related","R1",5570,"",27
"543e85adfdf99b7356902e90",20,5,"Item A","","","","",NA,0,"FreeRecall","Related","RECALL_Test1",65002,"volcano, mountain, canyon, glacier, rock, hill, river, lake, ocean, cave, ",NA
"543e85adfdf99b7356902e90",22,5,"Item A","Pants","Pants","U1","Unrelated",17,18,"JOL","Unrelated","U1",8523,"",70
"543e85adfdf99b7356902e90",23,5,"Item A","Guitar","Guitar","U1","Unrelated",19,19,"JOL","Unrelated","U1",6423,"",90
"543e85adfdf99b7356902e90",24,5,"Item A","Ballet","Ballet","U1","Unrelated",24,24,"JOL","Unrelated","U1",5558,"",48
"543e85adfdf99b7356902e90",25,5,"Item A","Dollar","Dollar","U1","Unrelated",20,15,"JOL","Unrelated","U1",6672,"",20
"543e85adfdf99b7356902e90",26,5,"Item A","Rifle","Rifle","U1","Unrelated",13,21,"JOL","Unrelated","U1",4731,"",18
"543e85adfdf99b7356902e90",27,5,"Item A","Oxygen","Oxygen","U1","Unrelated",18,22,"JOL","Unrelated","U1",5097,"",48
"543e85adfdf99b7356902e90",28,5,"Item A","Milk","Milk","U1","Unrelated",22,25,"JOL","Unrelated","U1",4738,"",24
"543e85adfdf99b7356902e90",29,5,"Item A","Mayor","Mayor","U1","Unrelated",14,17,"JOL","Unrelated","U1",5599,"",80
"543e85adfdf99b7356902e90",30,5,"Item A","Parrot","Parrot","U1","Unrelated",21,16,"JOL","Unrelated","U1",5594,"",76
"543e85adfdf99b7356902e90",31,5,"Item A","Hockey","Hockey","U1","Unrelated",16,23,"JOL","Unrelated","U1",5044,"",18
"543e85adfdf99b7356902e90",32,5,"Item A","Student","Student","U1","Unrelated",15,14,"JOL","Unrelated","U1",4096,"",10
"543e85adfdf99b7356902e90",33,5,"Item A","Jeep","Jeep","U1","Unrelated",23,20,"JOL","Unrelated","U1",5218,"",26
"543e85adfdf99b7356902e90",37,5,"Item A","","","","",NA,0,"FreeRecall","Unrelated","RECALL_Test2",65002,"pants, guitar, parrot, dollar, menu, ",NA
"543e85adfdf99b7356902e90",39,5,"Item A","Cat","Cat","R2","Related",33,33,"JOL","Related","R2",6787,"",35
"543e85adfdf99b7356902e90",40,5,"Item A","Cow","Cow","R2","Related",36,32,"JOL","Related","R2",5326,"",50
"543e85adfdf99b7356902e90",41,5,"Item A","Bear","Bear","R2","Related",35,29,"JOL","Related","R2",5122,"",30
"543e85adfdf99b7356902e90",42,5,"Item A","Zebra","Zebra","R2","Related",27,37,"JOL","Related","R2",4750,"",78
"543e85adfdf99b7356902e90",43,5,"Item A","Donkey","Donkey","R2","Related",34,26,"JOL","Related","R2",7343,"",45
"543e85adfdf99b7356902e90",44,5,"Item A","Wolf","Wolf","R2","Related",29,35,"JOL","Related","R2",5189,"",60
"543e85adfdf99b7356902e90",45,5,"Item A","Goat","Goat","R2","Related",30,27,"JOL","Related","R2",4701,"",18
"543e85adfdf99b7356902e90",46,5,"Item A","Girraffe","Girraffe","R2","Related",31,30,"JOL","Related","R2",5593,"",47
"543e85adfdf99b7356902e90",47,5,"Item A","Cheetah","Cheetah","R2","Related",28,36,"JOL","Related","R2",5410,"",28
"543e85adfdf99b7356902e90",48,5,"Item A","Tiger","Tiger","R2","Related",25,31,"JOL","Related","R2",6115,"",19
"543e85adfdf99b7356902e90",49,5,"Item A","Lion","Lion","R2","Related",26,28,"JOL","Related","R2",6039,"",38
"543e85adfdf99b7356902e90",50,5,"Item A","Elephant","Elephant","R2","Related",32,34,"JOL","Related","R2",6165,"",61
"543e85adfdf99b7356902e90",54,5,"Item A","","","","",NA,0,"FreeRecall","Related","RECALL_Test3",65003,"elephant, zebra, cat, tiger, lion, cheetah, giraffe, cow, gazelle, wolf, ",NA
"543e85adfdf99b7356902e90",56,5,"Item A","Cruise","Cruise","U2","Unrelated",42,41,"JOL","Unrelated","U2",8184,"",75
"543e85adfdf99b7356902e90",57,5,"Item A","Eye","Eye","U2","Unrelated",48,49,"JOL","Unrelated","U2",10278,"",28
"543e85adfdf99b7356902e90",58,5,"Item A","Blue","Blue","U2","Unrelated",41,46,"JOL","Unrelated","U2",10741,"",34
"543e85adfdf99b7356902e90",59,5,"Item A","Viper","Viper","U2","Unrelated",44,38,"JOL","Unrelated","U2",5129,"",50
"543e85adfdf99b7356902e90",60,5,"Item A","Fly","Fly","U2","Unrelated",38,48,"JOL","Unrelated","U2",8337,"",12
"543e85adfdf99b7356902e90",61,5,"Item A","Shark","Shark","U2","Unrelated",43,42,"JOL","Unrelated","U2",8857,"",48
"543e85adfdf99b7356902e90",62,5,"Item A","Tulip","Tulip","U2","Unrelated",39,47,"JOL","Unrelated","U2",8630,"",37
"543e85adfdf99b7356902e90",63,5,"Item A","Tea","Tea","U2","Unrelated",45,45,"JOL","Unrelated","U2",4209,"",14
"543e85adfdf99b7356902e90",64,5,"Item A","Cold","Cold","U2","Unrelated",40,40,"JOL","Unrelated","U2",5463,"",21
"543e85adfdf99b7356902e90",65,5,"Item A","Lipstick","Lipstick","U2","Unrelated",46,43,"JOL","Unrelated","U2",4558,"",65
"543e85adfdf99b7356902e90",66,5,"Item A","Sandal","Sandal","U2","Unrelated",37,39,"JOL","Unrelated","U2",5726,"",63
"543e85adfdf99b7356902e90",67,5,"Item A","Computer","Computer","U2","Unrelated",47,44,"JOL","Unrelated","U2",3777,"",10
"543e85adfdf99b7356902e90",71,5,"Item A","","","","",NA,0,"FreeRecall","Unrelated","RECALL_Test4",65002,"cruise, eye, blue, lipstick, ballet, fly, computer, viper, tulip, shark, sandal, ",NA
"55d4d11258c35800113dc2ab",5,8,"Item D","Pear","Pear","R1","Related",5,12,"JOL","Unrelated","U1",36225,"",0
"55d4d11258c35800113dc2ab",6,8,"Item D","Cherry","Cherry","R1","Related",11,5,"JOL","Unrelated","U1",16430,"",100
"55d4d11258c35800113dc2ab",7,8,"Item D","Orange","Orange","R1","Related",2,8,"JOL","Unrelated","U1",7805,"",100
"55d4d11258c35800113dc2ab",8,8,"Item D","Plum","Plum","R1","Related",9,3,"JOL","Unrelated","U1",3405,"",100
"55d4d11258c35800113dc2ab",9,8,"Item D","Apple","Apple","R1","Related",1,4,"JOL","Unrelated","U1",3004,"",100
"55d4d11258c35800113dc2ab",10,8,"Item D","Banana","Banana","R1","Related",3,2,"JOL","Unrelated","U1",1923,"",100
"55d4d11258c35800113dc2ab",11,8,"Item D","Lemon","Lemon","R1","Related",12,13,"JOL","Unrelated","U1",3044,"",100
"55d4d11258c35800113dc2ab",12,8,"Item D","Kiwi","Kiwi","R1","Related",8,7,"JOL","Unrelated","U1",3953,"",90
"55d4d11258c35800113dc2ab",13,8,"Item D","Peach","Peach","R1","Related",6,6,"JOL","Unrelated","U1",2244,"",100
"55d4d11258c35800113dc2ab",14,8,"Item D","Mango","Mango","R1","Related",10,9,"JOL","Unrelated","U1",2600,"",100
"55d4d11258c35800113dc2ab",15,8,"Item D","Grape","Grape","R1","Related",4,10,"JOL","Unrelated","U1",2532,"",100
"55d4d11258c35800113dc2ab",16,8,"Item D","Strawberry","Strawberry","R1","Related",7,11,"JOL","Unrelated","U1",1943,"",100
"55d4d11258c35800113dc2ab",20,8,"Item D","","","","",NA,0,"FreeRecall","Unrelated","RECALL_Test1",65001,"strawberry banana apple pear plum kiwi cherry grape orange",NA
"55d4d11258c35800113dc2ab",22,8,"Item D","Hawk","Hawk","U1","Unrelated",24,16,"JOL","Related","R1",7608,"",80
"55d4d11258c35800113dc2ab",23,8,"Item D","Yellow","Yellow","U1","Unrelated",19,21,"JOL","Related","R1",2218,"",100
"55d4d11258c35800113dc2ab",24,8,"Item D","Document","Document","U1","Unrelated",15,23,"JOL","Related","R1",3437,"",50
"55d4d11258c35800113dc2ab",25,8,"Item D","Flea","Flea","U1","Unrelated",21,25,"JOL","Related","R1",3626,"",100
"55d4d11258c35800113dc2ab",26,8,"Item D","Bean","Bean","U1","Unrelated",22,17,"JOL","Related","R1",3257,"",40
"55d4d11258c35800113dc2ab",27,8,"Item D","Frog","Frog","U1","Unrelated",13,22,"JOL","Related","R1",2325,"",50
"55d4d11258c35800113dc2ab",28,8,"Item D","Slow","Slow","U1","Unrelated",23,20,"JOL","Related","R1",4122,"",10
"55d4d11258c35800113dc2ab",29,8,"Item D","Kayak","Kayak","U1","Unrelated",20,14,"JOL","Related","R1",5237,"",100
"55d4d11258c35800113dc2ab",30,8,"Item D","Dirt","Dirt","U1","Unrelated",16,15,"JOL","Related","R1",3122,"",30
"55d4d11258c35800113dc2ab",31,8,"Item D","Shirt","Shirt","U1","Unrelated",18,18,"JOL","Related","R1",3947,"",50
"55d4d11258c35800113dc2ab",32,8,"Item D","Bed","Bed","U1","Unrelated",14,24,"JOL","Related","R1",1884,"",100
"55d4d11258c35800113dc2ab",33,8,"Item D","Mint","Mint","U1","Unrelated",17,19,"JOL","Related","R1",2251,"",5
"55d4d11258c35800113dc2ab",37,8,"Item D","","","","",NA,0,"FreeRecall","Related","RECALL_Test2",65002,"hawk yellow shirt kayak dirt slow ",NA
"55d4d11258c35800113dc2ab",39,8,"Item D","Roof","Roof","R2","Related",36,28,"JOL","Unrelated","U2",6684,"",50
"55d4d11258c35800113dc2ab",40,8,"Item D","Ceiling","Ceiling","R2","Related",25,33,"JOL","Unrelated","U2",3543,"",50
"55d4d11258c35800113dc2ab",41,8,"Item D","Attic","Attic","R2","Related",34,27,"JOL","Unrelated","U2",2599,"",50
"55d4d11258c35800113dc2ab",42,8,"Item D","Floor","Floor","R2","Related",31,34,"JOL","Unrelated","U2",3026,"",50
"55d4d11258c35800113dc2ab",43,8,"Item D","Stairs","Stairs","R2","Related",32,26,"JOL","Unrelated","U2",3381,"",20
"55d4d11258c35800113dc2ab",44,8,"Item D","Basement","Basement","R2","Related",26,36,"JOL","Unrelated","U2",4295,"",40
"55d4d11258c35800113dc2ab",45,8,"Item D","Bathroom","Bathroom","R2","Related",27,29,"JOL","Unrelated","U2",3707,"",50
"55d4d11258c35800113dc2ab",46,8,"Item D","Door","Door","R2","Related",30,37,"JOL","Unrelated","U2",3778,"",10
"55d4d11258c35800113dc2ab",47,8,"Item D","Elevator","Elevator","R2","Related",33,32,"JOL","Unrelated","U2",2795,"",30
"55d4d11258c35800113dc2ab",48,8,"Item D","Hallway","Hallway","R2","Related",35,30,"JOL","Unrelated","U2",3559,"",50
"55d4d11258c35800113dc2ab",49,8,"Item D","Window","Window","R2","Related",28,35,"JOL","Unrelated","U2",3184,"",60
"55d4d11258c35800113dc2ab",50,8,"Item D","Wall","Wall","R2","Related",29,31,"JOL","Unrelated","U2",3332,"",100
"55d4d11258c35800113dc2ab",54,8,"Item D","","","","",NA,0,"FreeRecall","Unrelated","RECALL_Test3",65001,"ceiling attic wall roof stairs bathroom floor basement window door hallway ",NA
"55d4d11258c35800113dc2ab",56,8,"Item D","Card","Card","U2","Unrelated",37,45,"JOL","Related","R2",7245,"",50
"55d4d11258c35800113dc2ab",57,8,"Item D","Basket","Basket","U2","Unrelated",41,40,"JOL","Related","R2",2071,"",5
"55d4d11258c35800113dc2ab",58,8,"Item D","Flute","Flute","U2","Unrelated",38,48,"JOL","Related","R2",2883,"",5
"55d4d11258c35800113dc2ab",59,8,"Item D","Tent","Tent","U2","Unrelated",46,46,"JOL","Related","R2",5060,"",10
"55d4d11258c35800113dc2ab",60,8,"Item D","Drill","Drill","U2","Unrelated",45,49,"JOL","Related","R2",3432,"",5
"55d4d11258c35800113dc2ab",61,8,"Item D","Phone","Phone","U2","Unrelated",47,41,"JOL","Related","R2",2700,"",50
"55d4d11258c35800113dc2ab",62,8,"Item D","Mother","Mother","U2","Unrelated",44,47,"JOL","Related","R2",2875,"",50
"55d4d11258c35800113dc2ab",63,8,"Item D","Cook","Cook","U2","Unrelated",42,39,"JOL","Related","R2",2419,"",50
"55d4d11258c35800113dc2ab",64,8,"Item D","Cloud","Cloud","U2","Unrelated",40,38,"JOL","Related","R2",6312,"",5
"55d4d11258c35800113dc2ab",65,8,"Item D","Rest","Rest","U2","Unrelated",48,44,"JOL","Related","R2",1889,"",2
"55d4d11258c35800113dc2ab",66,8,"Item D","Salt","Salt","U2","Unrelated",39,42,"JOL","Related","R2",1876,"",0
"55d4d11258c35800113dc2ab",67,8,"Item D","Fossil","Fossil","U2","Unrelated",43,43,"JOL","Related","R2",1682,"",0
"55d4d11258c35800113dc2ab",71,8,"Item D","","","","",NA,0,"FreeRecall","Related","RECALL_Test4",65005,"salt mother card basket flute fossil phone",NA
"5788c16f275be600013590a8",5,7,"Item C","Mountain","Mountain","R1","Related",7,2,"JOL","Unrelated","U1",9870,"",50
"5788c16f275be600013590a8",6,7,"Item C","Canyon","Canyon","R1","Related",3,7,"JOL","Unrelated","U1",6792,"",50
"5788c16f275be600013590a8",7,7,"Item C","Rock","Rock","R1","Related",5,5,"JOL","Unrelated","U1",5327,"",70
"5788c16f275be600013590a8",8,7,"Item C","Volcano","Volcano","R1","Related",4,11,"JOL","Unrelated","U1",4379,"",25
"5788c16f275be600013590a8",9,7,"Item C","Ocean","Ocean","R1","Related",8,10,"JOL","Unrelated","U1",3641,"",80
"5788c16f275be600013590a8",10,7,"Item C","Cave","Cave","R1","Related",11,9,"JOL","Unrelated","U1",3100,"",15
"5788c16f275be600013590a8",11,7,"Item C","Glacier","Glacier","R1","Related",12,6,"JOL","Unrelated","U1",4808,"",25
"5788c16f275be600013590a8",12,7,"Item C","Hill","Hill","R1","Related",6,8,"JOL","Unrelated","U1",6909,"",33
"5788c16f275be600013590a8",13,7,"Item C","Lake","Lake","R1","Related",10,4,"JOL","Unrelated","U1",11190,"",42
"5788c16f275be600013590a8",14,7,"Item C","Valley","Valley","R1","Related",1,3,"JOL","Unrelated","U1",9994,"",31
"5788c16f275be600013590a8",15,7,"Item C","River","River","R1","Related",2,12,"JOL","Unrelated","U1",3186,"",60
"5788c16f275be600013590a8",16,7,"Item C","Island","Island","R1","Related",9,13,"JOL","Unrelated","U1",4029,"",55
"5788c16f275be600013590a8",20,7,"Item C","","","","",NA,0,"FreeRecall","Unrelated","RECALL_Test1",65001,"Hill valley lake mountain volcano river island ocean valley hill glacier rock cave canyon ",NA
"5788c16f275be600013590a8",22,7,"Item C","Student","Student","U1","Unrelated",15,16,"JOL","Related","R1",5438,"",70
"5788c16f275be600013590a8",23,7,"Item C","Guitar","Guitar","U1","Unrelated",19,20,"JOL","Related","R1",7393,"",95
"5788c16f275be600013590a8",24,7,"Item C","Parrot","Parrot","U1","Unrelated",21,17,"JOL","Related","R1",3712,"",98
"5788c16f275be600013590a8",25,7,"Item C","Oxygen","Oxygen","U1","Unrelated",18,14,"JOL","Related","R1",4783,"",75
"5788c16f275be600013590a8",26,7,"Item C","Mayor","Mayor","U1","Unrelated",14,21,"JOL","Related","R1",4517,"",25
"5788c16f275be600013590a8",27,7,"Item C","Dollar","Dollar","U1","Unrelated",20,15,"JOL","Related","R1",3707,"",33
"5788c16f275be600013590a8",28,7,"Item C","Milk","Milk","U1","Unrelated",22,18,"JOL","Related","R1",2395,"",60
"5788c16f275be600013590a8",29,7,"Item C","Pants","Pants","U1","Unrelated",17,19,"JOL","Related","R1",3828,"",80
"5788c16f275be600013590a8",30,7,"Item C","Ballet","Ballet","U1","Unrelated",24,25,"JOL","Related","R1",2804,"",15
"5788c16f275be600013590a8",31,7,"Item C","Jeep","Jeep","U1","Unrelated",23,23,"JOL","Related","R1",2535,"",90
"5788c16f275be600013590a8",32,7,"Item C","Hockey","Hockey","U1","Unrelated",16,22,"JOL","Related","R1",3944,"",28
"5788c16f275be600013590a8",33,7,"Item C","Rifle","Rifle","U1","Unrelated",13,24,"JOL","Related","R1",4586,"",42
"5788c16f275be600013590a8",37,7,"Item C","","","","",NA,0,"FreeRecall","Related","RECALL_Test2",65002,"Parrot Jeep Pants Student Dollar Mayor Guitar Ballet Oxygen Rifle Milke",NA
"5788c16f275be600013590a8",39,7,"Item C","Girraffe","Girraffe","R2","Related",31,29,"JOL","Unrelated","U2",6208,"",84
"5788c16f275be600013590a8",40,7,"Item C","Tiger","Tiger","R2","Related",25,35,"JOL","Unrelated","U2",2789,"",90
"5788c16f275be600013590a8",41,7,"Item C","Elephant","Elephant","R2","Related",32,26,"JOL","Unrelated","U2",6060,"",85
"5788c16f275be600013590a8",42,7,"Item C","Cheetah","Cheetah","R2","Related",28,34,"JOL","Unrelated","U2",2402,"",50
"5788c16f275be600013590a8",43,7,"Item C","Zebra","Zebra","R2","Related",27,28,"JOL","Unrelated","U2",3025,"",68
"5788c16f275be600013590a8",44,7,"Item C","Cat","Cat","R2","Related",33,27,"JOL","Unrelated","U2",5704,"",93
"5788c16f275be600013590a8",45,7,"Item C","Goat","Goat","R2","Related",30,36,"JOL","Unrelated","U2",3300,"",88
"5788c16f275be600013590a8",46,7,"Item C","Lion","Lion","R2","Related",26,30,"JOL","Unrelated","U2",3081,"",60
"5788c16f275be600013590a8",47,7,"Item C","Bear","Bear","R2","Related",35,32,"JOL","Unrelated","U2",4357,"",85
"5788c16f275be600013590a8",48,7,"Item C","Cow","Cow","R2","Related",36,31,"JOL","Unrelated","U2",2434,"",99
"5788c16f275be600013590a8",49,7,"Item C","Donkey","Donkey","R2","Related",34,37,"JOL","Unrelated","U2",3349,"",100
"5788c16f275be600013590a8",50,7,"Item C","Wolf","Wolf","R2","Related",29,33,"JOL","Unrelated","U2",2745,"",65
"5788c16f275be600013590a8",54,7,"Item C","","","","",NA,0,"FreeRecall","Unrelated","RECALL_Test3",65002,"Donkey Giraffe Zebra Lion Tiger Wolf Goat Cow Cat Bear Cheetah Elephant",NA
"5788c16f275be600013590a8",56,7,"Item C","Eye","Eye","U2","Unrelated",48,49,"JOL","Related","R2",14580,"",100
"5788c16f275be600013590a8",57,7,"Item C","Sandal","Sandal","U2","Unrelated",37,42,"JOL","Related","R2",5444,"",33
"5788c16f275be600013590a8",58,7,"Item C","Cold","Cold","U2","Unrelated",40,45,"JOL","Related","R2",4903,"",92
"5788c16f275be600013590a8",59,7,"Item C","Lipstick","Lipstick","U2","Unrelated",46,44,"JOL","Related","R2",6827,"",84
"5788c16f275be600013590a8",60,7,"Item C","Computer","Computer","U2","Unrelated",47,40,"JOL","Related","R2",7601,"",90
"5788c16f275be600013590a8",61,7,"Item C","Tulip","Tulip","U2","Unrelated",39,39,"JOL","Related","R2",7804,"",99
"5788c16f275be600013590a8",62,7,"Item C","Fly","Fly","U2","Unrelated",38,38,"JOL","Related","R2",6096,"",42
"5788c16f275be600013590a8",63,7,"Item C","Cruise","Cruise","U2","Unrelated",42,48,"JOL","Related","R2",10324,"",74
"5788c16f275be600013590a8",64,7,"Item C","Blue","Blue","U2","Unrelated",41,43,"JOL","Related","R2",9122,"",100
"5788c16f275be600013590a8",65,7,"Item C","Tea","Tea","U2","Unrelated",45,46,"JOL","Related","R2",7493,"",NA
"5788c16f275be600013590a8",66,7,"Item C","Viper","Viper","U2","Unrelated",44,41,"JOL","Related","R2",8068,"",25
"5788c16f275be600013590a8",67,7,"Item C","Shark","Shark","U2","Unrelated",43,47,"JOL","Related","R2",5960,"",66
"5788c16f275be600013590a8",71,7,"Item C","","","","",NA,0,"FreeRecall","Related","RECALL_Test4",65001,"tea eye cruise shark fly sandal blue tulip cold viper computer lipstick ",NA
"5858c6178604ae000165e66a",5,5,"Item A","Glacier","Glacier","R1","Related",12,12,"JOL","Related","R1",18458,"",55
"5858c6178604ae000165e66a",6,5,"Item A","River","River","R1","Related",2,9,"JOL","Related","R1",9454,"",54
"5858c6178604ae000165e66a",7,5,"Item A","Island","Island","R1","Related",9,6,"JOL","Related","R1",8003,"",60
"5858c6178604ae000165e66a",8,5,"Item A","Canyon","Canyon","R1","Related",3,8,"JOL","Related","R1",4310,"",40
"5858c6178604ae000165e66a",9,5,"Item A","Ocean","Ocean","R1","Related",8,2,"JOL","Related","R1",4086,"",75
"5858c6178604ae000165e66a",10,5,"Item A","Rock","Rock","R1","Related",5,4,"JOL","Related","R1",7976,"",25
"5858c6178604ae000165e66a",11,5,"Item A","Mountain","Mountain","R1","Related",7,11,"JOL","Related","R1",3988,"",35
"5858c6178604ae000165e66a",12,5,"Item A","Lake","Lake","R1","Related",10,13,"JOL","Related","R1",4290,"",40
"5858c6178604ae000165e66a",13,5,"Item A","Valley","Valley","R1","Related",1,5,"JOL","Related","R1",5457,"",39
"5858c6178604ae000165e66a",14,5,"Item A","Volcano","Volcano","R1","Related",4,7,"JOL","Related","R1",5191,"",52
"5858c6178604ae000165e66a",15,5,"Item A","Hill","Hill","R1","Related",6,10,"JOL","Related","R1",8603,"",37
"5858c6178604ae000165e66a",16,5,"Item A","Cave","Cave","R1","Related",11,3,"JOL","Related","R1",5728,"",14
"5858c6178604ae000165e66a",20,5,"Item A","","","","",NA,0,"FreeRecall","Related","RECALL_Test1",65014,"glacier, river, mountain, ocean, island, hill , rock",NA
"5858c6178604ae000165e66a",22,5,"Item A","Rifle","Rifle","U1","Unrelated",13,21,"JOL","Unrelated","U1",4193,"",77
"5858c6178604ae000165e66a",23,5,"Item A","Student","Student","U1","Unrelated",15,20,"JOL","Unrelated","U1",3292,"",67
"5858c6178604ae000165e66a",24,5,"Item A","Ballet","Ballet","U1","Unrelated",24,14,"JOL","Unrelated","U1",3366,"",25
"5858c6178604ae000165e66a",25,5,"Item A","Dollar","Dollar","U1","Unrelated",20,23,"JOL","Unrelated","U1",3040,"",99
"5858c6178604ae000165e66a",26,5,"Item A","Pants","Pants","U1","Unrelated",17,18,"JOL","Unrelated","U1",3497,"",64
"5858c6178604ae000165e66a",27,5,"Item A","Guitar","Guitar","U1","Unrelated",19,19,"JOL","Unrelated","U1",4063,"",57
"5858c6178604ae000165e66a",28,5,"Item A","Parrot","Parrot","U1","Unrelated",21,22,"JOL","Unrelated","U1",2818,"",33
"5858c6178604ae000165e66a",29,5,"Item A","Mayor","Mayor","U1","Unrelated",14,15,"JOL","Unrelated","U1",4267,"",45
"5858c6178604ae000165e66a",30,5,"Item A","Hockey","Hockey","U1","Unrelated",16,16,"JOL","Unrelated","U1",7899,"",57
"5858c6178604ae000165e66a",31,5,"Item A","Jeep","Jeep","U1","Unrelated",23,25,"JOL","Unrelated","U1",3797,"",42
"5858c6178604ae000165e66a",32,5,"Item A","Milk","Milk","U1","Unrelated",22,24,"JOL","Unrelated","U1",4389,"",50
"5858c6178604ae000165e66a",33,5,"Item A","Oxygen","Oxygen","U1","Unrelated",18,17,"JOL","Unrelated","U1",2895,"",77
"5858c6178604ae000165e66a",37,5,"Item A","","","","",NA,0,"FreeRecall","Unrelated","RECALL_Test2",65002,"rifle student major hockey ",NA
"5858c6178604ae000165e66a",39,5,"Item A","Elephant","Elephant","R2","Related",32,33,"JOL","Related","R2",7275,"",20
"5858c6178604ae000165e66a",40,5,"Item A","Goat","Goat","R2","Related",30,30,"JOL","Related","R2",7901,"",15
"5858c6178604ae000165e66a",41,5,"Item A","Tiger","Tiger","R2","Related",25,35,"JOL","Related","R2",4080,"",40
"5858c6178604ae000165e66a",42,5,"Item A","Cat","Cat","R2","Related",33,29,"JOL","Related","R2",5139,"",50
"5858c6178604ae000165e66a",43,5,"Item A","Donkey","Donkey","R2","Related",34,28,"JOL","Related","R2",11792,"",10
"5858c6178604ae000165e66a",44,5,"Item A","Lion","Lion","R2","Related",26,31,"JOL","Related","R2",3724,"",60
"5858c6178604ae000165e66a",45,5,"Item A","Zebra","Zebra","R2","Related",27,37,"JOL","Related","R2",3279,"",77
"5858c6178604ae000165e66a",46,5,"Item A","Cow","Cow","R2","Related",36,36,"JOL","Related","R2",4668,"",40
"5858c6178604ae000165e66a",47,5,"Item A","Wolf","Wolf","R2","Related",29,27,"JOL","Related","R2",2670,"",99
"5858c6178604ae000165e66a",48,5,"Item A","Bear","Bear","R2","Related",35,26,"JOL","Related","R2",4058,"",25
"5858c6178604ae000165e66a",49,5,"Item A","Girraffe","Girraffe","R2","Related",31,32,"JOL","Related","R2",2823,"",15
"5858c6178604ae000165e66a",50,5,"Item A","Cheetah","Cheetah","R2","Related",28,34,"JOL","Related","R2",3715,"",17
"5858c6178604ae000165e66a",54,5,"Item A","","","","",NA,0,"FreeRecall","Related","RECALL_Test3",65001,"elephant tiger cat goat lion donkey cow, giraffe bear wolf ",NA
"5858c6178604ae000165e66a",56,5,"Item A","Cold","Cold","U2","Unrelated",40,42,"JOL","Unrelated","U2",6724,"",30
"5858c6178604ae000165e66a",57,5,"Item A","Lipstick","Lipstick","U2","Unrelated",46,38,"JOL","Unrelated","U2",3389,"",10
"5858c6178604ae000165e66a",58,5,"Item A","Eye","Eye","U2","Unrelated",48,41,"JOL","Unrelated","U2",4381,"",15
"5858c6178604ae000165e66a",59,5,"Item A","Fly","Fly","U2","Unrelated",38,45,"JOL","Unrelated","U2",5635,"",20
"5858c6178604ae000165e66a",60,5,"Item A","Tulip","Tulip","U2","Unrelated",39,40,"JOL","Unrelated","U2",9554,"",5
"5858c6178604ae000165e66a",61,5,"Item A","Sandal","Sandal","U2","Unrelated",37,49,"JOL","Unrelated","U2",7175,"",10
"5858c6178604ae000165e66a",62,5,"Item A","Cruise","Cruise","U2","Unrelated",42,46,"JOL","Unrelated","U2",3853,"",27
"5858c6178604ae000165e66a",63,5,"Item A","Tea","Tea","U2","Unrelated",45,44,"JOL","Unrelated","U2",3828,"",47
"5858c6178604ae000165e66a",64,5,"Item A","Viper","Viper","U2","Unrelated",44,39,"JOL","Unrelated","U2",3685,"",60
"5858c6178604ae000165e66a",65,5,"Item A","Shark","Shark","U2","Unrelated",43,48,"JOL","Unrelated","U2",3490,"",75
"5858c6178604ae000165e66a",66,5,"Item A","Blue","Blue","U2","Unrelated",41,43,"JOL","Unrelated","U2",3818,"",80
"5858c6178604ae000165e66a",67,5,"Item A","Computer","Computer","U2","Unrelated",47,47,"JOL","Unrelated","U2",2678,"",10
"5858c6178604ae000165e66a",71,5,"Item A","","","","",NA,0,"FreeRecall","Unrelated","RECALL_Test4",65009,"cold lipstick computer shark tea ",NA
"58f93198dbfafa0001d227c9",5,6,"Item B","Orange","Orange","R1","Related",2,12,"JOL","Related","R1",3095,"",80
"58f93198dbfafa0001d227c9",6,6,"Item B","Mango","Mango","R1","Related",10,8,"JOL","Related","R1",3238,"",80
"58f93198dbfafa0001d227c9",7,6,"Item B","Kiwi","Kiwi","R1","Related",8,2,"JOL","Related","R1",4184,"",70
"58f93198dbfafa0001d227c9",8,6,"Item B","Pear","Pear","R1","Related",5,11,"JOL","Related","R1",2856,"",70
"58f93198dbfafa0001d227c9",9,6,"Item B","Lemon","Lemon","R1","Related",12,3,"JOL","Related","R1",1833,"",90
"58f93198dbfafa0001d227c9",10,6,"Item B","Apple","Apple","R1","Related",1,13,"JOL","Related","R1",2098,"",100
"58f93198dbfafa0001d227c9",11,6,"Item B","Strawberry","Strawberry","R1","Related",7,6,"JOL","Related","R1",2114,"",80
"58f93198dbfafa0001d227c9",12,6,"Item B","Grape","Grape","R1","Related",4,10,"JOL","Related","R1",2711,"",60
"58f93198dbfafa0001d227c9",13,6,"Item B","Plum","Plum","R1","Related",9,4,"JOL","Related","R1",2056,"",70
"58f93198dbfafa0001d227c9",14,6,"Item B","Peach","Peach","R1","Related",6,7,"JOL","Related","R1",3635,"",70
"58f93198dbfafa0001d227c9",15,6,"Item B","Cherry","Cherry","R1","Related",11,5,"JOL","Related","R1",3561,"",80
"58f93198dbfafa0001d227c9",16,6,"Item B","Banana","Banana","R1","Related",3,9,"JOL","Related","R1",2347,"",100
"58f93198dbfafa0001d227c9",20,6,"Item B","","","","",NA,0,"FreeRecall","Related","RECALL_Test1",65013,"orange banana grape kiwi mango pear peach plum apple strawberry cherry lemon",NA
"58f93198dbfafa0001d227c9",22,6,"Item B","Mint","Mint","U1","Unrelated",17,25,"JOL","Unrelated","U1",3706,"",80
"58f93198dbfafa0001d227c9",23,6,"Item B","Kayak","Kayak","U1","Unrelated",20,23,"JOL","Unrelated","U1",4632,"",30
"58f93198dbfafa0001d227c9",24,6,"Item B","Hawk","Hawk","U1","Unrelated",24,18,"JOL","Unrelated","U1",3560,"",70
"58f93198dbfafa0001d227c9",25,6,"Item B","Document","Document","U1","Unrelated",15,14,"JOL","Unrelated","U1",3927,"",60
"58f93198dbfafa0001d227c9",26,6,"Item B","Yellow","Yellow","U1","Unrelated",19,17,"JOL","Unrelated","U1",3353,"",50
"58f93198dbfafa0001d227c9",27,6,"Item B","Bed","Bed","U1","Unrelated",14,22,"JOL","Unrelated","U1",3178,"",70
"58f93198dbfafa0001d227c9",28,6,"Item B","Slow","Slow","U1","Unrelated",23,24,"JOL","Unrelated","U1",3311,"",60
"58f93198dbfafa0001d227c9",29,6,"Item B","Bean","Bean","U1","Unrelated",22,19,"JOL","Unrelated","U1",2167,"",50
"58f93198dbfafa0001d227c9",30,6,"Item B","Shirt","Shirt","U1","Unrelated",18,15,"JOL","Unrelated","U1",2011,"",60
"58f93198dbfafa0001d227c9",31,6,"Item B","Dirt","Dirt","U1","Unrelated",16,16,"JOL","Unrelated","U1",3938,"",60
"58f93198dbfafa0001d227c9",32,6,"Item B","Frog","Frog","U1","Unrelated",13,21,"JOL","Unrelated","U1",2952,"",80
"58f93198dbfafa0001d227c9",33,6,"Item B","Flea","Flea","U1","Unrelated",21,20,"JOL","Unrelated","U1",3107,"",80
"58f93198dbfafa0001d227c9",37,6,"Item B","","","","",NA,0,"FreeRecall","Unrelated","RECALL_Test2",65004,"hawk frog flea mint yellow dirt shirt bed kayak document ",NA
"58f93198dbfafa0001d227c9",39,6,"Item B","Ceiling","Ceiling","R2","Related",25,26,"JOL","Related","R2",3443,"",50
"58f93198dbfafa0001d227c9",40,6,"Item B","Bathroom","Bathroom","R2","Related",27,28,"JOL","Related","R2",3611,"",70
"58f93198dbfafa0001d227c9",41,6,"Item B","Attic","Attic","R2","Related",34,32,"JOL","Related","R2",3775,"",70
"58f93198dbfafa0001d227c9",42,6,"Item B","Stairs","Stairs","R2","Related",32,33,"JOL","Related","R2",4256,"",60
"58f93198dbfafa0001d227c9",43,6,"Item B","Basement","Basement","R2","Related",26,30,"JOL","Related","R2",1924,"",70
"58f93198dbfafa0001d227c9",44,6,"Item B","Roof","Roof","R2","Related",36,36,"JOL","Related","R2",1601,"",80
"58f93198dbfafa0001d227c9",45,6,"Item B","Window","Window","R2","Related",28,37,"JOL","Related","R2",4045,"",70
"58f93198dbfafa0001d227c9",46,6,"Item B","Wall","Wall","R2","Related",29,34,"JOL","Related","R2",2098,"",60
"58f93198dbfafa0001d227c9",47,6,"Item B","Door","Door","R2","Related",30,29,"JOL","Related","R2",2149,"",70
"58f93198dbfafa0001d227c9",48,6,"Item B","Floor","Floor","R2","Related",31,27,"JOL","Related","R2",3421,"",80
"58f93198dbfafa0001d227c9",49,6,"Item B","Hallway","Hallway","R2","Related",35,35,"JOL","Related","R2",2816,"",80
"58f93198dbfafa0001d227c9",50,6,"Item B","Elevator","Elevator","R2","Related",33,31,"JOL","Related","R2",2949,"",40
"58f93198dbfafa0001d227c9",54,6,"Item B","","","","",NA,0,"FreeRecall","Related","RECALL_Test3",65004,"wall window door stairs ceiling floor hallway bathroom attic basement roof",NA
"58f93198dbfafa0001d227c9",56,6,"Item B","Flute","Flute","U2","Unrelated",38,40,"JOL","Unrelated","U2",2329,"",50
"58f93198dbfafa0001d227c9",57,6,"Item B","Cloud","Cloud","U2","Unrelated",40,39,"JOL","Unrelated","U2",3981,"",60
"58f93198dbfafa0001d227c9",58,6,"Item B","Card","Card","U2","Unrelated",37,49,"JOL","Unrelated","U2",3128,"",50
"58f93198dbfafa0001d227c9",59,6,"Item B","Salt","Salt","U2","Unrelated",39,43,"JOL","Unrelated","U2",1816,"",70
"58f93198dbfafa0001d227c9",60,6,"Item B","Drill","Drill","U2","Unrelated",45,45,"JOL","Unrelated","U2",2243,"",40
"58f93198dbfafa0001d227c9",61,6,"Item B","Phone","Phone","U2","Unrelated",47,41,"JOL","Unrelated","U2",2669,"",50
"58f93198dbfafa0001d227c9",62,6,"Item B","Tent","Tent","U2","Unrelated",46,47,"JOL","Unrelated","U2",2582,"",60
"58f93198dbfafa0001d227c9",63,6,"Item B","Cook","Cook","U2","Unrelated",42,38,"JOL","Unrelated","U2",2210,"",40
"58f93198dbfafa0001d227c9",64,6,"Item B","Basket","Basket","U2","Unrelated",41,44,"JOL","Unrelated","U2",2492,"",60
"58f93198dbfafa0001d227c9",65,6,"Item B","Fossil","Fossil","U2","Unrelated",43,46,"JOL","Unrelated","U2",2173,"",70
"58f93198dbfafa0001d227c9",66,6,"Item B","Mother","Mother","U2","Unrelated",44,42,"JOL","Unrelated","U2",3300,"",60
"58f93198dbfafa0001d227c9",67,6,"Item B","Rest","Rest","U2","Unrelated",48,48,"JOL","Unrelated","U2",2406,"",40
"58f93198dbfafa0001d227c9",71,6,"Item B","","","","",NA,0,"FreeRecall","Unrelated","RECALL_Test4",65012,"card tent basket mother rest fossil salt ",NA
"5cd633b904748d001a19f092",5,7,"Item C","Glacier","Glacier","R1","Related",12,2,"JOL","Unrelated","U1",16035,"",75
"5cd633b904748d001a19f092",6,7,"Item C","Valley","Valley","R1","Related",1,12,"JOL","Unrelated","U1",8550,"",90
"5cd633b904748d001a19f092",7,7,"Item C","Canyon","Canyon","R1","Related",3,6,"JOL","Unrelated","U1",8147,"",70
"5cd633b904748d001a19f092",8,7,"Item C","Mountain","Mountain","R1","Related",7,11,"JOL","Unrelated","U1",10721,"",70
"5cd633b904748d001a19f092",9,7,"Item C","Island","Island","R1","Related",9,9,"JOL","Unrelated","U1",7525,"",65
"5cd633b904748d001a19f092",10,7,"Item C","Ocean","Ocean","R1","Related",8,8,"JOL","Unrelated","U1",6517,"",90
"5cd633b904748d001a19f092",11,7,"Item C","Cave","Cave","R1","Related",11,5,"JOL","Unrelated","U1",4324,"",50
"5cd633b904748d001a19f092",12,7,"Item C","Rock","Rock","R1","Related",5,10,"JOL","Unrelated","U1",2746,"",79
"5cd633b904748d001a19f092",13,7,"Item C","Volcano","Volcano","R1","Related",4,13,"JOL","Unrelated","U1",4052,"",75
"5cd633b904748d001a19f092",14,7,"Item C","Hill","Hill","R1","Related",6,3,"JOL","Unrelated","U1",3013,"",60
"5cd633b904748d001a19f092",15,7,"Item C","Lake","Lake","R1","Related",10,4,"JOL","Unrelated","U1",2940,"",75
"5cd633b904748d001a19f092",16,7,"Item C","River","River","R1","Related",2,7,"JOL","Unrelated","U1",2193,"",80
"5cd633b904748d001a19f092",20,7,"Item C","","","","",NA,0,"FreeRecall","Unrelated","RECALL_Test1",65000,"ocean, river, valley, canyon, hill, mountain, ",NA
"5cd633b904748d001a19f092",22,7,"Item C","Jeep","Jeep","U1","Unrelated",23,25,"JOL","Related","R1",4915,"",95
"5cd633b904748d001a19f092",23,7,"Item C","Ballet","Ballet","U1","Unrelated",24,16,"JOL","Related","R1",8071,"",80
"5cd633b904748d001a19f092",24,7,"Item C","Hockey","Hockey","U1","Unrelated",16,22,"JOL","Related","R1",4356,"",90
"5cd633b904748d001a19f092",25,7,"Item C","Oxygen","Oxygen","U1","Unrelated",18,21,"JOL","Related","R1",5886,"",88
"5cd633b904748d001a19f092",26,7,"Item C","Rifle","Rifle","U1","Unrelated",13,24,"JOL","Related","R1",4137,"",95
"5cd633b904748d001a19f092",27,7,"Item C","Pants","Pants","U1","Unrelated",17,18,"JOL","Related","R1",4347,"",75
"5cd633b904748d001a19f092",28,7,"Item C","Milk","Milk","U1","Unrelated",22,20,"JOL","Related","R1",2250,"",99
"5cd633b904748d001a19f092",29,7,"Item C","Guitar","Guitar","U1","Unrelated",19,19,"JOL","Related","R1",7188,"",82
"5cd633b904748d001a19f092",30,7,"Item C","Parrot","Parrot","U1","Unrelated",21,17,"JOL","Related","R1",6136,"",50
"5cd633b904748d001a19f092",31,7,"Item C","Student","Student","U1","Unrelated",15,14,"JOL","Related","R1",2783,"",96
"5cd633b904748d001a19f092",32,7,"Item C","Dollar","Dollar","U1","Unrelated",20,23,"JOL","Related","R1",2109,"",99
"5cd633b904748d001a19f092",33,7,"Item C","Mayor","Mayor","U1","Unrelated",14,15,"JOL","Related","R1",8854,"",75
"5cd633b904748d001a19f092",37,7,"Item C","","","","",NA,0,"FreeRecall","Related","RECALL_Test2",65005,"Jeep, mayor, student, hockey, rifle, guitar, milk, pants, ",NA
"5cd633b904748d001a19f092",39,7,"Item C","Elephant","Elephant","R2","Related",32,37,"JOL","Unrelated","U2",9102,"",80
"5cd633b904748d001a19f092",40,7,"Item C","Girraffe","Girraffe","R2","Related",31,27,"JOL","Unrelated","U2",5788,"",85
"5cd633b904748d001a19f092",41,7,"Item C","Donkey","Donkey","R2","Related",34,31,"JOL","Unrelated","U2",4172,"",90
"5cd633b904748d001a19f092",42,7,"Item C","Cow","Cow","R2","Related",36,30,"JOL","Unrelated","U2",6582,"",78
"5cd633b904748d001a19f092",43,7,"Item C","Tiger","Tiger","R2","Related",25,34,"JOL","Unrelated","U2",2461,"",80
"5cd633b904748d001a19f092",44,7,"Item C","Cheetah","Cheetah","R2","Related",28,35,"JOL","Unrelated","U2",8479,"",65
"5cd633b904748d001a19f092",45,7,"Item C","Lion","Lion","R2","Related",26,32,"JOL","Unrelated","U2",7998,"",95
"5cd633b904748d001a19f092",46,7,"Item C","Wolf","Wolf","R2","Related",29,28,"JOL","Unrelated","U2",5757,"",86
"5cd633b904748d001a19f092",47,7,"Item C","Cat","Cat","R2","Related",33,33,"JOL","Unrelated","U2",5634,"",99
"5cd633b904748d001a19f092",48,7,"Item C","Goat","Goat","R2","Related",30,29,"JOL","Unrelated","U2",2912,"",56
"5cd633b904748d001a19f092",49,7,"Item C","Zebra","Zebra","R2","Related",27,36,"JOL","Unrelated","U2",7454,"",76
"5cd633b904748d001a19f092",50,7,"Item C","Bear","Bear","R2","Related",35,26,"JOL","Unrelated","U2",5534,"",80
"5cd633b904748d001a19f092",54,7,"Item C","","","","",NA,0,"FreeRecall","Unrelated","RECALL_Test3",65096,"donkey, cat, lion, giraffe, cheetah, tiger, elephant, zebra, horse, cow, sheep,",NA
"5cd633b904748d001a19f092",56,7,"Item C","Lipstick","Lipstick","U2","Unrelated",46,46,"JOL","Related","R2",3561,"",55
"5cd633b904748d001a19f092",57,7,"Item C","Computer","Computer","U2","Unrelated",47,44,"JOL","Related","R2",3150,"",80
"5cd633b904748d001a19f092",58,7,"Item C","Tulip","Tulip","U2","Unrelated",39,40,"JOL","Related","R2",5938,"",75
"5cd633b904748d001a19f092",59,7,"Item C","Tea","Tea","U2","Unrelated",45,47,"JOL","Related","R2",2322,"",89
"5cd633b904748d001a19f092",60,7,"Item C","Eye","Eye","U2","Unrelated",48,45,"JOL","Related","R2",5109,"",65
"5cd633b904748d001a19f092",61,7,"Item C","Cruise","Cruise","U2","Unrelated",42,49,"JOL","Related","R2",1650,"",55
"5cd633b904748d001a19f092",62,7,"Item C","Sandal","Sandal","U2","Unrelated",37,43,"JOL","Related","R2",2342,"",89
"5cd633b904748d001a19f092",63,7,"Item C","Shark","Shark","U2","Unrelated",43,39,"JOL","Related","R2",2082,"",76
"5cd633b904748d001a19f092",64,7,"Item C","Blue","Blue","U2","Unrelated",41,42,"JOL","Related","R2",10096,"",65
"5cd633b904748d001a19f092",65,7,"Item C","Fly","Fly","U2","Unrelated",38,48,"JOL","Related","R2",3526,"",60
"5cd633b904748d001a19f092",66,7,"Item C","Viper","Viper","U2","Unrelated",44,38,"JOL","Related","R2",4754,"",45
"5cd633b904748d001a19f092",67,7,"Item C","Cold","Cold","U2","Unrelated",40,41,"JOL","Related","R2",6615,"",76
"5cd633b904748d001a19f092",71,7,"Item C","","","","",NA,0,"FreeRecall","Related","RECALL_Test4",65001,"viper, cold, blue, tulip, tea, computer, eye, sandal, ice, snake",NA
"5d8a29c082fec30001d9c24a",5,5,"Item A","Mountain","Mountain","R1","Related",7,9,"JOL","Related","R1",7085,"",60
"5d8a29c082fec30001d9c24a",6,5,"Item A","Ocean","Ocean","R1","Related",8,5,"JOL","Related","R1",5836,"",30
"5d8a29c082fec30001d9c24a",7,5,"Item A","Rock","Rock","R1","Related",5,3,"JOL","Related","R1",6364,"",15
"5d8a29c082fec30001d9c24a",8,5,"Item A","Canyon","Canyon","R1","Related",3,4,"JOL","Related","R1",6961,"",55
"5d8a29c082fec30001d9c24a",9,5,"Item A","Valley","Valley","R1","Related",1,6,"JOL","Related","R1",7920,"",44
"5d8a29c082fec30001d9c24a",10,5,"Item A","Glacier","Glacier","R1","Related",12,2,"JOL","Related","R1",6338,"",5
"5d8a29c082fec30001d9c24a",11,5,"Item A","Volcano","Volcano","R1","Related",4,12,"JOL","Related","R1",8021,"",14
"5d8a29c082fec30001d9c24a",12,5,"Item A","River","River","R1","Related",2,8,"JOL","Related","R1",9215,"",77
"5d8a29c082fec30001d9c24a",13,5,"Item A","Lake","Lake","R1","Related",10,7,"JOL","Related","R1",6920,"",95
"5d8a29c082fec30001d9c24a",14,5,"Item A","Cave","Cave","R1","Related",11,13,"JOL","Related","R1",6328,"",88
"5d8a29c082fec30001d9c24a",15,5,"Item A","Hill","Hill","R1","Related",6,11,"JOL","Related","R1",5884,"",98
"5d8a29c082fec30001d9c24a",16,5,"Item A","Island","Island","R1","Related",9,10,"JOL","Related","R1",7943,"",36
"5d8a29c082fec30001d9c24a",20,5,"Item A","","","","",NA,0,"FreeRecall","Related","RECALL_Test1",65000,"mountain island volcano ocean rock canyon valley glacier river lake cave hill",NA
"5d8a29c082fec30001d9c24a",22,5,"Item A","Parrot","Parrot","U1","Unrelated",21,24,"JOL","Unrelated","U1",5531,"",12
"5d8a29c082fec30001d9c24a",23,5,"Item A","Ballet","Ballet","U1","Unrelated",24,21,"JOL","Unrelated","U1",4508,"",7
"5d8a29c082fec30001d9c24a",24,5,"Item A","Hockey","Hockey","U1","Unrelated",16,17,"JOL","Unrelated","U1",9343,"",23
"5d8a29c082fec30001d9c24a",25,5,"Item A","Jeep","Jeep","U1","Unrelated",23,22,"JOL","Unrelated","U1",10083,"",63
"5d8a29c082fec30001d9c24a",26,5,"Item A","Milk","Milk","U1","Unrelated",22,18,"JOL","Unrelated","U1",7267,"",71
"5d8a29c082fec30001d9c24a",27,5,"Item A","Rifle","Rifle","U1","Unrelated",13,16,"JOL","Unrelated","U1",6778,"",57
"5d8a29c082fec30001d9c24a",28,5,"Item A","Student","Student","U1","Unrelated",15,25,"JOL","Unrelated","U1",6624,"",34
"5d8a29c082fec30001d9c24a",29,5,"Item A","Pants","Pants","U1","Unrelated",17,23,"JOL","Unrelated","U1",6119,"",68
"5d8a29c082fec30001d9c24a",30,5,"Item A","Guitar","Guitar","U1","Unrelated",19,19,"JOL","Unrelated","U1",5766,"",88
"5d8a29c082fec30001d9c24a",31,5,"Item A","Mayor","Mayor","U1","Unrelated",14,14,"JOL","Unrelated","U1",7375,"",48
"5d8a29c082fec30001d9c24a",32,5,"Item A","Oxygen","Oxygen","U1","Unrelated",18,20,"JOL","Unrelated","U1",8133,"",39
"5d8a29c082fec30001d9c24a",33,5,"Item A","Dollar","Dollar","U1","Unrelated",20,15,"JOL","Unrelated","U1",6709,"",24
"5d8a29c082fec30001d9c24a",37,5,"Item A","","","","",NA,0,"FreeRecall","Unrelated","RECALL_Test2",65001,"parrot ballet hockey jeep milk rifle student pants guitar mayor oxygen dollar",NA
"5d8a29c082fec30001d9c24a",39,5,"Item A","Cow","Cow","R2","Related",36,36,"JOL","Related","R2",6330,"",99
"5d8a29c082fec30001d9c24a",40,5,"Item A","Tiger","Tiger","R2","Related",25,28,"JOL","Related","R2",5107,"",85
"5d8a29c082fec30001d9c24a",41,5,"Item A","Zebra","Zebra","R2","Related",27,31,"JOL","Related","R2",5441,"",13
"5d8a29c082fec30001d9c24a",42,5,"Item A","Girraffe","Girraffe","R2","Related",31,26,"JOL","Related","R2",7753,"",3
"5d8a29c082fec30001d9c24a",43,5,"Item A","Goat","Goat","R2","Related",30,29,"JOL","Related","R2",5150,"",64
"5d8a29c082fec30001d9c24a",44,5,"Item A","Lion","Lion","R2","Related",26,34,"JOL","Related","R2",7621,"",74
"5d8a29c082fec30001d9c24a",45,5,"Item A","Wolf","Wolf","R2","Related",29,35,"JOL","Related","R2",8951,"",94
"5d8a29c082fec30001d9c24a",46,5,"Item A","Cat","Cat","R2","Related",33,27,"JOL","Related","R2",5893,"",100
"5d8a29c082fec30001d9c24a",47,5,"Item A","Cheetah","Cheetah","R2","Related",28,32,"JOL","Related","R2",11788,"",28
"5d8a29c082fec30001d9c24a",48,5,"Item A","Bear","Bear","R2","Related",35,30,"JOL","Related","R2",5520,"",44
"5d8a29c082fec30001d9c24a",49,5,"Item A","Donkey","Donkey","R2","Related",34,33,"JOL","Related","R2",6878,"",36
"5d8a29c082fec30001d9c24a",50,5,"Item A","Elephant","Elephant","R2","Related",32,37,"JOL","Related","R2",8158,"",88
"5d8a29c082fec30001d9c24a",54,5,"Item A","","","","",NA,0,"FreeRecall","Related","RECALL_Test3",65002,"cow tiger zebra girraffe goat lion wolf cat cheetah bear donkey elephant",NA
"5d8a29c082fec30001d9c24a",56,5,"Item A","Sandal","Sandal","U2","Unrelated",37,48,"JOL","Unrelated","U2",5218,"",34
"5d8a29c082fec30001d9c24a",57,5,"Item A","Lipstick","Lipstick","U2","Unrelated",46,43,"JOL","Unrelated","U2",6484,"",47
"5d8a29c082fec30001d9c24a",58,5,"Item A","Cold","Cold","U2","Unrelated",40,49,"JOL","Unrelated","U2",7993,"",71
"5d8a29c082fec30001d9c24a",59,5,"Item A","Viper","Viper","U2","Unrelated",44,38,"JOL","Unrelated","U2",5380,"",33
"5d8a29c082fec30001d9c24a",60,5,"Item A","Tea","Tea","U2","Unrelated",45,41,"JOL","Unrelated","U2",5799,"",100
"5d8a29c082fec30001d9c24a",61,5,"Item A","Cruise","Cruise","U2","Unrelated",42,46,"JOL","Unrelated","U2",8408,"",32
"5d8a29c082fec30001d9c24a",62,5,"Item A","Shark","Shark","U2","Unrelated",43,40,"JOL","Unrelated","U2",6874,"",51
"5d8a29c082fec30001d9c24a",63,5,"Item A","Tulip","Tulip","U2","Unrelated",39,44,"JOL","Unrelated","U2",7908,"",81
"5d8a29c082fec30001d9c24a",64,5,"Item A","Blue","Blue","U2","Unrelated",41,39,"JOL","Unrelated","U2",4939,"",22
"5d8a29c082fec30001d9c24a",65,5,"Item A","Eye","Eye","U2","Unrelated",48,47,"JOL","Unrelated","U2",5997,"",13
"5d8a29c082fec30001d9c24a",66,5,"Item A","Fly","Fly","U2","Unrelated",38,42,"JOL","Unrelated","U2",8676,"",47
"5d8a29c082fec30001d9c24a",67,5,"Item A","Computer","Computer","U2","Unrelated",47,45,"JOL","Unrelated","U2",8561,"",72
"5d8a29c082fec30001d9c24a",71,5,"Item A","","","","",NA,0,"FreeRecall","Unrelated","RECALL_Test4",65001,"sandal lipstick cold viper tea shark blue eye fly computer",NA
"5da6b2aca2860400146b8ace",5,6,"Item B","Grape","Grape","R1","Related",4,7,"JOL","Related","R1",23415,"",75
"5da6b2aca2860400146b8ace",6,6,"Item B","Peach","Peach","R1","Related",6,13,"JOL","Related","R1",11203,"",75
"5da6b2aca2860400146b8ace",7,6,"Item B","Cherry","Cherry","R1","Related",11,5,"JOL","Related","R1",17125,"",65
"5da6b2aca2860400146b8ace",8,6,"Item B","Orange","Orange","R1","Related",2,12,"JOL","Related","R1",8261,"",50
"5da6b2aca2860400146b8ace",9,6,"Item B","Strawberry","Strawberry","R1","Related",7,10,"JOL","Related","R1",13642,"",50
"5da6b2aca2860400146b8ace",10,6,"Item B","Banana","Banana","R1","Related",3,4,"JOL","Related","R1",8830,"",50
"5da6b2aca2860400146b8ace",11,6,"Item B","Kiwi","Kiwi","R1","Related",8,3,"JOL","Related","R1",6296,"",50
"5da6b2aca2860400146b8ace",12,6,"Item B","Plum","Plum","R1","Related",9,11,"JOL","Related","R1",3878,"",45
"5da6b2aca2860400146b8ace",13,6,"Item B","Pear","Pear","R1","Related",5,2,"JOL","Related","R1",7938,"",86
"5da6b2aca2860400146b8ace",14,6,"Item B","Mango","Mango","R1","Related",10,6,"JOL","Related","R1",4306,"",50
"5da6b2aca2860400146b8ace",15,6,"Item B","Apple","Apple","R1","Related",1,9,"JOL","Related","R1",6060,"",50
"5da6b2aca2860400146b8ace",16,6,"Item B","Lemon","Lemon","R1","Related",12,8,"JOL","Related","R1",9138,"",45
"5da6b2aca2860400146b8ace",20,6,"Item B","","","","",NA,0,"FreeRecall","Related","RECALL_Test1",65001,"strawberry kiwi peach apple pair cherry orange lemon grape bannana ",NA
"5da6b2aca2860400146b8ace",22,6,"Item B","Dirt","Dirt","U1","Unrelated",16,18,"JOL","Unrelated","U1",19382,"",65
"5da6b2aca2860400146b8ace",23,6,"Item B","Slow","Slow","U1","Unrelated",23,21,"JOL","Unrelated","U1",4160,"",55
"5da6b2aca2860400146b8ace",24,6,"Item B","Bed","Bed","U1","Unrelated",14,20,"JOL","Unrelated","U1",2699,"",50
"5da6b2aca2860400146b8ace",25,6,"Item B","Kayak","Kayak","U1","Unrelated",20,17,"JOL","Unrelated","U1",6864,"",40
"5da6b2aca2860400146b8ace",26,6,"Item B","Flea","Flea","U1","Unrelated",21,23,"JOL","Unrelated","U1",2258,"",40
"5da6b2aca2860400146b8ace",27,6,"Item B","Shirt","Shirt","U1","Unrelated",18,25,"JOL","Unrelated","U1",2732,"",35
"5da6b2aca2860400146b8ace",28,6,"Item B","Bean","Bean","U1","Unrelated",22,14,"JOL","Unrelated","U1",2061,"",40
"5da6b2aca2860400146b8ace",29,6,"Item B","Frog","Frog","U1","Unrelated",13,24,"JOL","Unrelated","U1",2548,"",40
"5da6b2aca2860400146b8ace",30,6,"Item B","Mint","Mint","U1","Unrelated",17,22,"JOL","Unrelated","U1",2965,"",34
"5da6b2aca2860400146b8ace",31,6,"Item B","Yellow","Yellow","U1","Unrelated",19,16,"JOL","Unrelated","U1",3418,"",45
"5da6b2aca2860400146b8ace",32,6,"Item B","Hawk","Hawk","U1","Unrelated",24,19,"JOL","Unrelated","U1",2603,"",35
"5da6b2aca2860400146b8ace",33,6,"Item B","Document","Document","U1","Unrelated",15,15,"JOL","Unrelated","U1",9461,"",75
"5da6b2aca2860400146b8ace",37,6,"Item B","","","","",NA,0,"FreeRecall","Unrelated","RECALL_Test2",65005,"dirt slow kayak document frog flea yellow",NA
"5da6b2aca2860400146b8ace",39,6,"Item B","Attic","Attic","R2","Related",34,28,"JOL","Related","R2",8760,"",35
"5da6b2aca2860400146b8ace",40,6,"Item B","Basement","Basement","R2","Related",26,27,"JOL","Related","R2",10638,"",65
"5da6b2aca2860400146b8ace",41,6,"Item B","Window","Window","R2","Related",28,32,"JOL","Related","R2",2722,"",55
"5da6b2aca2860400146b8ace",42,6,"Item B","Roof","Roof","R2","Related",36,31,"JOL","Related","R2",3318,"",50
"5da6b2aca2860400146b8ace",43,6,"Item B","Bathroom","Bathroom","R2","Related",27,34,"JOL","Related","R2",4447,"",39
"5da6b2aca2860400146b8ace",44,6,"Item B","Wall","Wall","R2","Related",29,26,"JOL","Related","R2",4428,"",50
"5da6b2aca2860400146b8ace",45,6,"Item B","Door","Door","R2","Related",30,36,"JOL","Related","R2",3447,"",55
"5da6b2aca2860400146b8ace",46,6,"Item B","Floor","Floor","R2","Related",31,29,"JOL","Related","R2",2796,"",55
"5da6b2aca2860400146b8ace",47,6,"Item B","Hallway","Hallway","R2","Related",35,33,"JOL","Related","R2",3098,"",35
"5da6b2aca2860400146b8ace",48,6,"Item B","Elevator","Elevator","R2","Related",33,30,"JOL","Related","R2",3154,"",35
"5da6b2aca2860400146b8ace",49,6,"Item B","Ceiling","Ceiling","R2","Related",25,35,"JOL","Related","R2",2679,"",40
"5da6b2aca2860400146b8ace",50,6,"Item B","Stairs","Stairs","R2","Related",32,37,"JOL","Related","R2",3001,"",50
"5da6b2aca2860400146b8ace",54,6,"Item B","","","","",NA,0,"FreeRecall","Related","RECALL_Test3",65002,"attic basement wall ceiling floor door window stairs hallway ",NA
"5da6b2aca2860400146b8ace",56,6,"Item B","Cook","Cook","U2","Unrelated",42,42,"JOL","Unrelated","U2",4677,"",50
"5da6b2aca2860400146b8ace",57,6,"Item B","Drill","Drill","U2","Unrelated",45,39,"JOL","Unrelated","U2",4703,"",45
"5da6b2aca2860400146b8ace",58,6,"Item B","Tent","Tent","U2","Unrelated",46,45,"JOL","Unrelated","U2",3140,"",40
"5da6b2aca2860400146b8ace",59,6,"Item B","Cloud","Cloud","U2","Unrelated",40,47,"JOL","Unrelated","U2",2790,"",40
"5da6b2aca2860400146b8ace",60,6,"Item B","Card","Card","U2","Unrelated",37,46,"JOL","Unrelated","U2",2227,"",40
"5da6b2aca2860400146b8ace",61,6,"Item B","Salt","Salt","U2","Unrelated",39,41,"JOL","Unrelated","U2",1879,"",35
"5da6b2aca2860400146b8ace",62,6,"Item B","Mother","Mother","U2","Unrelated",44,48,"JOL","Unrelated","U2",2467,"",55
"5da6b2aca2860400146b8ace",63,6,"Item B","Basket","Basket","U2","Unrelated",41,49,"JOL","Unrelated","U2",2308,"",65
"5da6b2aca2860400146b8ace",64,6,"Item B","Rest","Rest","U2","Unrelated",48,40,"JOL","Unrelated","U2",3645,"",35
"5da6b2aca2860400146b8ace",65,6,"Item B","Flute","Flute","U2","Unrelated",38,44,"JOL","Unrelated","U2",2415,"",35
"5da6b2aca2860400146b8ace",66,6,"Item B","Phone","Phone","U2","Unrelated",47,38,"JOL","Unrelated","U2",3433,"",30
"5da6b2aca2860400146b8ace",67,6,"Item B","Fossil","Fossil","U2","Unrelated",43,43,"JOL","Unrelated","U2",2110,"",30
"5da6b2aca2860400146b8ace",71,6,"Item B","","","","",NA,0,"FreeRecall","Unrelated","RECALL_Test4",65002,"mother te",NA
"5e29fd5f2bec3b065e9a729e",5,8,"Item D","Plum","Plum","R1","Related",9,3,"JOL","Unrelated","U1",18450,"",100
"5e29fd5f2bec3b065e9a729e",6,8,"Item D","Lemon","Lemon","R1","Related",12,6,"JOL","Unrelated","U1",10140,"",100
"5e29fd5f2bec3b065e9a729e",7,8,"Item D","Strawberry","Strawberry","R1","Related",7,2,"JOL","Unrelated","U1",7617,"",98
"5e29fd5f2bec3b065e9a729e",8,8,"Item D","Pear","Pear","R1","Related",5,7,"JOL","Unrelated","U1",6024,"",98
"5e29fd5f2bec3b065e9a729e",9,8,"Item D","Grape","Grape","R1","Related",4,9,"JOL","Unrelated","U1",9549,"",98
"5e29fd5f2bec3b065e9a729e",10,8,"Item D","Banana","Banana","R1","Related",3,5,"JOL","Unrelated","U1",6820,"",100
"5e29fd5f2bec3b065e9a729e",11,8,"Item D","Apple","Apple","R1","Related",1,8,"JOL","Unrelated","U1",4570,"",98
"5e29fd5f2bec3b065e9a729e",12,8,"Item D","Orange","Orange","R1","Related",2,4,"JOL","Unrelated","U1",4853,"",98
"5e29fd5f2bec3b065e9a729e",13,8,"Item D","Kiwi","Kiwi","R1","Related",8,12,"JOL","Unrelated","U1",5020,"",100
"5e29fd5f2bec3b065e9a729e",14,8,"Item D","Cherry","Cherry","R1","Related",11,13,"JOL","Unrelated","U1",7705,"",98
"5e29fd5f2bec3b065e9a729e",15,8,"Item D","Peach","Peach","R1","Related",6,11,"JOL","Unrelated","U1",4175,"",98
"5e29fd5f2bec3b065e9a729e",16,8,"Item D","Mango","Mango","R1","Related",10,10,"JOL","Unrelated","U1",5101,"",98
"5e29fd5f2bec3b065e9a729e",20,8,"Item D","","","","",NA,0,"FreeRecall","Unrelated","RECALL_Test1",65007,"apple mango peach strawberry lemon kiwi cherry orange ",NA
"5e29fd5f2bec3b065e9a729e",22,8,"Item D","Hawk","Hawk","U1","Unrelated",24,14,"JOL","Related","R1",14665,"",90
"5e29fd5f2bec3b065e9a729e",23,8,"Item D","Bed","Bed","U1","Unrelated",14,20,"JOL","Related","R1",6530,"",90
"5e29fd5f2bec3b065e9a729e",24,8,"Item D","Kayak","Kayak","U1","Unrelated",20,25,"JOL","Related","R1",4960,"",100
"5e29fd5f2bec3b065e9a729e",25,8,"Item D","Bean","Bean","U1","Unrelated",22,24,"JOL","Related","R1",7870,"",90
"5e29fd5f2bec3b065e9a729e",26,8,"Item D","Mint","Mint","U1","Unrelated",17,18,"JOL","Related","R1",9700,"",100
"5e29fd5f2bec3b065e9a729e",27,8,"Item D","Dirt","Dirt","U1","Unrelated",16,21,"JOL","Related","R1",7924,"",95
"5e29fd5f2bec3b065e9a729e",28,8,"Item D","Document","Document","U1","Unrelated",15,22,"JOL","Related","R1",6484,"",95
"5e29fd5f2bec3b065e9a729e",29,8,"Item D","Yellow","Yellow","U1","Unrelated",19,19,"JOL","Related","R1",5480,"",100
"5e29fd5f2bec3b065e9a729e",30,8,"Item D","Frog","Frog","U1","Unrelated",13,15,"JOL","Related","R1",4373,"",100
"5e29fd5f2bec3b065e9a729e",31,8,"Item D","Slow","Slow","U1","Unrelated",23,23,"JOL","Related","R1",5705,"",95
"5e29fd5f2bec3b065e9a729e",32,8,"Item D","Flea","Flea","U1","Unrelated",21,16,"JOL","Related","R1",4476,"",100
"5e29fd5f2bec3b065e9a729e",33,8,"Item D","Shirt","Shirt","U1","Unrelated",18,17,"JOL","Related","R1",5308,"",90
"5e29fd5f2bec3b065e9a729e",37,8,"Item D","","","","",NA,0,"FreeRecall","Related","RECALL_Test2",65006,"shirt mint flea ",NA
"5e29fd5f2bec3b065e9a729e",39,8,"Item D","Ceiling","Ceiling","R2","Related",25,37,"JOL","Unrelated","U2",15010,"",100
"5e29fd5f2bec3b065e9a729e",40,8,"Item D","Floor","Floor","R2","Related",31,30,"JOL","Unrelated","U2",4716,"",100
"5e29fd5f2bec3b065e9a729e",41,8,"Item D","Basement","Basement","R2","Related",26,36,"JOL","Unrelated","U2",5104,"",100
"5e29fd5f2bec3b065e9a729e",42,8,"Item D","Attic","Attic","R2","Related",34,33,"JOL","Unrelated","U2",6052,"",95
"5e29fd5f2bec3b065e9a729e",43,8,"Item D","Wall","Wall","R2","Related",29,29,"JOL","Unrelated","U2",5708,"",95
"5e29fd5f2bec3b065e9a729e",44,8,"Item D","Door","Door","R2","Related",30,28,"JOL","Unrelated","U2",5894,"",95
"5e29fd5f2bec3b065e9a729e",45,8,"Item D","Roof","Roof","R2","Related",36,26,"JOL","Unrelated","U2",8462,"",100
"5e29fd5f2bec3b065e9a729e",46,8,"Item D","Stairs","Stairs","R2","Related",32,34,"JOL","Unrelated","U2",5462,"",95
"5e29fd5f2bec3b065e9a729e",47,8,"Item D","Hallway","Hallway","R2","Related",35,27,"JOL","Unrelated","U2",4956,"",90
"5e29fd5f2bec3b065e9a729e",48,8,"Item D","Bathroom","Bathroom","R2","Related",27,35,"JOL","Unrelated","U2",6127,"",100
"5e29fd5f2bec3b065e9a729e",49,8,"Item D","Elevator","Elevator","R2","Related",33,31,"JOL","Unrelated","U2",4093,"",90
"5e29fd5f2bec3b065e9a729e",50,8,"Item D","Window","Window","R2","Related",28,32,"JOL","Unrelated","U2",5471,"",90
"5e29fd5f2bec3b065e9a729e",54,8,"Item D","","","","",NA,0,"FreeRecall","Unrelated","RECALL_Test3",65005,"roof ceiling door bathroom attic elevator wall hallway floor ",NA
"5e29fd5f2bec3b065e9a729e",56,8,"Item D","Cook","Cook","U2","Unrelated",42,49,"JOL","Related","R2",7888,"",95
"5e29fd5f2bec3b065e9a729e",57,8,"Item D","Basket","Basket","U2","Unrelated",41,40,"JOL","Related","R2",5208,"",90
"5e29fd5f2bec3b065e9a729e",58,8,"Item D","Flute","Flute","U2","Unrelated",38,45,"JOL","Related","R2",7554,"",80
"5e29fd5f2bec3b065e9a729e",59,8,"Item D","Mother","Mother","U2","Unrelated",44,43,"JOL","Related","R2",5922,"",90
"5e29fd5f2bec3b065e9a729e",60,8,"Item D","Tent","Tent","U2","Unrelated",46,44,"JOL","Related","R2",5613,"",100
"5e29fd5f2bec3b065e9a729e",61,8,"Item D","Drill","Drill","U2","Unrelated",45,38,"JOL","Related","R2",4466,"",90
"5e29fd5f2bec3b065e9a729e",62,8,"Item D","Salt","Salt","U2","Unrelated",39,41,"JOL","Related","R2",5382,"",95
"5e29fd5f2bec3b065e9a729e",63,8,"Item D","Rest","Rest","U2","Unrelated",48,39,"JOL","Related","R2",10110,"",90
"5e29fd5f2bec3b065e9a729e",64,8,"Item D","Fossil","Fossil","U2","Unrelated",43,48,"JOL","Related","R2",5157,"",70
"5e29fd5f2bec3b065e9a729e",65,8,"Item D","Phone","Phone","U2","Unrelated",47,42,"JOL","Related","R2",4762,"",90
"5e29fd5f2bec3b065e9a729e",66,8,"Item D","Cloud","Cloud","U2","Unrelated",40,46,"JOL","Related","R2",5751,"",90
"5e29fd5f2bec3b065e9a729e",67,8,"Item D","Card","Card","U2","Unrelated",37,47,"JOL","Related","R2",5708,"",85
"5e29fd5f2bec3b065e9a729e",71,8,"Item D","","","","",NA,0,"FreeRecall","Related","RECALL_Test4",65007,"card cook salt ",NA
"5e42fc295135b5000cd20d0b",5,5,"Item A","Volcano","Volcano","R1","Related",4,7,"JOL","Related","R1",13716,"",59
"5e42fc295135b5000cd20d0b",6,5,"Item A","Mountain","Mountain","R1","Related",7,4,"JOL","Related","R1",8511,"",60
"5e42fc295135b5000cd20d0b",7,5,"Item A","Cave","Cave","R1","Related",11,13,"JOL","Related","R1",7149,"",65
"5e42fc295135b5000cd20d0b",8,5,"Item A","River","River","R1","Related",2,9,"JOL","Related","R1",6127,"",55
"5e42fc295135b5000cd20d0b",9,5,"Item A","Canyon","Canyon","R1","Related",3,8,"JOL","Related","R1",5819,"",70
"5e42fc295135b5000cd20d0b",10,5,"Item A","Island","Island","R1","Related",9,10,"JOL","Related","R1",4635,"",75
"5e42fc295135b5000cd20d0b",11,5,"Item A","Rock","Rock","R1","Related",5,6,"JOL","Related","R1",5993,"",68
"5e42fc295135b5000cd20d0b",12,5,"Item A","Ocean","Ocean","R1","Related",8,12,"JOL","Related","R1",4060,"",88
"5e42fc295135b5000cd20d0b",13,5,"Item A","Lake","Lake","R1","Related",10,3,"JOL","Related","R1",5613,"",65
"5e42fc295135b5000cd20d0b",14,5,"Item A","Valley","Valley","R1","Related",1,11,"JOL","Related","R1",7460,"",57
"5e42fc295135b5000cd20d0b",15,5,"Item A","Glacier","Glacier","R1","Related",12,2,"JOL","Related","R1",4108,"",75
"5e42fc295135b5000cd20d0b",16,5,"Item A","Hill","Hill","R1","Related",6,5,"JOL","Related","R1",5557,"",90
"5e42fc295135b5000cd20d0b",20,5,"Item A","","","","",NA,0,"FreeRecall","Related","RECALL_Test1",65002,"volcano hill glacier ocean rock canyon island River lake valley cave mountain",NA
"5e42fc295135b5000cd20d0b",22,5,"Item A","Parrot","Parrot","U1","Unrelated",21,19,"JOL","Unrelated","U1",4527,"",75
"5e42fc295135b5000cd20d0b",23,5,"Item A","Ballet","Ballet","U1","Unrelated",24,21,"JOL","Unrelated","U1",4289,"",87
"5e42fc295135b5000cd20d0b",24,5,"Item A","Dollar","Dollar","U1","Unrelated",20,17,"JOL","Unrelated","U1",4225,"",69
"5e42fc295135b5000cd20d0b",25,5,"Item A","Hockey","Hockey","U1","Unrelated",16,23,"JOL","Unrelated","U1",3384,"",78
"5e42fc295135b5000cd20d0b",26,5,"Item A","Pants","Pants","U1","Unrelated",17,22,"JOL","Unrelated","U1",4232,"",90
"5e42fc295135b5000cd20d0b",27,5,"Item A","Milk","Milk","U1","Unrelated",22,16,"JOL","Unrelated","U1",3804,"",65
"5e42fc295135b5000cd20d0b",28,5,"Item A","Guitar","Guitar","U1","Unrelated",19,24,"JOL","Unrelated","U1",3750,"",78
"5e42fc295135b5000cd20d0b",29,5,"Item A","Oxygen","Oxygen","U1","Unrelated",18,20,"JOL","Unrelated","U1",3251,"",95
"5e42fc295135b5000cd20d0b",30,5,"Item A","Mayor","Mayor","U1","Unrelated",14,18,"JOL","Unrelated","U1",2775,"",75
"5e42fc295135b5000cd20d0b",31,5,"Item A","Rifle","Rifle","U1","Unrelated",13,25,"JOL","Unrelated","U1",3421,"",45
"5e42fc295135b5000cd20d0b",32,5,"Item A","Student","Student","U1","Unrelated",15,14,"JOL","Unrelated","U1",2917,"",95
"5e42fc295135b5000cd20d0b",33,5,"Item A","Jeep","Jeep","U1","Unrelated",23,15,"JOL","Unrelated","U1",2976,"",85
"5e42fc295135b5000cd20d0b",37,5,"Item A","","","","",NA,0,"FreeRecall","Unrelated","RECALL_Test2",65004,"jeep student guitar oxygen mayor rifle parrot ballet hockey pants dollar",NA
"5e42fc295135b5000cd20d0b",39,5,"Item A","Goat","Goat","R2","Related",30,32,"JOL","Related","R2",3005,"",69
"5e42fc295135b5000cd20d0b",40,5,"Item A","Cat","Cat","R2","Related",33,36,"JOL","Related","R2",3028,"",88
"5e42fc295135b5000cd20d0b",41,5,"Item A","Zebra","Zebra","R2","Related",27,28,"JOL","Related","R2",1701,"",90
"5e42fc295135b5000cd20d0b",42,5,"Item A","Wolf","Wolf","R2","Related",29,26,"JOL","Related","R2",3747,"",90
"5e42fc295135b5000cd20d0b",43,5,"Item A","Lion","Lion","R2","Related",26,30,"JOL","Related","R2",2337,"",79
"5e42fc295135b5000cd20d0b",44,5,"Item A","Cheetah","Cheetah","R2","Related",28,37,"JOL","Related","R2",2607,"",75
"5e42fc295135b5000cd20d0b",45,5,"Item A","Tiger","Tiger","R2","Related",25,27,"JOL","Related","R2",2461,"",79
"5e42fc295135b5000cd20d0b",46,5,"Item A","Donkey","Donkey","R2","Related",34,31,"JOL","Related","R2",3828,"",96
"5e42fc295135b5000cd20d0b",47,5,"Item A","Girraffe","Girraffe","R2","Related",31,33,"JOL","Related","R2",2691,"",99
"5e42fc295135b5000cd20d0b",48,5,"Item A","Cow","Cow","R2","Related",36,35,"JOL","Related","R2",2648,"",89
"5e42fc295135b5000cd20d0b",49,5,"Item A","Elephant","Elephant","R2","Related",32,29,"JOL","Related","R2",2619,"",65
"5e42fc295135b5000cd20d0b",50,5,"Item A","Bear","Bear","R2","Related",35,34,"JOL","Related","R2",2240,"",77
"5e42fc295135b5000cd20d0b",54,5,"Item A","","","","",NA,0,"FreeRecall","Related","RECALL_Test3",65001,"elephant zebra wolf bear goat cow giraffe cheetah tiger cat donkey lion",NA
"5e42fc295135b5000cd20d0b",56,5,"Item A","Computer","Computer","U2","Unrelated",47,41,"JOL","Unrelated","U2",4212,"",80
"5e42fc295135b5000cd20d0b",57,5,"Item A","Viper","Viper","U2","Unrelated",44,39,"JOL","Unrelated","U2",3656,"",95
"5e42fc295135b5000cd20d0b",58,5,"Item A","Eye","Eye","U2","Unrelated",48,48,"JOL","Unrelated","U2",3019,"",79
"5e42fc295135b5000cd20d0b",59,5,"Item A","Shark","Shark","U2","Unrelated",43,44,"JOL","Unrelated","U2",1693,"",90
"5e42fc295135b5000cd20d0b",60,5,"Item A","Tea","Tea","U2","Unrelated",45,38,"JOL","Unrelated","U2",2537,"",93
"5e42fc295135b5000cd20d0b",61,5,"Item A","Sandal","Sandal","U2","Unrelated",37,40,"JOL","Unrelated","U2",2474,"",67
"5e42fc295135b5000cd20d0b",62,5,"Item A","Fly","Fly","U2","Unrelated",38,49,"JOL","Unrelated","U2",1846,"",79
"5e42fc295135b5000cd20d0b",63,5,"Item A","Blue","Blue","U2","Unrelated",41,42,"JOL","Unrelated","U2",1736,"",98
"5e42fc295135b5000cd20d0b",64,5,"Item A","Lipstick","Lipstick","U2","Unrelated",46,47,"JOL","Unrelated","U2",1697,"",99
"5e42fc295135b5000cd20d0b",65,5,"Item A","Cruise","Cruise","U2","Unrelated",42,43,"JOL","Unrelated","U2",2274,"",50
"5e42fc295135b5000cd20d0b",66,5,"Item A","Tulip","Tulip","U2","Unrelated",39,46,"JOL","Unrelated","U2",2005,"",78
"5e42fc295135b5000cd20d0b",67,5,"Item A","Cold","Cold","U2","Unrelated",40,45,"JOL","Unrelated","U2",2206,"",80
"5e42fc295135b5000cd20d0b",71,5,"Item A","","","","",NA,0,"FreeRecall","Unrelated","RECALL_Test4",65002,"viper tulip cold computer blue sandal shark fly lipstick cruise",NA
"5e4438c766f95e2bcccc2548",5,6,"Item B","Lemon","Lemon","R1","Related",12,2,"JOL","Related","R1",12591,"",75
"5e4438c766f95e2bcccc2548",6,6,"Item B","Apple","Apple","R1","Related",1,12,"JOL","Related","R1",4708,"",75
"5e4438c766f95e2bcccc2548",7,6,"Item B","Strawberry","Strawberry","R1","Related",7,13,"JOL","Related","R1",4881,"",75
"5e4438c766f95e2bcccc2548",8,6,"Item B","Orange","Orange","R1","Related",2,11,"JOL","Related","R1",4081,"",75
"5e4438c766f95e2bcccc2548",9,6,"Item B","Kiwi","Kiwi","R1","Related",8,3,"JOL","Related","R1",3661,"",50
"5e4438c766f95e2bcccc2548",10,6,"Item B","Grape","Grape","R1","Related",4,10,"JOL","Related","R1",7783,"",50
"5e4438c766f95e2bcccc2548",11,6,"Item B","Plum","Plum","R1","Related",9,8,"JOL","Related","R1",4240,"",35
"5e4438c766f95e2bcccc2548",12,6,"Item B","Pear","Pear","R1","Related",5,4,"JOL","Related","R1",4169,"",50
"5e4438c766f95e2bcccc2548",13,6,"Item B","Banana","Banana","R1","Related",3,6,"JOL","Related","R1",4821,"",70
"5e4438c766f95e2bcccc2548",14,6,"Item B","Mango","Mango","R1","Related",10,7,"JOL","Related","R1",3442,"",30
"5e4438c766f95e2bcccc2548",15,6,"Item B","Cherry","Cherry","R1","Related",11,9,"JOL","Related","R1",5117,"",20
"5e4438c766f95e2bcccc2548",16,6,"Item B","Peach","Peach","R1","Related",6,5,"JOL","Related","R1",6613,"",20
"5e4438c766f95e2bcccc2548",20,6,"Item B","","","","",NA,0,"FreeRecall","Related","RECALL_Test1",65007,"apple, orange, banana, kiwi, pear, plum, grapes, cherry, ",NA
"5e4438c766f95e2bcccc2548",22,6,"Item B","Document","Document","U1","Unrelated",15,20,"JOL","Unrelated","U1",6066,"",30
"5e4438c766f95e2bcccc2548",23,6,"Item B","Dirt","Dirt","U1","Unrelated",16,17,"JOL","Unrelated","U1",4219,"",50
"5e4438c766f95e2bcccc2548",24,6,"Item B","Mint","Mint","U1","Unrelated",17,18,"JOL","Unrelated","U1",7167,"",40
"5e4438c766f95e2bcccc2548",25,6,"Item B","Hawk","Hawk","U1","Unrelated",24,15,"JOL","Unrelated","U1",5023,"",40
"5e4438c766f95e2bcccc2548",26,6,"Item B","Kayak","Kayak","U1","Unrelated",20,23,"JOL","Unrelated","U1",5345,"",50
"5e4438c766f95e2bcccc2548",27,6,"Item B","Shirt","Shirt","U1","Unrelated",18,21,"JOL","Unrelated","U1",3377,"",60
"5e4438c766f95e2bcccc2548",28,6,"Item B","Yellow","Yellow","U1","Unrelated",19,19,"JOL","Unrelated","U1",3708,"",75
"5e4438c766f95e2bcccc2548",29,6,"Item B","Frog","Frog","U1","Unrelated",13,16,"JOL","Unrelated","U1",3028,"",50
"5e4438c766f95e2bcccc2548",30,6,"Item B","Bean","Bean","U1","Unrelated",22,25,"JOL","Unrelated","U1",5173,"",40
"5e4438c766f95e2bcccc2548",31,6,"Item B","Flea","Flea","U1","Unrelated",21,24,"JOL","Unrelated","U1",3431,"",70
"5e4438c766f95e2bcccc2548",32,6,"Item B","Slow","Slow","U1","Unrelated",23,22,"JOL","Unrelated","U1",4591,"",70
"5e4438c766f95e2bcccc2548",33,6,"Item B","Bed","Bed","U1","Unrelated",14,14,"JOL","Unrelated","U1",4351,"",60
"5e4438c766f95e2bcccc2548",37,6,"Item B","","","","",NA,0,"FreeRecall","Unrelated","RECALL_Test2",65006,"dirt, yellow, frog, ",NA
"5e4438c766f95e2bcccc2548",39,6,"Item B","Roof","Roof","R2","Related",36,27,"JOL","Related","R2",7204,"",30
"5e4438c766f95e2bcccc2548",40,6,"Item B","Ceiling","Ceiling","R2","Related",25,30,"JOL","Related","R2",4730,"",40
"5e4438c766f95e2bcccc2548",41,6,"Item B","Bathroom","Bathroom","R2","Related",27,37,"JOL","Related","R2",4612,"",50
"5e4438c766f95e2bcccc2548",42,6,"Item B","Floor","Floor","R2","Related",31,34,"JOL","Related","R2",3023,"",50
"5e4438c766f95e2bcccc2548",43,6,"Item B","Hallway","Hallway","R2","Related",35,33,"JOL","Related","R2",4748,"",40
"5e4438c766f95e2bcccc2548",44,6,"Item B","Attic","Attic","R2","Related",34,35,"JOL","Related","R2",3685,"",40
"5e4438c766f95e2bcccc2548",45,6,"Item B","Wall","Wall","R2","Related",29,29,"JOL","Related","R2",3912,"",50
"5e4438c766f95e2bcccc2548",46,6,"Item B","Stairs","Stairs","R2","Related",32,31,"JOL","Related","R2",3861,"",60
"5e4438c766f95e2bcccc2548",47,6,"Item B","Basement","Basement","R2","Related",26,28,"JOL","Related","R2",3111,"",40
"5e4438c766f95e2bcccc2548",48,6,"Item B","Elevator","Elevator","R2","Related",33,36,"JOL","Related","R2",3910,"",30
"5e4438c766f95e2bcccc2548",49,6,"Item B","Door","Door","R2","Related",30,32,"JOL","Related","R2",3473,"",50
"5e4438c766f95e2bcccc2548",50,6,"Item B","Window","Window","R2","Related",28,26,"JOL","Related","R2",2689,"",50
"5e4438c766f95e2bcccc2548",54,6,"Item B","","","","",NA,0,"FreeRecall","Related","RECALL_Test3",65006,"roof, ceiling, hallway, attic, door, stairs, basement, bath, wall, ",NA
"5e4438c766f95e2bcccc2548",56,6,"Item B","Flute","Flute","U2","Unrelated",38,41,"JOL","Unrelated","U2",7465,"",50
"5e4438c766f95e2bcccc2548",57,6,"Item B","Cook","Cook","U2","Unrelated",42,38,"JOL","Unrelated","U2",3666,"",30
"5e4438c766f95e2bcccc2548",58,6,"Item B","Basket","Basket","U2","Unrelated",41,42,"JOL","Unrelated","U2",4297,"",30
"5e4438c766f95e2bcccc2548",59,6,"Item B","Fossil","Fossil","U2","Unrelated",43,49,"JOL","Unrelated","U2",4254,"",20
"5e4438c766f95e2bcccc2548",60,6,"Item B","Phone","Phone","U2","Unrelated",47,43,"JOL","Unrelated","U2",3375,"",40
"5e4438c766f95e2bcccc2548",61,6,"Item B","Tent","Tent","U2","Unrelated",46,45,"JOL","Unrelated","U2",3995,"",30
"5e4438c766f95e2bcccc2548",62,6,"Item B","Cloud","Cloud","U2","Unrelated",40,39,"JOL","Unrelated","U2",3919,"",40
"5e4438c766f95e2bcccc2548",63,6,"Item B","Drill","Drill","U2","Unrelated",45,44,"JOL","Unrelated","U2",3286,"",30
"5e4438c766f95e2bcccc2548",64,6,"Item B","Rest","Rest","U2","Unrelated",48,47,"JOL","Unrelated","U2",4414,"",30
"5e4438c766f95e2bcccc2548",65,6,"Item B","Card","Card","U2","Unrelated",37,40,"JOL","Unrelated","U2",3460,"",20
"5e4438c766f95e2bcccc2548",66,6,"Item B","Mother","Mother","U2","Unrelated",44,48,"JOL","Unrelated","U2",5441,"",80
"5e4438c766f95e2bcccc2548",67,6,"Item B","Salt","Salt","U2","Unrelated",39,46,"JOL","Unrelated","U2",3525,"",50
"5e4438c766f95e2bcccc2548",71,6,"Item B","","","","",NA,0,"FreeRecall","Unrelated","RECALL_Test4",65006,"mother, flute, ",NA
"5e49f30e8459a1469b1950e5",5,7,"Item C","Volcano","Volcano","R1","Related",4,8,"JOL","Unrelated","U1",7128,"",70
"5e49f30e8459a1469b1950e5",6,7,"Item C","Canyon","Canyon","R1","Related",3,7,"JOL","Unrelated","U1",15686,"",65
"5e49f30e8459a1469b1950e5",7,7,"Item C","Island","Island","R1","Related",9,13,"JOL","Unrelated","U1",3344,"",75
"5e49f30e8459a1469b1950e5",8,7,"Item C","Cave","Cave","R1","Related",11,11,"JOL","Unrelated","U1",1834,"",80
"5e49f30e8459a1469b1950e5",9,7,"Item C","Hill","Hill","R1","Related",6,12,"JOL","Unrelated","U1",9167,"",80
"5e49f30e8459a1469b1950e5",10,7,"Item C","Lake","Lake","R1","Related",10,10,"JOL","Unrelated","U1",6018,"",70
"5e49f30e8459a1469b1950e5",11,7,"Item C","Rock","Rock","R1","Related",5,4,"JOL","Unrelated","U1",4198,"",85
"5e49f30e8459a1469b1950e5",12,7,"Item C","Ocean","Ocean","R1","Related",8,3,"JOL","Unrelated","U1",9200,"",70
"5e49f30e8459a1469b1950e5",13,7,"Item C","Mountain","Mountain","R1","Related",7,5,"JOL","Unrelated","U1",4217,"",55
"5e49f30e8459a1469b1950e5",14,7,"Item C","Valley","Valley","R1","Related",1,6,"JOL","Unrelated","U1",2290,"",55
"5e49f30e8459a1469b1950e5",15,7,"Item C","River","River","R1","Related",2,9,"JOL","Unrelated","U1",2497,"",65
"5e49f30e8459a1469b1950e5",16,7,"Item C","Glacier","Glacier","R1","Related",12,2,"JOL","Unrelated","U1",8741,"",50
"5e49f30e8459a1469b1950e5",20,7,"Item C","","","","",NA,0,"FreeRecall","Unrelated","RECALL_Test1",65366,"Mountain, Hill, Canyon, Valley, River, Rock, Cave, Glacier, ",NA
"5e49f30e8459a1469b1950e5",22,7,"Item C","Jeep","Jeep","U1","Unrelated",23,15,"JOL","Related","R1",6999,"",50
"5e49f30e8459a1469b1950e5",23,7,"Item C","Pants","Pants","U1","Unrelated",17,14,"JOL","Related","R1",7230,"",50
"5e49f30e8459a1469b1950e5",24,7,"Item C","Student","Student","U1","Unrelated",15,16,"JOL","Related","R1",5566,"",75
"5e49f30e8459a1469b1950e5",25,7,"Item C","Oxygen","Oxygen","U1","Unrelated",18,25,"JOL","Related","R1",9534,"",90
"5e49f30e8459a1469b1950e5",26,7,"Item C","Ballet","Ballet","U1","Unrelated",24,20,"JOL","Related","R1",2412,"",50
"5e49f30e8459a1469b1950e5",27,7,"Item C","Mayor","Mayor","U1","Unrelated",14,19,"JOL","Related","R1",2096,"",60
"5e49f30e8459a1469b1950e5",28,7,"Item C","Milk","Milk","U1","Unrelated",22,23,"JOL","Related","R1",3395,"",40
"5e49f30e8459a1469b1950e5",29,7,"Item C","Parrot","Parrot","U1","Unrelated",21,18,"JOL","Related","R1",5052,"",59
"5e49f30e8459a1469b1950e5",30,7,"Item C","Dollar","Dollar","U1","Unrelated",20,17,"JOL","Related","R1",12101,"",70
"5e49f30e8459a1469b1950e5",31,7,"Item C","Rifle","Rifle","U1","Unrelated",13,24,"JOL","Related","R1",3126,"",68
"5e49f30e8459a1469b1950e5",32,7,"Item C","Guitar","Guitar","U1","Unrelated",19,22,"JOL","Related","R1",4076,"",80
"5e49f30e8459a1469b1950e5",33,7,"Item C","Hockey","Hockey","U1","Unrelated",16,21,"JOL","Related","R1",1734,"",80
"5e49f30e8459a1469b1950e5",37,7,"Item C","","","","",NA,0,"FreeRecall","Related","RECALL_Test2",65398,"Milk, Jeep, Office, ",NA
"5e49f30e8459a1469b1950e5",39,7,"Item C","Bear","Bear","R2","Related",35,33,"JOL","Unrelated","U2",6291,"",30
"5e49f30e8459a1469b1950e5",40,7,"Item C","Cow","Cow","R2","Related",36,26,"JOL","Unrelated","U2",3939,"",25
"5e49f30e8459a1469b1950e5",41,7,"Item C","Zebra","Zebra","R2","Related",27,35,"JOL","Unrelated","U2",2219,"",20
"5e49f30e8459a1469b1950e5",42,7,"Item C","Elephant","Elephant","R2","Related",32,30,"JOL","Unrelated","U2",1966,"",40
"5e49f30e8459a1469b1950e5",43,7,"Item C","Wolf","Wolf","R2","Related",29,31,"JOL","Unrelated","U2",1739,"",30
"5e49f30e8459a1469b1950e5",44,7,"Item C","Goat","Goat","R2","Related",30,32,"JOL","Unrelated","U2",2382,"",33
"5e49f30e8459a1469b1950e5",45,7,"Item C","Donkey","Donkey","R2","Related",34,28,"JOL","Unrelated","U2",3028,"",45
"5e49f30e8459a1469b1950e5",46,7,"Item C","Tiger","Tiger","R2","Related",25,36,"JOL","Unrelated","U2",3595,"",50
"5e49f30e8459a1469b1950e5",47,7,"Item C","Lion","Lion","R2","Related",26,37,"JOL","Unrelated","U2",1548,"",55
"5e49f30e8459a1469b1950e5",48,7,"Item C","Cat","Cat","R2","Related",33,29,"JOL","Unrelated","U2",3087,"",90
"5e49f30e8459a1469b1950e5",49,7,"Item C","Girraffe","Girraffe","R2","Related",31,34,"JOL","Unrelated","U2",9576,"",70
"5e49f30e8459a1469b1950e5",50,7,"Item C","Cheetah","Cheetah","R2","Related",28,27,"JOL","Unrelated","U2",2599,"",55
"5e49f30e8459a1469b1950e5",54,7,"Item C","","","","",NA,0,"FreeRecall","Unrelated","RECALL_Test3",65193,"Cat, Cheetah, Giraffe, Lion, Elephant, Cow, Bear, ",NA
"5e49f30e8459a1469b1950e5",56,7,"Item C","Cold","Cold","U2","Unrelated",40,39,"JOL","Related","R2",3020,"",90
"5e49f30e8459a1469b1950e5",57,7,"Item C","Blue","Blue","U2","Unrelated",41,47,"JOL","Related","R2",2072,"",20
"5e49f30e8459a1469b1950e5",58,7,"Item C","Viper","Viper","U2","Unrelated",44,49,"JOL","Related","R2",2957,"",20
"5e49f30e8459a1469b1950e5",59,7,"Item C","Fly","Fly","U2","Unrelated",38,45,"JOL","Related","R2",2016,"",50
"5e49f30e8459a1469b1950e5",60,7,"Item C","Lipstick","Lipstick","U2","Unrelated",46,42,"JOL","Related","R2",2015,"",60
"5e49f30e8459a1469b1950e5",61,7,"Item C","Eye","Eye","U2","Unrelated",48,44,"JOL","Related","R2",3479,"",70
"5e49f30e8459a1469b1950e5",62,7,"Item C","Tulip","Tulip","U2","Unrelated",39,40,"JOL","Related","R2",2680,"",25
"5e49f30e8459a1469b1950e5",63,7,"Item C","Computer","Computer","U2","Unrelated",47,46,"JOL","Related","R2",1750,"",90
"5e49f30e8459a1469b1950e5",64,7,"Item C","Sandal","Sandal","U2","Unrelated",37,48,"JOL","Related","R2",8229,"",35
"5e49f30e8459a1469b1950e5",65,7,"Item C","Tea","Tea","U2","Unrelated",45,41,"JOL","Related","R2",2797,"",85
"5e49f30e8459a1469b1950e5",66,7,"Item C","Cruise","Cruise","U2","Unrelated",42,43,"JOL","Related","R2",5049,"",40
"5e49f30e8459a1469b1950e5",67,7,"Item C","Shark","Shark","U2","Unrelated",43,38,"JOL","Related","R2",1849,"",35
"5e49f30e8459a1469b1950e5",71,7,"Item C","","","","",NA,0,"FreeRecall","Related","RECALL_Test4",65326,"Cruise, Computer, Cold, Fly, Lipstick, ",NA
"5ea32a0ea7b59a0c92e82ac8",5,6,"Item B","Strawberry","Strawberry","R1","Related",7,7,"JOL","Related","R1",14081,"",100
"5ea32a0ea7b59a0c92e82ac8",6,6,"Item B","Banana","Banana","R1","Related",3,13,"JOL","Related","R1",3239,"",100
"5ea32a0ea7b59a0c92e82ac8",7,6,"Item B","Kiwi","Kiwi","R1","Related",8,11,"JOL","Related","R1",2225,"",100
"5ea32a0ea7b59a0c92e82ac8",8,6,"Item B","Mango","Mango","R1","Related",10,10,"JOL","Related","R1",1916,"",100
"5ea32a0ea7b59a0c92e82ac8",9,6,"Item B","Plum","Plum","R1","Related",9,9,"JOL","Related","R1",3108,"",80
"5ea32a0ea7b59a0c92e82ac8",10,6,"Item B","Apple","Apple","R1","Related",1,3,"JOL","Related","R1",4101,"",80
"5ea32a0ea7b59a0c92e82ac8",11,6,"Item B","Pear","Pear","R1","Related",5,12,"JOL","Related","R1",4473,"",30
"5ea32a0ea7b59a0c92e82ac8",12,6,"Item B","Peach","Peach","R1","Related",6,8,"JOL","Related","R1",2933,"",30
"5ea32a0ea7b59a0c92e82ac8",13,6,"Item B","Grape","Grape","R1","Related",4,6,"JOL","Related","R1",2331,"",90
"5ea32a0ea7b59a0c92e82ac8",14,6,"Item B","Lemon","Lemon","R1","Related",12,5,"JOL","Related","R1",15010,"",20
"5ea32a0ea7b59a0c92e82ac8",15,6,"Item B","Cherry","Cherry","R1","Related",11,4,"JOL","Related","R1",2452,"",10
"5ea32a0ea7b59a0c92e82ac8",16,6,"Item B","Orange","Orange","R1","Related",2,2,"JOL","Related","R1",2212,"",100
"5ea32a0ea7b59a0c92e82ac8",20,6,"Item B","","","","",NA,0,"FreeRecall","Related","RECALL_Test1",65001,"mango apple cherry kivi pear peach lemon grape plum orange banana ",NA
"5ea32a0ea7b59a0c92e82ac8",22,6,"Item B","Bean","Bean","U1","Unrelated",22,24,"JOL","Unrelated","U1",3931,"",100
"5ea32a0ea7b59a0c92e82ac8",23,6,"Item B","Document","Document","U1","Unrelated",15,15,"JOL","Unrelated","U1",3268,"",20
"5ea32a0ea7b59a0c92e82ac8",24,6,"Item B","Hawk","Hawk","U1","Unrelated",24,21,"JOL","Unrelated","U1",2734,"",50
"5ea32a0ea7b59a0c92e82ac8",25,6,"Item B","Slow","Slow","U1","Unrelated",23,25,"JOL","Unrelated","U1",1982,"",20
"5ea32a0ea7b59a0c92e82ac8",26,6,"Item B","Flea","Flea","U1","Unrelated",21,20,"JOL","Unrelated","U1",2652,"",0
"5ea32a0ea7b59a0c92e82ac8",27,6,"Item B","Shirt","Shirt","U1","Unrelated",18,18,"JOL","Unrelated","U1",3243,"",50
"5ea32a0ea7b59a0c92e82ac8",28,6,"Item B","Kayak","Kayak","U1","Unrelated",20,22,"JOL","Unrelated","U1",2261,"",0
"5ea32a0ea7b59a0c92e82ac8",29,6,"Item B","Bed","Bed","U1","Unrelated",14,16,"JOL","Unrelated","U1",2943,"",100
"5ea32a0ea7b59a0c92e82ac8",30,6,"Item B","Frog","Frog","U1","Unrelated",13,23,"JOL","Unrelated","U1",2659,"",100
"5ea32a0ea7b59a0c92e82ac8",31,6,"Item B","Mint","Mint","U1","Unrelated",17,19,"JOL","Unrelated","U1",1831,"",100
"5ea32a0ea7b59a0c92e82ac8",32,6,"Item B","Dirt","Dirt","U1","Unrelated",16,17,"JOL","Unrelated","U1",2584,"",70
"5ea32a0ea7b59a0c92e82ac8",33,6,"Item B","Yellow","Yellow","U1","Unrelated",19,14,"JOL","Unrelated","U1",2495,"",100
"5ea32a0ea7b59a0c92e82ac8",37,6,"Item B","","","","",NA,0,"FreeRecall","Unrelated","RECALL_Test2",65000,"Dirt document bed yellow kayak hawk frog ",NA
"5ea32a0ea7b59a0c92e82ac8",39,6,"Item B","Floor","Floor","R2","Related",31,29,"JOL","Related","R2",3252,"",90
"5ea32a0ea7b59a0c92e82ac8",40,6,"Item B","Hallway","Hallway","R2","Related",35,34,"JOL","Related","R2",2075,"",90
"5ea32a0ea7b59a0c92e82ac8",41,6,"Item B","Roof","Roof","R2","Related",36,32,"JOL","Related","R2",1765,"",100
"5ea32a0ea7b59a0c92e82ac8",42,6,"Item B","Basement","Basement","R2","Related",26,37,"JOL","Related","R2",1877,"",100
"5ea32a0ea7b59a0c92e82ac8",43,6,"Item B","Window","Window","R2","Related",28,35,"JOL","Related","R2",1487,"",100
"5ea32a0ea7b59a0c92e82ac8",44,6,"Item B","Elevator","Elevator","R2","Related",33,26,"JOL","Related","R2",2017,"",20
"5ea32a0ea7b59a0c92e82ac8",45,6,"Item B","Attic","Attic","R2","Related",34,30,"JOL","Related","R2",2738,"",20
"5ea32a0ea7b59a0c92e82ac8",46,6,"Item B","Stairs","Stairs","R2","Related",32,28,"JOL","Related","R2",1660,"",100
"5ea32a0ea7b59a0c92e82ac8",47,6,"Item B","Door","Door","R2","Related",30,36,"JOL","Related","R2",1320,"",100
"5ea32a0ea7b59a0c92e82ac8",48,6,"Item B","Wall","Wall","R2","Related",29,31,"JOL","Related","R2",1654,"",100
"5ea32a0ea7b59a0c92e82ac8",49,6,"Item B","Ceiling","Ceiling","R2","Related",25,33,"JOL","Related","R2",2128,"",100
"5ea32a0ea7b59a0c92e82ac8",50,6,"Item B","Bathroom","Bathroom","R2","Related",27,27,"JOL","Related","R2",2790,"",100
"5ea32a0ea7b59a0c92e82ac8",54,6,"Item B","","","","",NA,0,"FreeRecall","Related","RECALL_Test3",65003,"bathroom roof ceiling door window hallway stairs attic landing ",NA
"5ea32a0ea7b59a0c92e82ac8",56,6,"Item B","Tent","Tent","U2","Unrelated",46,48,"JOL","Unrelated","U2",5091,"",100
"5ea32a0ea7b59a0c92e82ac8",57,6,"Item B","Cloud","Cloud","U2","Unrelated",40,38,"JOL","Unrelated","U2",1948,"",90
"5ea32a0ea7b59a0c92e82ac8",58,6,"Item B","Flute","Flute","U2","Unrelated",38,39,"JOL","Unrelated","U2",2282,"",60
"5ea32a0ea7b59a0c92e82ac8",59,6,"Item B","Cook","Cook","U2","Unrelated",42,49,"JOL","Unrelated","U2",2950,"",30
"5ea32a0ea7b59a0c92e82ac8",60,6,"Item B","Drill","Drill","U2","Unrelated",45,45,"JOL","Unrelated","U2",1958,"",10
"5ea32a0ea7b59a0c92e82ac8",61,6,"Item B","Mother","Mother","U2","Unrelated",44,44,"JOL","Unrelated","U2",2158,"",100
"5ea32a0ea7b59a0c92e82ac8",62,6,"Item B","Salt","Salt","U2","Unrelated",39,47,"JOL","Unrelated","U2",1745,"",10
"5ea32a0ea7b59a0c92e82ac8",63,6,"Item B","Card","Card","U2","Unrelated",37,46,"JOL","Unrelated","U2",1529,"",2
"5ea32a0ea7b59a0c92e82ac8",64,6,"Item B","Fossil","Fossil","U2","Unrelated",43,40,"JOL","Unrelated","U2",2880,"",0
"5ea32a0ea7b59a0c92e82ac8",65,6,"Item B","Phone","Phone","U2","Unrelated",47,41,"JOL","Unrelated","U2",4234,"",10
"5ea32a0ea7b59a0c92e82ac8",66,6,"Item B","Rest","Rest","U2","Unrelated",48,42,"JOL","Unrelated","U2",1935,"",19
"5ea32a0ea7b59a0c92e82ac8",67,6,"Item B","Basket","Basket","U2","Unrelated",41,43,"JOL","Unrelated","U2",1526,"",20
"5ea32a0ea7b59a0c92e82ac8",71,6,"Item B","","","","",NA,0,"FreeRecall","Unrelated","RECALL_Test4",65001,"phone mother salt cook ",NA
"5f12178ab3ab9d046595ce66",5,7,"Item C","Island","Island","R1","Related",9,7,"JOL","Unrelated","U1",5071,"",70
"5f12178ab3ab9d046595ce66",6,7,"Item C","Cave","Cave","R1","Related",11,11,"JOL","Unrelated","U1",3579,"",20
"5f12178ab3ab9d046595ce66",7,7,"Item C","Volcano","Volcano","R1","Related",4,13,"JOL","Unrelated","U1",2491,"",20
"5f12178ab3ab9d046595ce66",8,7,"Item C","Glacier","Glacier","R1","Related",12,3,"JOL","Unrelated","U1",4632,"",10
"5f12178ab3ab9d046595ce66",9,7,"Item C","Valley","Valley","R1","Related",1,12,"JOL","Unrelated","U1",3054,"",5
"5f12178ab3ab9d046595ce66",10,7,"Item C","Hill","Hill","R1","Related",6,2,"JOL","Unrelated","U1",2391,"",5
"5f12178ab3ab9d046595ce66",11,7,"Item C","Lake","Lake","R1","Related",10,5,"JOL","Unrelated","U1",2305,"",5
"5f12178ab3ab9d046595ce66",12,7,"Item C","Canyon","Canyon","R1","Related",3,8,"JOL","Unrelated","U1",3196,"",0
"5f12178ab3ab9d046595ce66",13,7,"Item C","Ocean","Ocean","R1","Related",8,6,"JOL","Unrelated","U1",2967,"",15
"5f12178ab3ab9d046595ce66",14,7,"Item C","Mountain","Mountain","R1","Related",7,10,"JOL","Unrelated","U1",2510,"",15
"5f12178ab3ab9d046595ce66",15,7,"Item C","Rock","Rock","R1","Related",5,4,"JOL","Unrelated","U1",3261,"",15
"5f12178ab3ab9d046595ce66",16,7,"Item C","River","River","R1","Related",2,9,"JOL","Unrelated","U1",2500,"",20
"5f12178ab3ab9d046595ce66",20,7,"Item C","","","","",NA,0,"FreeRecall","Unrelated","RECALL_Test1",65002,"cave, river, rock, island, volcano, canyon, ocean",NA
"5f12178ab3ab9d046595ce66",22,7,"Item C","Mayor","Mayor","U1","Unrelated",14,23,"JOL","Related","R1",5132,"",5
"5f12178ab3ab9d046595ce66",23,7,"Item C","Guitar","Guitar","U1","Unrelated",19,17,"JOL","Related","R1",2298,"",5
"5f12178ab3ab9d046595ce66",24,7,"Item C","Dollar","Dollar","U1","Unrelated",20,16,"JOL","Related","R1",3646,"",50
"5f12178ab3ab9d046595ce66",25,7,"Item C","Ballet","Ballet","U1","Unrelated",24,19,"JOL","Related","R1",2954,"",20
"5f12178ab3ab9d046595ce66",26,7,"Item C","Rifle","Rifle","U1","Unrelated",13,21,"JOL","Related","R1",3329,"",5
"5f12178ab3ab9d046595ce66",27,7,"Item C","Pants","Pants","U1","Unrelated",17,24,"JOL","Related","R1",1671,"",5
"5f12178ab3ab9d046595ce66",28,7,"Item C","Parrot","Parrot","U1","Unrelated",21,18,"JOL","Related","R1",2229,"",10
"5f12178ab3ab9d046595ce66",29,7,"Item C","Oxygen","Oxygen","U1","Unrelated",18,15,"JOL","Related","R1",3747,"",100
"5f12178ab3ab9d046595ce66",30,7,"Item C","Jeep","Jeep","U1","Unrelated",23,20,"JOL","Related","R1",3204,"",0
"5f12178ab3ab9d046595ce66",31,7,"Item C","Student","Student","U1","Unrelated",15,14,"JOL","Related","R1",2506,"",100
"5f12178ab3ab9d046595ce66",32,7,"Item C","Hockey","Hockey","U1","Unrelated",16,22,"JOL","Related","R1",2492,"",5
"5f12178ab3ab9d046595ce66",33,7,"Item C","Milk","Milk","U1","Unrelated",22,25,"JOL","Related","R1",2460,"",100
"5f12178ab3ab9d046595ce66",37,7,"Item C","","","","",NA,0,"FreeRecall","Related","RECALL_Test2",65001,"milk, rifle, dollar, mayor, students, ",NA
"5f12178ab3ab9d046595ce66",39,7,"Item C","Elephant","Elephant","R2","Related",32,28,"JOL","Unrelated","U2",2724,"",100
"5f12178ab3ab9d046595ce66",40,7,"Item C","Girraffe","Girraffe","R2","Related",31,32,"JOL","Unrelated","U2",2842,"",100
"5f12178ab3ab9d046595ce66",41,7,"Item C","Cheetah","Cheetah","R2","Related",28,36,"JOL","Unrelated","U2",2371,"",100
"5f12178ab3ab9d046595ce66",42,7,"Item C","Zebra","Zebra","R2","Related",27,33,"JOL","Unrelated","U2",2177,"",100
"5f12178ab3ab9d046595ce66",43,7,"Item C","Tiger","Tiger","R2","Related",25,31,"JOL","Unrelated","U2",2120,"",100
"5f12178ab3ab9d046595ce66",44,7,"Item C","Wolf","Wolf","R2","Related",29,34,"JOL","Unrelated","U2",2744,"",90
"5f12178ab3ab9d046595ce66",45,7,"Item C","Cow","Cow","R2","Related",36,35,"JOL","Unrelated","U2",2502,"",90
"5f12178ab3ab9d046595ce66",46,7,"Item C","Bear","Bear","R2","Related",35,29,"JOL","Unrelated","U2",3146,"",50
"5f12178ab3ab9d046595ce66",47,7,"Item C","Donkey","Donkey","R2","Related",34,26,"JOL","Unrelated","U2",2232,"",10
"5f12178ab3ab9d046595ce66",48,7,"Item C","Lion","Lion","R2","Related",26,30,"JOL","Unrelated","U2",2688,"",100
"5f12178ab3ab9d046595ce66",49,7,"Item C","Goat","Goat","R2","Related",30,37,"JOL","Unrelated","U2",2466,"",5
"5f12178ab3ab9d046595ce66",50,7,"Item C","Cat","Cat","R2","Related",33,27,"JOL","Unrelated","U2",2259,"",100
"5f12178ab3ab9d046595ce66",54,7,"Item C","","","","",NA,0,"FreeRecall","Unrelated","RECALL_Test3",65001,"elephant, giraffe, cat, lion, tiger, cheetah, goat, cow, ",NA
"5f12178ab3ab9d046595ce66",56,7,"Item C","Lipstick","Lipstick","U2","Unrelated",46,40,"JOL","Related","R2",2750,"",100
"5f12178ab3ab9d046595ce66",57,7,"Item C","Viper","Viper","U2","Unrelated",44,47,"JOL","Related","R2",3718,"",10
"5f12178ab3ab9d046595ce66",58,7,"Item C","Cold","Cold","U2","Unrelated",40,39,"JOL","Related","R2",2110,"",100
"5f12178ab3ab9d046595ce66",59,7,"Item C","Fly","Fly","U2","Unrelated",38,46,"JOL","Related","R2",2246,"",100
"5f12178ab3ab9d046595ce66",60,7,"Item C","Computer","Computer","U2","Unrelated",47,49,"JOL","Related","R2",2043,"",100
"5f12178ab3ab9d046595ce66",61,7,"Item C","Sandal","Sandal","U2","Unrelated",37,43,"JOL","Related","R2",2284,"",0
"5f12178ab3ab9d046595ce66",62,7,"Item C","Blue","Blue","U2","Unrelated",41,41,"JOL","Related","R2",1877,"",100
"5f12178ab3ab9d046595ce66",63,7,"Item C","Shark","Shark","U2","Unrelated",43,38,"JOL","Related","R2",2105,"",100
"5f12178ab3ab9d046595ce66",64,7,"Item C","Cruise","Cruise","U2","Unrelated",42,45,"JOL","Related","R2",2129,"",100
"5f12178ab3ab9d046595ce66",65,7,"Item C","Tea","Tea","U2","Unrelated",45,42,"JOL","Related","R2",2986,"",100
"5f12178ab3ab9d046595ce66",66,7,"Item C","Tulip","Tulip","U2","Unrelated",39,44,"JOL","Related","R2",6035,"",0
"5f12178ab3ab9d046595ce66",67,7,"Item C","Eye","Eye","U2","Unrelated",48,48,"JOL","Related","R2",2792,"",0
"5f12178ab3ab9d046595ce66",71,7,"Item C","","","","",NA,0,"FreeRecall","Related","RECALL_Test4",65002,"eye, viper, shark, blue, ocean, ",NA
"5f24978b3b9626088ac0eeb7",5,7,"Item C","Ocean","Ocean","R1","Related",8,2,"JOL","Unrelated","U1",25240,"",80
"5f24978b3b9626088ac0eeb7",6,7,"Item C","Volcano","Volcano","R1","Related",4,3,"JOL","Unrelated","U1",6838,"",20
"5f24978b3b9626088ac0eeb7",7,7,"Item C","Island","Island","R1","Related",9,4,"JOL","Unrelated","U1",8141,"",77
"5f24978b3b9626088ac0eeb7",8,7,"Item C","River","River","R1","Related",2,5,"JOL","Unrelated","U1",8781,"",60
"5f24978b3b9626088ac0eeb7",9,7,"Item C","Hill","Hill","R1","Related",6,12,"JOL","Unrelated","U1",7437,"",100
"5f24978b3b9626088ac0eeb7",10,7,"Item C","Rock","Rock","R1","Related",5,11,"JOL","Unrelated","U1",7912,"",60
"5f24978b3b9626088ac0eeb7",11,7,"Item C","Mountain","Mountain","R1","Related",7,8,"JOL","Unrelated","U1",12812,"",90
"5f24978b3b9626088ac0eeb7",12,7,"Item C","Valley","Valley","R1","Related",1,10,"JOL","Unrelated","U1",4409,"",10
"5f24978b3b9626088ac0eeb7",13,7,"Item C","Glacier","Glacier","R1","Related",12,13,"JOL","Unrelated","U1",10493,"",5
"5f24978b3b9626088ac0eeb7",14,7,"Item C","Lake","Lake","R1","Related",10,7,"JOL","Unrelated","U1",3789,"",89
"5f24978b3b9626088ac0eeb7",15,7,"Item C","Canyon","Canyon","R1","Related",3,6,"JOL","Unrelated","U1",7626,"",30
"5f24978b3b9626088ac0eeb7",16,7,"Item C","Cave","Cave","R1","Related",11,9,"JOL","Unrelated","U1",6020,"",20
"5f24978b3b9626088ac0eeb7",20,7,"Item C","","","","",NA,0,"FreeRecall","Unrelated","RECALL_Test1",65001,"ocean cave river hill sea lake valley mountain volcano ice island beach sand ",NA
"5f24978b3b9626088ac0eeb7",22,7,"Item C","Mayor","Mayor","U1","Unrelated",14,25,"JOL","Related","R1",7135,"",20
"5f24978b3b9626088ac0eeb7",23,7,"Item C","Guitar","Guitar","U1","Unrelated",19,20,"JOL","Related","R1",8781,"",66
"5f24978b3b9626088ac0eeb7",24,7,"Item C","Jeep","Jeep","U1","Unrelated",23,23,"JOL","Related","R1",5488,"",99
"5f24978b3b9626088ac0eeb7",25,7,"Item C","Rifle","Rifle","U1","Unrelated",13,14,"JOL","Related","R1",9926,"",10
"5f24978b3b9626088ac0eeb7",26,7,"Item C","Milk","Milk","U1","Unrelated",22,15,"JOL","Related","R1",7381,"",80
"5f24978b3b9626088ac0eeb7",27,7,"Item C","Student","Student","U1","Unrelated",15,24,"JOL","Related","R1",7584,"",40
"5f24978b3b9626088ac0eeb7",28,7,"Item C","Parrot","Parrot","U1","Unrelated",21,19,"JOL","Related","R1",4188,"",97
"5f24978b3b9626088ac0eeb7",29,7,"Item C","Dollar","Dollar","U1","Unrelated",20,18,"JOL","Related","R1",7817,"",35
"5f24978b3b9626088ac0eeb7",30,7,"Item C","Pants","Pants","U1","Unrelated",17,22,"JOL","Related","R1",8062,"",88
"5f24978b3b9626088ac0eeb7",31,7,"Item C","Hockey","Hockey","U1","Unrelated",16,21,"JOL","Related","R1",10424,"",44
"5f24978b3b9626088ac0eeb7",32,7,"Item C","Ballet","Ballet","U1","Unrelated",24,17,"JOL","Related","R1",9237,"",70
"5f24978b3b9626088ac0eeb7",33,7,"Item C","Oxygen","Oxygen","U1","Unrelated",18,16,"JOL","Related","R1",13646,"",88
"5f24978b3b9626088ac0eeb7",37,7,"Item C","","","","",NA,0,"FreeRecall","Related","RECALL_Test2",65002,"Parrot pants oxygen keep milk dollar ballet guitar home island volcano ",NA
"5f24978b3b9626088ac0eeb7",39,7,"Item C","Cat","Cat","R2","Related",33,35,"JOL","Unrelated","U2",5169,"",100
"5f24978b3b9626088ac0eeb7",40,7,"Item C","Lion","Lion","R2","Related",26,37,"JOL","Unrelated","U2",5924,"",98
"5f24978b3b9626088ac0eeb7",41,7,"Item C","Wolf","Wolf","R2","Related",29,30,"JOL","Unrelated","U2",9465,"",70
"5f24978b3b9626088ac0eeb7",42,7,"Item C","Zebra","Zebra","R2","Related",27,36,"JOL","Unrelated","U2",7111,"",66
"5f24978b3b9626088ac0eeb7",43,7,"Item C","Cow","Cow","R2","Related",36,27,"JOL","Unrelated","U2",6448,"",95
"5f24978b3b9626088ac0eeb7",44,7,"Item C","Goat","Goat","R2","Related",30,33,"JOL","Unrelated","U2",8469,"",25
"5f24978b3b9626088ac0eeb7",45,7,"Item C","Bear","Bear","R2","Related",35,28,"JOL","Unrelated","U2",10090,"",88
"5f24978b3b9626088ac0eeb7",46,7,"Item C","Elephant","Elephant","R2","Related",32,31,"JOL","Unrelated","U2",7617,"",100
"5f24978b3b9626088ac0eeb7",47,7,"Item C","Cheetah","Cheetah","R2","Related",28,34,"JOL","Unrelated","U2",8599,"",40
"5f24978b3b9626088ac0eeb7",48,7,"Item C","Girraffe","Girraffe","R2","Related",31,29,"JOL","Unrelated","U2",8716,"",15
"5f24978b3b9626088ac0eeb7",49,7,"Item C","Tiger","Tiger","R2","Related",25,26,"JOL","Unrelated","U2",12021,"",80
"5f24978b3b9626088ac0eeb7",50,7,"Item C","Donkey","Donkey","R2","Related",34,32,"JOL","Unrelated","U2",7930,"",50
"5f24978b3b9626088ac0eeb7",54,7,"Item C","","","","",NA,0,"FreeRecall","Unrelated","RECALL_Test3",65001,"elephant cat lion zebra cow bear tiger parrot wolf fox pig goat donkey hamster horse rabbit",NA
"5f24978b3b9626088ac0eeb7",56,7,"Item C","Blue","Blue","U2","Unrelated",41,41,"JOL","Related","R2",6161,"",95
"5f24978b3b9626088ac0eeb7",57,7,"Item C","Cold","Cold","U2","Unrelated",40,49,"JOL","Related","R2",6254,"",88
"5f24978b3b9626088ac0eeb7",58,7,"Item C","Computer","Computer","U2","Unrelated",47,47,"JOL","Related","R2",6266,"",20
"5f24978b3b9626088ac0eeb7",59,7,"Item C","Lipstick","Lipstick","U2","Unrelated",46,38,"JOL","Related","R2",4107,"",60
"5f24978b3b9626088ac0eeb7",60,7,"Item C","Fly","Fly","U2","Unrelated",38,45,"JOL","Related","R2",7813,"",90
"5f24978b3b9626088ac0eeb7",61,7,"Item C","Cruise","Cruise","U2","Unrelated",42,43,"JOL","Related","R2",8312,"",22
"5f24978b3b9626088ac0eeb7",62,7,"Item C","Tea","Tea","U2","Unrelated",45,44,"JOL","Related","R2",4007,"",80
"5f24978b3b9626088ac0eeb7",63,7,"Item C","Shark","Shark","U2","Unrelated",43,46,"JOL","Related","R2",6993,"",90
"5f24978b3b9626088ac0eeb7",64,7,"Item C","Tulip","Tulip","U2","Unrelated",39,40,"JOL","Related","R2",6052,"",85
"5f24978b3b9626088ac0eeb7",65,7,"Item C","Sandal","Sandal","U2","Unrelated",37,39,"JOL","Related","R2",6044,"",10
"5f24978b3b9626088ac0eeb7",66,7,"Item C","Eye","Eye","U2","Unrelated",48,48,"JOL","Related","R2",5347,"",77
"5f24978b3b9626088ac0eeb7",67,7,"Item C","Viper","Viper","U2","Unrelated",44,42,"JOL","Related","R2",7833,"",50
"5f24978b3b9626088ac0eeb7",71,7,"Item C","","","","",NA,0,"FreeRecall","Related","RECALL_Test4",65003,"blue cold shark tea eye fly lipstick whale snake viper tulip flower rose light boat",NA
"5f24a57c030da70af5ffd2bf",5,7,"Item C","Cave","Cave","R1","Related",11,12,"JOL","Unrelated","U1",9507,"",70
"5f24a57c030da70af5ffd2bf",6,7,"Item C","Hill","Hill","R1","Related",6,11,"JOL","Unrelated","U1",3934,"",70
"5f24a57c030da70af5ffd2bf",7,7,"Item C","Ocean","Ocean","R1","Related",8,9,"JOL","Unrelated","U1",3534,"",70
"5f24a57c030da70af5ffd2bf",8,7,"Item C","Mountain","Mountain","R1","Related",7,13,"JOL","Unrelated","U1",4231,"",70
"5f24a57c030da70af5ffd2bf",9,7,"Item C","Valley","Valley","R1","Related",1,5,"JOL","Unrelated","U1",7587,"",60
"5f24a57c030da70af5ffd2bf",10,7,"Item C","River","River","R1","Related",2,7,"JOL","Unrelated","U1",3860,"",70
"5f24a57c030da70af5ffd2bf",11,7,"Item C","Canyon","Canyon","R1","Related",3,6,"JOL","Unrelated","U1",3418,"",60
"5f24a57c030da70af5ffd2bf",12,7,"Item C","Volcano","Volcano","R1","Related",4,10,"JOL","Unrelated","U1",2872,"",70
"5f24a57c030da70af5ffd2bf",13,7,"Item C","Lake","Lake","R1","Related",10,8,"JOL","Unrelated","U1",3018,"",70
"5f24a57c030da70af5ffd2bf",14,7,"Item C","Rock","Rock","R1","Related",5,4,"JOL","Unrelated","U1",2594,"",70
"5f24a57c030da70af5ffd2bf",15,7,"Item C","Glacier","Glacier","R1","Related",12,3,"JOL","Unrelated","U1",5072,"",65
"5f24a57c030da70af5ffd2bf",16,7,"Item C","Island","Island","R1","Related",9,2,"JOL","Unrelated","U1",2215,"",70
"5f24a57c030da70af5ffd2bf",20,7,"Item C","","","","",NA,0,"FreeRecall","Unrelated","RECALL_Test1",65003,"cave valley mountain river rock island glacier lake ocean hill volcano ",NA
"5f24a57c030da70af5ffd2bf",22,7,"Item C","Mayor","Mayor","U1","Unrelated",14,16,"JOL","Related","R1",3755,"",70
"5f24a57c030da70af5ffd2bf",23,7,"Item C","Rifle","Rifle","U1","Unrelated",13,20,"JOL","Related","R1",2561,"",70
"5f24a57c030da70af5ffd2bf",24,7,"Item C","Student","Student","U1","Unrelated",15,15,"JOL","Related","R1",2325,"",70
"5f24a57c030da70af5ffd2bf",25,7,"Item C","Guitar","Guitar","U1","Unrelated",19,21,"JOL","Related","R1",2530,"",70
"5f24a57c030da70af5ffd2bf",26,7,"Item C","Hockey","Hockey","U1","Unrelated",16,17,"JOL","Related","R1",3419,"",60
"5f24a57c030da70af5ffd2bf",27,7,"Item C","Ballet","Ballet","U1","Unrelated",24,23,"JOL","Related","R1",2236,"",60
"5f24a57c030da70af5ffd2bf",28,7,"Item C","Jeep","Jeep","U1","Unrelated",23,24,"JOL","Related","R1",2487,"",60
"5f24a57c030da70af5ffd2bf",29,7,"Item C","Pants","Pants","U1","Unrelated",17,25,"JOL","Related","R1",2298,"",60
"5f24a57c030da70af5ffd2bf",30,7,"Item C","Oxygen","Oxygen","U1","Unrelated",18,18,"JOL","Related","R1",3386,"",70
"5f24a57c030da70af5ffd2bf",31,7,"Item C","Milk","Milk","U1","Unrelated",22,19,"JOL","Related","R1",3095,"",50
"5f24a57c030da70af5ffd2bf",32,7,"Item C","Parrot","Parrot","U1","Unrelated",21,22,"JOL","Related","R1",2017,"",50
"5f24a57c030da70af5ffd2bf",33,7,"Item C","Dollar","Dollar","U1","Unrelated",20,14,"JOL","Related","R1",7290,"",50
"5f24a57c030da70af5ffd2bf",37,7,"Item C","","","","",NA,0,"FreeRecall","Related","RECALL_Test2",65001,"mayor rifle student guitar ballet milk parrot dollar ",NA
"5f24a57c030da70af5ffd2bf",39,7,"Item C","Bear","Bear","R2","Related",35,35,"JOL","Unrelated","U2",4790,"",70
"5f24a57c030da70af5ffd2bf",40,7,"Item C","Cat","Cat","R2","Related",33,29,"JOL","Unrelated","U2",4295,"",80
"5f24a57c030da70af5ffd2bf",41,7,"Item C","Lion","Lion","R2","Related",26,32,"JOL","Unrelated","U2",2754,"",80
"5f24a57c030da70af5ffd2bf",42,7,"Item C","Girraffe","Girraffe","R2","Related",31,31,"JOL","Unrelated","U2",2616,"",80
"5f24a57c030da70af5ffd2bf",43,7,"Item C","Donkey","Donkey","R2","Related",34,37,"JOL","Unrelated","U2",4716,"",70
"5f24a57c030da70af5ffd2bf",44,7,"Item C","Cow","Cow","R2","Related",36,28,"JOL","Unrelated","U2",2605,"",60
"5f24a57c030da70af5ffd2bf",45,7,"Item C","Goat","Goat","R2","Related",30,36,"JOL","Unrelated","U2",2624,"",60
"5f24a57c030da70af5ffd2bf",46,7,"Item C","Wolf","Wolf","R2","Related",29,26,"JOL","Unrelated","U2",2226,"",60
"5f24a57c030da70af5ffd2bf",47,7,"Item C","Elephant","Elephant","R2","Related",32,27,"JOL","Unrelated","U2",2134,"",60
"5f24a57c030da70af5ffd2bf",48,7,"Item C","Cheetah","Cheetah","R2","Related",28,34,"JOL","Unrelated","U2",4044,"",50
"5f24a57c030da70af5ffd2bf",49,7,"Item C","Zebra","Zebra","R2","Related",27,33,"JOL","Unrelated","U2",3389,"",60
"5f24a57c030da70af5ffd2bf",50,7,"Item C","Tiger","Tiger","R2","Related",25,30,"JOL","Unrelated","U2",2455,"",60
"5f24a57c030da70af5ffd2bf",54,7,"Item C","","","","",NA,0,"FreeRecall","Unrelated","RECALL_Test3",65001,"cow giraffe lion bear goat donkey cheetah zebra wolf cow cat ",NA
"5f24a57c030da70af5ffd2bf",56,7,"Item C","Shark","Shark","U2","Unrelated",43,45,"JOL","Related","R2",4676,"",60
"5f24a57c030da70af5ffd2bf",57,7,"Item C","Lipstick","Lipstick","U2","Unrelated",46,48,"JOL","Related","R2",2387,"",60
"5f24a57c030da70af5ffd2bf",58,7,"Item C","Sandal","Sandal","U2","Unrelated",37,42,"JOL","Related","R2",4127,"",60
"5f24a57c030da70af5ffd2bf",59,7,"Item C","Tulip","Tulip","U2","Unrelated",39,44,"JOL","Related","R2",2408,"",60
"5f24a57c030da70af5ffd2bf",60,7,"Item C","Eye","Eye","U2","Unrelated",48,41,"JOL","Related","R2",3543,"",50
"5f24a57c030da70af5ffd2bf",61,7,"Item C","Computer","Computer","U2","Unrelated",47,49,"JOL","Related","R2",2053,"",50
"5f24a57c030da70af5ffd2bf",62,7,"Item C","Viper","Viper","U2","Unrelated",44,46,"JOL","Related","R2",1926,"",50
"5f24a57c030da70af5ffd2bf",63,7,"Item C","Fly","Fly","U2","Unrelated",38,39,"JOL","Related","R2",1929,"",50
"5f24a57c030da70af5ffd2bf",64,7,"Item C","Cold","Cold","U2","Unrelated",40,47,"JOL","Related","R2",5553,"",50
"5f24a57c030da70af5ffd2bf",65,7,"Item C","Cruise","Cruise","U2","Unrelated",42,43,"JOL","Related","R2",2702,"",40
"5f24a57c030da70af5ffd2bf",66,7,"Item C","Tea","Tea","U2","Unrelated",45,38,"JOL","Related","R2",4674,"",40
"5f24a57c030da70af5ffd2bf",67,7,"Item C","Blue","Blue","U2","Unrelated",41,40,"JOL","Related","R2",2823,"",50
"5f24a57c030da70af5ffd2bf",71,7,"Item C","","","","",NA,0,"FreeRecall","Related","RECALL_Test4",65001,"shark lipstick sandal viper computer blue fly ",NA
"5fb2e72ac95e4c9ab7a082da",5,8,"Item D","Plum","Plum","R1","Related",9,2,"JOL","Unrelated","U1",3781,"",60
"5fb2e72ac95e4c9ab7a082da",6,8,"Item D","Grape","Grape","R1","Related",4,4,"JOL","Unrelated","U1",2725,"",80
"5fb2e72ac95e4c9ab7a082da",7,8,"Item D","Peach","Peach","R1","Related",6,9,"JOL","Unrelated","U1",4637,"",90
"5fb2e72ac95e4c9ab7a082da",8,8,"Item D","Apple","Apple","R1","Related",1,12,"JOL","Unrelated","U1",2057,"",90
"5fb2e72ac95e4c9ab7a082da",9,8,"Item D","Kiwi","Kiwi","R1","Related",8,10,"JOL","Unrelated","U1",1579,"",70
"5fb2e72ac95e4c9ab7a082da",10,8,"Item D","Pear","Pear","R1","Related",5,3,"JOL","Unrelated","U1",1109,"",40
"5fb2e72ac95e4c9ab7a082da",11,8,"Item D","Mango","Mango","R1","Related",10,11,"JOL","Unrelated","U1",1406,"",70
"5fb2e72ac95e4c9ab7a082da",12,8,"Item D","Lemon","Lemon","R1","Related",12,6,"JOL","Unrelated","U1",2152,"",80
"5fb2e72ac95e4c9ab7a082da",13,8,"Item D","Strawberry","Strawberry","R1","Related",7,5,"JOL","Unrelated","U1",1506,"",60
"5fb2e72ac95e4c9ab7a082da",14,8,"Item D","Cherry","Cherry","R1","Related",11,13,"JOL","Unrelated","U1",1167,"",70
"5fb2e72ac95e4c9ab7a082da",15,8,"Item D","Orange","Orange","R1","Related",2,7,"JOL","Unrelated","U1",1156,"",80
"5fb2e72ac95e4c9ab7a082da",16,8,"Item D","Banana","Banana","R1","Related",3,8,"JOL","Unrelated","U1",2485,"",100
"5fb2e72ac95e4c9ab7a082da",20,8,"Item D","","","","",NA,0,"FreeRecall","Unrelated","RECALL_Test1",65002,"apple, orange, lemon, cherry, strawberry, kiwi, mango, banana, pear, plum",NA
"5fb2e72ac95e4c9ab7a082da",22,8,"Item D","Yellow","Yellow","U1","Unrelated",19,16,"JOL","Related","R1",2450,"",70
"5fb2e72ac95e4c9ab7a082da",23,8,"Item D","Document","Document","U1","Unrelated",15,20,"JOL","Related","R1",1995,"",60
"5fb2e72ac95e4c9ab7a082da",24,8,"Item D","Dirt","Dirt","U1","Unrelated",16,15,"JOL","Related","R1",2181,"",50
"5fb2e72ac95e4c9ab7a082da",25,8,"Item D","Slow","Slow","U1","Unrelated",23,25,"JOL","Related","R1",1566,"",80
"5fb2e72ac95e4c9ab7a082da",26,8,"Item D","Mint","Mint","U1","Unrelated",17,22,"JOL","Related","R1",2146,"",50
"5fb2e72ac95e4c9ab7a082da",27,8,"Item D","Hawk","Hawk","U1","Unrelated",24,21,"JOL","Related","R1",1432,"",40
"5fb2e72ac95e4c9ab7a082da",28,8,"Item D","Flea","Flea","U1","Unrelated",21,24,"JOL","Related","R1",1808,"",20
"5fb2e72ac95e4c9ab7a082da",29,8,"Item D","Bean","Bean","U1","Unrelated",22,19,"JOL","Related","R1",1900,"",90
"5fb2e72ac95e4c9ab7a082da",30,8,"Item D","Frog","Frog","U1","Unrelated",13,17,"JOL","Related","R1",1477,"",80
"5fb2e72ac95e4c9ab7a082da",31,8,"Item D","Kayak","Kayak","U1","Unrelated",20,23,"JOL","Related","R1",1504,"",50
"5fb2e72ac95e4c9ab7a082da",32,8,"Item D","Bed","Bed","U1","Unrelated",14,18,"JOL","Related","R1",1903,"",80
"5fb2e72ac95e4c9ab7a082da",33,8,"Item D","Shirt","Shirt","U1","Unrelated",18,14,"JOL","Related","R1",1728,"",60
"5fb2e72ac95e4c9ab7a082da",37,8,"Item D","","","","",NA,0,"FreeRecall","Related","RECALL_Test2",65001,"document, flea, bean, yellow, ",NA
