"Username","Trial","Condition.Number","Condition.Description","Stimuli.Cue","Stimuli.Answer","Stimuli.Shuffle","Stimuli.Stimuli.Notes","Stimuli.Value","Procedure.Item","Procedure.Trial.Type","Procedure.Procedure.Notes","Procedure.Shuffle","Response.RT","Response.Response"
"5791dae225cb71000128ad5b",3,11,"Read C","Valley","Valley","R1","Related",1,12,"Study","Unrelated","U1",2698,""
"5791dae225cb71000128ad5b",4,11,"Read C","Mountain","Mountain","R1","Related",7,10,"Study","Unrelated","U1",1254,""
"5791dae225cb71000128ad5b",5,11,"Read C","Hill","Hill","R1","Related",6,5,"Study","Unrelated","U1",2779,""
"5791dae225cb71000128ad5b",6,11,"Read C","Ocean","Ocean","R1","Related",8,9,"Study","Unrelated","U1",3115,""
"5791dae225cb71000128ad5b",7,11,"Read C","Island","Island","R1","Related",9,11,"Study","Unrelated","U1",1713,""
"5791dae225cb71000128ad5b",8,11,"Read C","Rock","Rock","R1","Related",5,7,"Study","Unrelated","U1",1954,""
"5791dae225cb71000128ad5b",9,11,"Read C","Lake","Lake","R1","Related",10,2,"Study","Unrelated","U1",1549,""
"5791dae225cb71000128ad5b",10,11,"Read C","Glacier","Glacier","R1","Related",12,3,"Study","Unrelated","U1",1595,""
"5791dae225cb71000128ad5b",11,11,"Read C","River","River","R1","Related",2,6,"Study","Unrelated","U1",1777,""
"5791dae225cb71000128ad5b",12,11,"Read C","Volcano","Volcano","R1","Related",4,8,"Study","Unrelated","U1",1788,""
"5791dae225cb71000128ad5b",13,11,"Read C","Canyon","Canyon","R1","Related",3,13,"Study","Unrelated","U1",2070,""
"5791dae225cb71000128ad5b",14,11,"Read C","Cave","Cave","R1","Related",11,4,"Study","Unrelated","U1",1761,""
"5791dae225cb71000128ad5b",18,11,"Read C","","","","",NA,0,"FreeRecall","Unrelated","RECALL_Test1",65009,"canyon, lake, river, mountin, volcano, road, hill, iceberg, rive"
"5791dae225cb71000128ad5b",20,11,"Read C","Hockey","Hockey","U1","Unrelated",16,23,"Study","Related","R1",1436,""
"5791dae225cb71000128ad5b",21,11,"Read C","Milk","Milk","U1","Unrelated",22,21,"Study","Related","R1",1479,""
"5791dae225cb71000128ad5b",22,11,"Read C","Guitar","Guitar","U1","Unrelated",19,20,"Study","Related","R1",1057,""
"5791dae225cb71000128ad5b",23,11,"Read C","Mayor","Mayor","U1","Unrelated",14,25,"Study","Related","R1",1254,""
"5791dae225cb71000128ad5b",24,11,"Read C","Jeep","Jeep","U1","Unrelated",23,17,"Study","Related","R1",1415,""
"5791dae225cb71000128ad5b",25,11,"Read C","Student","Student","U1","Unrelated",15,15,"Study","Related","R1",1308,""
"5791dae225cb71000128ad5b",26,11,"Read C","Rifle","Rifle","U1","Unrelated",13,14,"Study","Related","R1",1324,""
"5791dae225cb71000128ad5b",27,11,"Read C","Pants","Pants","U1","Unrelated",17,18,"Study","Related","R1",1476,""
"5791dae225cb71000128ad5b",28,11,"Read C","Oxygen","Oxygen","U1","Unrelated",18,24,"Study","Related","R1",1190,""
"5791dae225cb71000128ad5b",29,11,"Read C","Dollar","Dollar","U1","Unrelated",20,19,"Study","Related","R1",1296,""
"5791dae225cb71000128ad5b",30,11,"Read C","Parrot","Parrot","U1","Unrelated",21,22,"Study","Related","R1",1222,""
"5791dae225cb71000128ad5b",31,11,"Read C","Ballet","Ballet","U1","Unrelated",24,16,"Study","Related","R1",1195,""
"5791dae225cb71000128ad5b",35,11,"Read C","","","","",NA,0,"FreeRecall","Related","RECALL_Test2",65001,"guitar, pants, parrot, ballet, hockey, "
"5791dae225cb71000128ad5b",37,11,"Read C","Cat","Cat","R2","Related",33,29,"Study","Unrelated","U2",1317,""
"5791dae225cb71000128ad5b",38,11,"Read C","Wolf","Wolf","R2","Related",29,27,"Study","Unrelated","U2",1263,""
"5791dae225cb71000128ad5b",39,11,"Read C","Donkey","Donkey","R2","Related",34,32,"Study","Unrelated","U2",1230,""
"5791dae225cb71000128ad5b",40,11,"Read C","Cheetah","Cheetah","R2","Related",28,30,"Study","Unrelated","U2",1109,""
"5791dae225cb71000128ad5b",41,11,"Read C","Goat","Goat","R2","Related",30,26,"Study","Unrelated","U2",1034,""
"5791dae225cb71000128ad5b",42,11,"Read C","Zebra","Zebra","R2","Related",27,34,"Study","Unrelated","U2",1241,""
"5791dae225cb71000128ad5b",43,11,"Read C","Tiger","Tiger","R2","Related",25,37,"Study","Unrelated","U2",1178,""
"5791dae225cb71000128ad5b",44,11,"Read C","Elephant","Elephant","R2","Related",32,33,"Study","Unrelated","U2",1005,""
"5791dae225cb71000128ad5b",45,11,"Read C","Girraffe","Girraffe","R2","Related",31,28,"Study","Unrelated","U2",1422,""
"5791dae225cb71000128ad5b",46,11,"Read C","Bear","Bear","R2","Related",35,36,"Study","Unrelated","U2",1396,""
"5791dae225cb71000128ad5b",47,11,"Read C","Cow","Cow","R2","Related",36,35,"Study","Unrelated","U2",1034,""
"5791dae225cb71000128ad5b",48,11,"Read C","Lion","Lion","R2","Related",26,31,"Study","Unrelated","U2",1051,""
"5791dae225cb71000128ad5b",52,11,"Read C","","","","",NA,0,"FreeRecall","Unrelated","RECALL_Test3",65003,"cat, wolf, cow, donkey, giraffe, elephant, goat, cheetah, lion, "
"5791dae225cb71000128ad5b",54,11,"Read C","Shark","Shark","U2","Unrelated",43,49,"Study","Related","R2",1154,""
"5791dae225cb71000128ad5b",55,11,"Read C","Viper","Viper","U2","Unrelated",44,48,"Study","Related","R2",1118,""
"5791dae225cb71000128ad5b",56,11,"Read C","Lipstick","Lipstick","U2","Unrelated",46,39,"Study","Related","R2",1861,""
"5791dae225cb71000128ad5b",57,11,"Read C","Blue","Blue","U2","Unrelated",41,42,"Study","Related","R2",1429,""
"5791dae225cb71000128ad5b",58,11,"Read C","Fly","Fly","U2","Unrelated",38,38,"Study","Related","R2",1476,""
"5791dae225cb71000128ad5b",59,11,"Read C","Cruise","Cruise","U2","Unrelated",42,44,"Study","Related","R2",1472,""
"5791dae225cb71000128ad5b",60,11,"Read C","Sandal","Sandal","U2","Unrelated",37,46,"Study","Related","R2",1516,""
"5791dae225cb71000128ad5b",61,11,"Read C","Cold","Cold","U2","Unrelated",40,43,"Study","Related","R2",1116,""
"5791dae225cb71000128ad5b",62,11,"Read C","Computer","Computer","U2","Unrelated",47,40,"Study","Related","R2",1392,""
"5791dae225cb71000128ad5b",63,11,"Read C","Eye","Eye","U2","Unrelated",48,47,"Study","Related","R2",1388,""
"5791dae225cb71000128ad5b",64,11,"Read C","Tea","Tea","U2","Unrelated",45,41,"Study","Related","R2",1408,""
"5791dae225cb71000128ad5b",65,11,"Read C","Tulip","Tulip","U2","Unrelated",39,45,"Study","Related","R2",1505,""
"5791dae225cb71000128ad5b",69,11,"Read C","","","","",NA,0,"FreeRecall","Related","RECALL_Test4",65003,"shark, viper, car, tulip, "
"597519f8262c480001bbaf8b",3,11,"Read C","River","River","R1","Related",2,13,"Study","Unrelated","U1",9155,""
"597519f8262c480001bbaf8b",4,11,"Read C","Mountain","Mountain","R1","Related",7,5,"Study","Unrelated","U1",9080,""
"597519f8262c480001bbaf8b",5,11,"Read C","Lake","Lake","R1","Related",10,8,"Study","Unrelated","U1",9762,""
"597519f8262c480001bbaf8b",6,11,"Read C","Glacier","Glacier","R1","Related",12,6,"Study","Unrelated","U1",9761,""
"597519f8262c480001bbaf8b",7,11,"Read C","Island","Island","R1","Related",9,3,"Study","Unrelated","U1",9763,""
"597519f8262c480001bbaf8b",8,11,"Read C","Canyon","Canyon","R1","Related",3,7,"Study","Unrelated","U1",10928,""
"597519f8262c480001bbaf8b",9,11,"Read C","Rock","Rock","R1","Related",5,12,"Study","Unrelated","U1",9848,""
"597519f8262c480001bbaf8b",10,11,"Read C","Volcano","Volcano","R1","Related",4,2,"Study","Unrelated","U1",9154,""
"597519f8262c480001bbaf8b",11,11,"Read C","Ocean","Ocean","R1","Related",8,11,"Study","Unrelated","U1",9058,""
"597519f8262c480001bbaf8b",12,11,"Read C","Hill","Hill","R1","Related",6,10,"Study","Unrelated","U1",8047,""
"597519f8262c480001bbaf8b",13,11,"Read C","Cave","Cave","R1","Related",11,9,"Study","Unrelated","U1",9623,""
"597519f8262c480001bbaf8b",14,11,"Read C","Valley","Valley","R1","Related",1,4,"Study","Unrelated","U1",9249,""
"597519f8262c480001bbaf8b",18,11,"Read C","","","","",NA,0,"FreeRecall","Unrelated","RECALL_Test1",65013,"Valley, Lake, Canyon Mountain River Volcano Island"
"597519f8262c480001bbaf8b",20,11,"Read C","Mayor","Mayor","U1","Unrelated",14,23,"Study","Related","R1",11539,""
"597519f8262c480001bbaf8b",21,11,"Read C","Parrot","Parrot","U1","Unrelated",21,25,"Study","Related","R1",10312,""
"597519f8262c480001bbaf8b",22,11,"Read C","Guitar","Guitar","U1","Unrelated",19,16,"Study","Related","R1",11870,""
"597519f8262c480001bbaf8b",23,11,"Read C","Student","Student","U1","Unrelated",15,15,"Study","Related","R1",9828,""
"597519f8262c480001bbaf8b",24,11,"Read C","Hockey","Hockey","U1","Unrelated",16,22,"Study","Related","R1",9218,""
"597519f8262c480001bbaf8b",25,11,"Read C","Oxygen","Oxygen","U1","Unrelated",18,17,"Study","Related","R1",10449,""
"597519f8262c480001bbaf8b",26,11,"Read C","Rifle","Rifle","U1","Unrelated",13,14,"Study","Related","R1",8556,""
"597519f8262c480001bbaf8b",27,11,"Read C","Jeep","Jeep","U1","Unrelated",23,19,"Study","Related","R1",7821,""
"597519f8262c480001bbaf8b",28,11,"Read C","Milk","Milk","U1","Unrelated",22,20,"Study","Related","R1",8033,""
"597519f8262c480001bbaf8b",29,11,"Read C","Pants","Pants","U1","Unrelated",17,18,"Study","Related","R1",8272,""
"597519f8262c480001bbaf8b",30,11,"Read C","Dollar","Dollar","U1","Unrelated",20,24,"Study","Related","R1",9188,""
"597519f8262c480001bbaf8b",31,11,"Read C","Ballet","Ballet","U1","Unrelated",24,21,"Study","Related","R1",9447,""
"597519f8262c480001bbaf8b",35,11,"Read C","","","","",NA,0,"FreeRecall","Related","RECALL_Test2",65007,"Pants Dollar Ballet Mayor Guitar Student Oxygen Jeep"
"597519f8262c480001bbaf8b",37,11,"Read C","Elephant","Elephant","R2","Related",32,29,"Study","Unrelated","U2",11918,""
"597519f8262c480001bbaf8b",38,11,"Read C","Cat","Cat","R2","Related",33,36,"Study","Unrelated","U2",8149,""
"597519f8262c480001bbaf8b",39,11,"Read C","Wolf","Wolf","R2","Related",29,27,"Study","Unrelated","U2",9196,""
"597519f8262c480001bbaf8b",40,11,"Read C","Zebra","Zebra","R2","Related",27,30,"Study","Unrelated","U2",9164,""
"597519f8262c480001bbaf8b",41,11,"Read C","Girraffe","Girraffe","R2","Related",31,34,"Study","Unrelated","U2",9747,""
"597519f8262c480001bbaf8b",42,11,"Read C","Bear","Bear","R2","Related",35,28,"Study","Unrelated","U2",8658,""
"597519f8262c480001bbaf8b",43,11,"Read C","Cow","Cow","R2","Related",36,37,"Study","Unrelated","U2",8233,""
"597519f8262c480001bbaf8b",44,11,"Read C","Goat","Goat","R2","Related",30,31,"Study","Unrelated","U2",9155,""
"597519f8262c480001bbaf8b",45,11,"Read C","Lion","Lion","R2","Related",26,32,"Study","Unrelated","U2",9154,""
"597519f8262c480001bbaf8b",46,11,"Read C","Donkey","Donkey","R2","Related",34,33,"Study","Unrelated","U2",11076,""
"597519f8262c480001bbaf8b",47,11,"Read C","Cheetah","Cheetah","R2","Related",28,35,"Study","Unrelated","U2",9437,""
"597519f8262c480001bbaf8b",48,11,"Read C","Tiger","Tiger","R2","Related",25,26,"Study","Unrelated","U2",8589,""
"597519f8262c480001bbaf8b",52,11,"Read C","","","","",NA,0,"FreeRecall","Unrelated","RECALL_Test3",65011,"Tiger Cheetah Lion, Donkey Goat Cat Wolf Zebra"
"597519f8262c480001bbaf8b",54,11,"Read C","Fly","Fly","U2","Unrelated",38,49,"Study","Related","R2",8112,""
"597519f8262c480001bbaf8b",55,11,"Read C","Cruise","Cruise","U2","Unrelated",42,47,"Study","Related","R2",2042,""
"597519f8262c480001bbaf8b",56,11,"Read C","Shark","Shark","U2","Unrelated",43,42,"Study","Related","R2",10638,""
"597519f8262c480001bbaf8b",57,11,"Read C","Sandal","Sandal","U2","Unrelated",37,44,"Study","Related","R2",9737,""
"597519f8262c480001bbaf8b",58,11,"Read C","Eye","Eye","U2","Unrelated",48,39,"Study","Related","R2",7958,""
"597519f8262c480001bbaf8b",59,11,"Read C","Lipstick","Lipstick","U2","Unrelated",46,48,"Study","Related","R2",10063,""
"597519f8262c480001bbaf8b",60,11,"Read C","Viper","Viper","U2","Unrelated",44,38,"Study","Related","R2",9486,""
"597519f8262c480001bbaf8b",61,11,"Read C","Computer","Computer","U2","Unrelated",47,46,"Study","Related","R2",9705,""
"597519f8262c480001bbaf8b",62,11,"Read C","Cold","Cold","U2","Unrelated",40,45,"Study","Related","R2",7811,""
"597519f8262c480001bbaf8b",63,11,"Read C","Tea","Tea","U2","Unrelated",45,40,"Study","Related","R2",7827,""
"597519f8262c480001bbaf8b",64,11,"Read C","Blue","Blue","U2","Unrelated",41,43,"Study","Related","R2",7530,""
"597519f8262c480001bbaf8b",65,11,"Read C","Tulip","Tulip","U2","Unrelated",39,41,"Study","Related","R2",9497,""
"597519f8262c480001bbaf8b",69,11,"Read C","","","","",NA,0,"FreeRecall","Related","RECALL_Test4",65010,"Tulip Blue Cold Tea Fly Computer Lipstick Eye "
"599a9252bbe848000179676e",3,10,"Read B","Strawberry","Strawberry","R1","Related",7,4,"Study","Related","R1",7485,""
"599a9252bbe848000179676e",4,10,"Read B","Mango","Mango","R1","Related",10,12,"Study","Related","R1",4161,""
"599a9252bbe848000179676e",5,10,"Read B","Peach","Peach","R1","Related",6,3,"Study","Related","R1",3470,""
"599a9252bbe848000179676e",6,10,"Read B","Apple","Apple","R1","Related",1,6,"Study","Related","R1",3771,""
"599a9252bbe848000179676e",7,10,"Read B","Orange","Orange","R1","Related",2,7,"Study","Related","R1",3870,""
"599a9252bbe848000179676e",8,10,"Read B","Kiwi","Kiwi","R1","Related",8,9,"Study","Related","R1",4147,""
"599a9252bbe848000179676e",9,10,"Read B","Cherry","Cherry","R1","Related",11,10,"Study","Related","R1",3792,""
"599a9252bbe848000179676e",10,10,"Read B","Banana","Banana","R1","Related",3,11,"Study","Related","R1",5483,""
"599a9252bbe848000179676e",11,10,"Read B","Lemon","Lemon","R1","Related",12,2,"Study","Related","R1",4274,""
"599a9252bbe848000179676e",12,10,"Read B","Pear","Pear","R1","Related",5,5,"Study","Related","R1",3871,""
"599a9252bbe848000179676e",13,10,"Read B","Grape","Grape","R1","Related",4,8,"Study","Related","R1",5041,""
"599a9252bbe848000179676e",14,10,"Read B","Plum","Plum","R1","Related",9,13,"Study","Related","R1",4031,""
"599a9252bbe848000179676e",18,10,"Read B","","","","",NA,0,"FreeRecall","Related","RECALL_Test1",65006,"lemon strawberry plum mango orange apple kiwi grape pear banana cherry peach peach "
"599a9252bbe848000179676e",20,10,"Read B","Flea","Flea","U1","Unrelated",21,14,"Study","Unrelated","U1",6696,""
"599a9252bbe848000179676e",21,10,"Read B","Bed","Bed","U1","Unrelated",14,22,"Study","Unrelated","U1",3581,""
"599a9252bbe848000179676e",22,10,"Read B","Hawk","Hawk","U1","Unrelated",24,16,"Study","Unrelated","U1",4205,""
"599a9252bbe848000179676e",23,10,"Read B","Shirt","Shirt","U1","Unrelated",18,15,"Study","Unrelated","U1",4152,""
"599a9252bbe848000179676e",24,10,"Read B","Bean","Bean","U1","Unrelated",22,20,"Study","Unrelated","U1",4767,""
"599a9252bbe848000179676e",25,10,"Read B","Frog","Frog","U1","Unrelated",13,25,"Study","Unrelated","U1",5286,""
"599a9252bbe848000179676e",26,10,"Read B","Document","Document","U1","Unrelated",15,23,"Study","Unrelated","U1",5494,""
"599a9252bbe848000179676e",27,10,"Read B","Mint","Mint","U1","Unrelated",17,19,"Study","Unrelated","U1",5451,""
"599a9252bbe848000179676e",28,10,"Read B","Slow","Slow","U1","Unrelated",23,21,"Study","Unrelated","U1",5791,""
"599a9252bbe848000179676e",29,10,"Read B","Kayak","Kayak","U1","Unrelated",20,17,"Study","Unrelated","U1",5304,""
"599a9252bbe848000179676e",30,10,"Read B","Dirt","Dirt","U1","Unrelated",16,24,"Study","Unrelated","U1",3958,""
"599a9252bbe848000179676e",31,10,"Read B","Yellow","Yellow","U1","Unrelated",19,18,"Study","Unrelated","U1",4442,""
"599a9252bbe848000179676e",35,10,"Read B","","","","",NA,0,"FreeRecall","Unrelated","RECALL_Test2",65000,"kayak flea mint document hawk bed yellow dirt slow bean frog shirt fle"
"599a9252bbe848000179676e",37,10,"Read B","Basement","Basement","R2","Related",26,35,"Study","Related","R2",10524,""
"599a9252bbe848000179676e",38,10,"Read B","Ceiling","Ceiling","R2","Related",25,29,"Study","Related","R2",3980,""
"599a9252bbe848000179676e",39,10,"Read B","Attic","Attic","R2","Related",34,28,"Study","Related","R2",3388,""
"599a9252bbe848000179676e",40,10,"Read B","Wall","Wall","R2","Related",29,31,"Study","Related","R2",3254,""
"599a9252bbe848000179676e",41,10,"Read B","Hallway","Hallway","R2","Related",35,32,"Study","Related","R2",4876,""
"599a9252bbe848000179676e",42,10,"Read B","Floor","Floor","R2","Related",31,26,"Study","Related","R2",4077,""
"599a9252bbe848000179676e",43,10,"Read B","Stairs","Stairs","R2","Related",32,36,"Study","Related","R2",3949,""
"599a9252bbe848000179676e",44,10,"Read B","Door","Door","R2","Related",30,30,"Study","Related","R2",3260,""
"599a9252bbe848000179676e",45,10,"Read B","Roof","Roof","R2","Related",36,37,"Study","Related","R2",3442,""
"599a9252bbe848000179676e",46,10,"Read B","Window","Window","R2","Related",28,27,"Study","Related","R2",4358,""
"599a9252bbe848000179676e",47,10,"Read B","Bathroom","Bathroom","R2","Related",27,34,"Study","Related","R2",5074,""
"599a9252bbe848000179676e",48,10,"Read B","Elevator","Elevator","R2","Related",33,33,"Study","Related","R2",4399,""
"599a9252bbe848000179676e",52,10,"Read B","","","","",NA,0,"FreeRecall","Related","RECALL_Test3",65004,"roof wall hallway ceiling stairs window bathroom elevator basement attic floor door wall window ceiling stairs"
"599a9252bbe848000179676e",54,10,"Read B","Basket","Basket","U2","Unrelated",41,43,"Study","Unrelated","U2",7099,""
"599a9252bbe848000179676e",55,10,"Read B","Rest","Rest","U2","Unrelated",48,42,"Study","Unrelated","U2",3552,""
"599a9252bbe848000179676e",56,10,"Read B","Drill","Drill","U2","Unrelated",45,40,"Study","Unrelated","U2",2986,""
"599a9252bbe848000179676e",57,10,"Read B","Card","Card","U2","Unrelated",37,38,"Study","Unrelated","U2",3473,""
"599a9252bbe848000179676e",58,10,"Read B","Cloud","Cloud","U2","Unrelated",40,48,"Study","Unrelated","U2",3847,""
"599a9252bbe848000179676e",59,10,"Read B","Phone","Phone","U2","Unrelated",47,49,"Study","Unrelated","U2",3480,""
"599a9252bbe848000179676e",60,10,"Read B","Fossil","Fossil","U2","Unrelated",43,44,"Study","Unrelated","U2",4152,""
"599a9252bbe848000179676e",61,10,"Read B","Salt","Salt","U2","Unrelated",39,41,"Study","Unrelated","U2",2465,""
"599a9252bbe848000179676e",62,10,"Read B","Mother","Mother","U2","Unrelated",44,47,"Study","Unrelated","U2",5172,""
"599a9252bbe848000179676e",63,10,"Read B","Flute","Flute","U2","Unrelated",38,39,"Study","Unrelated","U2",3894,""
"599a9252bbe848000179676e",64,10,"Read B","Tent","Tent","U2","Unrelated",46,45,"Study","Unrelated","U2",3427,""
"599a9252bbe848000179676e",65,10,"Read B","Cook","Cook","U2","Unrelated",42,46,"Study","Unrelated","U2",5088,""
"599a9252bbe848000179676e",69,10,"Read B","","","","",NA,0,"FreeRecall","","RECALL_Test4",65004,"cook card cloud mother fossil salt flute drill basket rest tent phone mother "
"5a8ff02e4fcb2f0001d8bb9b",3,10,"Read B","Orange","Orange","R1","Related",2,11,"Study","Related","R1",5154,""
"5a8ff02e4fcb2f0001d8bb9b",4,10,"Read B","Pear","Pear","R1","Related",5,6,"Study","Related","R1",1671,""
"5a8ff02e4fcb2f0001d8bb9b",5,10,"Read B","Kiwi","Kiwi","R1","Related",8,13,"Study","Related","R1",3412,""
"5a8ff02e4fcb2f0001d8bb9b",6,10,"Read B","Mango","Mango","R1","Related",10,10,"Study","Related","R1",2523,""
"5a8ff02e4fcb2f0001d8bb9b",7,10,"Read B","Apple","Apple","R1","Related",1,2,"Study","Related","R1",2177,""
"5a8ff02e4fcb2f0001d8bb9b",8,10,"Read B","Plum","Plum","R1","Related",9,7,"Study","Related","R1",2240,""
"5a8ff02e4fcb2f0001d8bb9b",9,10,"Read B","Banana","Banana","R1","Related",3,9,"Study","Related","R1",4101,""
"5a8ff02e4fcb2f0001d8bb9b",10,10,"Read B","Cherry","Cherry","R1","Related",11,5,"Study","Related","R1",2229,""
"5a8ff02e4fcb2f0001d8bb9b",11,10,"Read B","Grape","Grape","R1","Related",4,4,"Study","Related","R1",2625,""
"5a8ff02e4fcb2f0001d8bb9b",12,10,"Read B","Peach","Peach","R1","Related",6,3,"Study","Related","R1",1923,""
"5a8ff02e4fcb2f0001d8bb9b",13,10,"Read B","Strawberry","Strawberry","R1","Related",7,12,"Study","Related","R1",2510,""
"5a8ff02e4fcb2f0001d8bb9b",14,10,"Read B","Lemon","Lemon","R1","Related",12,8,"Study","Related","R1",4130,""
"5a8ff02e4fcb2f0001d8bb9b",18,10,"Read B","","","","",NA,0,"FreeRecall","Related","RECALL_Test1",65004,"banana orange grape plum peach kiwi strawberry lemon "
"5a8ff02e4fcb2f0001d8bb9b",20,10,"Read B","Kayak","Kayak","U1","Unrelated",20,21,"Study","Unrelated","U1",10889,""
"5a8ff02e4fcb2f0001d8bb9b",21,10,"Read B","Yellow","Yellow","U1","Unrelated",19,25,"Study","Unrelated","U1",2279,""
"5a8ff02e4fcb2f0001d8bb9b",22,10,"Read B","Hawk","Hawk","U1","Unrelated",24,15,"Study","Unrelated","U1",1997,""
"5a8ff02e4fcb2f0001d8bb9b",23,10,"Read B","Bean","Bean","U1","Unrelated",22,17,"Study","Unrelated","U1",2601,""
"5a8ff02e4fcb2f0001d8bb9b",24,10,"Read B","Frog","Frog","U1","Unrelated",13,18,"Study","Unrelated","U1",3063,""
"5a8ff02e4fcb2f0001d8bb9b",25,10,"Read B","Flea","Flea","U1","Unrelated",21,16,"Study","Unrelated","U1",1702,""
"5a8ff02e4fcb2f0001d8bb9b",26,10,"Read B","Mint","Mint","U1","Unrelated",17,23,"Study","Unrelated","U1",1774,""
"5a8ff02e4fcb2f0001d8bb9b",27,10,"Read B","Bed","Bed","U1","Unrelated",14,14,"Study","Unrelated","U1",1718,""
"5a8ff02e4fcb2f0001d8bb9b",28,10,"Read B","Dirt","Dirt","U1","Unrelated",16,20,"Study","Unrelated","U1",15235,""
"5a8ff02e4fcb2f0001d8bb9b",29,10,"Read B","Shirt","Shirt","U1","Unrelated",18,19,"Study","Unrelated","U1",5139,""
"5a8ff02e4fcb2f0001d8bb9b",30,10,"Read B","Slow","Slow","U1","Unrelated",23,24,"Study","Unrelated","U1",1622,""
"5a8ff02e4fcb2f0001d8bb9b",31,10,"Read B","Document","Document","U1","Unrelated",15,22,"Study","Unrelated","U1",1746,""
"5a8ff02e4fcb2f0001d8bb9b",35,10,"Read B","","","","",NA,0,"FreeRecall","Unrelated","RECALL_Test2",65003,"kayak yellow hawk bean toad flea document walk "
"5a8ff02e4fcb2f0001d8bb9b",37,10,"Read B","Window","Window","R2","Related",28,31,"Study","Related","R2",1716,""
"5a8ff02e4fcb2f0001d8bb9b",38,10,"Read B","Hallway","Hallway","R2","Related",35,37,"Study","Related","R2",2247,""
"5a8ff02e4fcb2f0001d8bb9b",39,10,"Read B","Stairs","Stairs","R2","Related",32,30,"Study","Related","R2",1532,""
"5a8ff02e4fcb2f0001d8bb9b",40,10,"Read B","Bathroom","Bathroom","R2","Related",27,36,"Study","Related","R2",1600,""
"5a8ff02e4fcb2f0001d8bb9b",41,10,"Read B","Floor","Floor","R2","Related",31,27,"Study","Related","R2",1591,""
"5a8ff02e4fcb2f0001d8bb9b",42,10,"Read B","Door","Door","R2","Related",30,33,"Study","Related","R2",1572,""
"5a8ff02e4fcb2f0001d8bb9b",43,10,"Read B","Ceiling","Ceiling","R2","Related",25,35,"Study","Related","R2",1552,""
"5a8ff02e4fcb2f0001d8bb9b",44,10,"Read B","Elevator","Elevator","R2","Related",33,34,"Study","Related","R2",1563,""
"5a8ff02e4fcb2f0001d8bb9b",45,10,"Read B","Basement","Basement","R2","Related",26,26,"Study","Related","R2",1463,""
"5a8ff02e4fcb2f0001d8bb9b",46,10,"Read B","Roof","Roof","R2","Related",36,32,"Study","Related","R2",1434,""
"5a8ff02e4fcb2f0001d8bb9b",47,10,"Read B","Attic","Attic","R2","Related",34,29,"Study","Related","R2",1525,""
"5a8ff02e4fcb2f0001d8bb9b",48,10,"Read B","Wall","Wall","R2","Related",29,28,"Study","Related","R2",1446,""
"5a8ff02e4fcb2f0001d8bb9b",52,10,"Read B","","","","",NA,0,"FreeRecall","Related","RECALL_Test3",65001,"hallway window stairs bathroom floor door basement elevator ceiling garage"
"5a8ff02e4fcb2f0001d8bb9b",54,10,"Read B","Tent","Tent","U2","Unrelated",46,43,"Study","Unrelated","U2",1884,""
"5a8ff02e4fcb2f0001d8bb9b",55,10,"Read B","Cook","Cook","U2","Unrelated",42,42,"Study","Unrelated","U2",1550,""
"5a8ff02e4fcb2f0001d8bb9b",56,10,"Read B","Basket","Basket","U2","Unrelated",41,38,"Study","Unrelated","U2",2366,""
"5a8ff02e4fcb2f0001d8bb9b",57,10,"Read B","Drill","Drill","U2","Unrelated",45,46,"Study","Unrelated","U2",1893,""
"5a8ff02e4fcb2f0001d8bb9b",58,10,"Read B","Phone","Phone","U2","Unrelated",47,40,"Study","Unrelated","U2",3135,""
"5a8ff02e4fcb2f0001d8bb9b",59,10,"Read B","Mother","Mother","U2","Unrelated",44,39,"Study","Unrelated","U2",1541,""
"5a8ff02e4fcb2f0001d8bb9b",60,10,"Read B","Card","Card","U2","Unrelated",37,45,"Study","Unrelated","U2",3930,""
"5a8ff02e4fcb2f0001d8bb9b",61,10,"Read B","Fossil","Fossil","U2","Unrelated",43,48,"Study","Unrelated","U2",3810,""
"5a8ff02e4fcb2f0001d8bb9b",62,10,"Read B","Flute","Flute","U2","Unrelated",38,49,"Study","Unrelated","U2",3606,""
"5a8ff02e4fcb2f0001d8bb9b",63,10,"Read B","Rest","Rest","U2","Unrelated",48,47,"Study","Unrelated","U2",1820,""
"5a8ff02e4fcb2f0001d8bb9b",64,10,"Read B","Cloud","Cloud","U2","Unrelated",40,41,"Study","Unrelated","U2",1494,""
"5a8ff02e4fcb2f0001d8bb9b",65,10,"Read B","Salt","Salt","U2","Unrelated",39,44,"Study","Unrelated","U2",1652,""
"5a8ff02e4fcb2f0001d8bb9b",69,10,"Read B","","","","",NA,0,"FreeRecall","","RECALL_Test4",65008,"cook tent mother cloud flute "
"5a9bbda1f6dfdd0001ea9639",3,12,"Read D","Peach","Peach","R1","Related",6,7,"Study","Unrelated","U1",2067,""
"5a9bbda1f6dfdd0001ea9639",4,12,"Read D","Grape","Grape","R1","Related",4,6,"Study","Unrelated","U1",1488,""
"5a9bbda1f6dfdd0001ea9639",5,12,"Read D","Lemon","Lemon","R1","Related",12,10,"Study","Unrelated","U1",1515,""
"5a9bbda1f6dfdd0001ea9639",6,12,"Read D","Mango","Mango","R1","Related",10,11,"Study","Unrelated","U1",1524,""
"5a9bbda1f6dfdd0001ea9639",7,12,"Read D","Orange","Orange","R1","Related",2,5,"Study","Unrelated","U1",1455,""
"5a9bbda1f6dfdd0001ea9639",8,12,"Read D","Plum","Plum","R1","Related",9,4,"Study","Unrelated","U1",1510,""
"5a9bbda1f6dfdd0001ea9639",9,12,"Read D","Banana","Banana","R1","Related",3,13,"Study","Unrelated","U1",1467,""
"5a9bbda1f6dfdd0001ea9639",10,12,"Read D","Apple","Apple","R1","Related",1,9,"Study","Unrelated","U1",1421,""
"5a9bbda1f6dfdd0001ea9639",11,12,"Read D","Strawberry","Strawberry","R1","Related",7,8,"Study","Unrelated","U1",1568,""
"5a9bbda1f6dfdd0001ea9639",12,12,"Read D","Kiwi","Kiwi","R1","Related",8,2,"Study","Unrelated","U1",1482,""
"5a9bbda1f6dfdd0001ea9639",13,12,"Read D","Cherry","Cherry","R1","Related",11,12,"Study","Unrelated","U1",1653,""
"5a9bbda1f6dfdd0001ea9639",14,12,"Read D","Pear","Pear","R1","Related",5,3,"Study","Unrelated","U1",1413,""
"5a9bbda1f6dfdd0001ea9639",18,12,"Read D","","","","",NA,0,"FreeRecall","Unrelated","RECALL_Test1",65001,"mango peach pear apple kiwi banana cherry grape lemon plum strawberry"
"5a9bbda1f6dfdd0001ea9639",20,12,"Read D","Document","Document","U1","Unrelated",15,17,"Study","Related","R1",2559,""
"5a9bbda1f6dfdd0001ea9639",21,12,"Read D","Hawk","Hawk","U1","Unrelated",24,22,"Study","Related","R1",2584,""
"5a9bbda1f6dfdd0001ea9639",22,12,"Read D","Slow","Slow","U1","Unrelated",23,16,"Study","Related","R1",2692,""
"5a9bbda1f6dfdd0001ea9639",23,12,"Read D","Shirt","Shirt","U1","Unrelated",18,24,"Study","Related","R1",2134,""
"5a9bbda1f6dfdd0001ea9639",24,12,"Read D","Frog","Frog","U1","Unrelated",13,18,"Study","Related","R1",1535,""
"5a9bbda1f6dfdd0001ea9639",25,12,"Read D","Bean","Bean","U1","Unrelated",22,23,"Study","Related","R1",1977,""
"5a9bbda1f6dfdd0001ea9639",26,12,"Read D","Mint","Mint","U1","Unrelated",17,21,"Study","Related","R1",1531,""
"5a9bbda1f6dfdd0001ea9639",27,12,"Read D","Dirt","Dirt","U1","Unrelated",16,15,"Study","Related","R1",1450,""
"5a9bbda1f6dfdd0001ea9639",28,12,"Read D","Yellow","Yellow","U1","Unrelated",19,19,"Study","Related","R1",2099,""
"5a9bbda1f6dfdd0001ea9639",29,12,"Read D","Bed","Bed","U1","Unrelated",14,14,"Study","Related","R1",1442,""
"5a9bbda1f6dfdd0001ea9639",30,12,"Read D","Flea","Flea","U1","Unrelated",21,20,"Study","Related","R1",1863,""
"5a9bbda1f6dfdd0001ea9639",31,12,"Read D","Kayak","Kayak","U1","Unrelated",20,25,"Study","Related","R1",1536,""
"5a9bbda1f6dfdd0001ea9639",35,12,"Read D","","","","",NA,0,"FreeRecall","Related","RECALL_Test2",65004,"document hawk flea yellow bed kayak shirt frog"
"5a9bbda1f6dfdd0001ea9639",37,12,"Read D","Attic","Attic","R2","Related",34,26,"Study","Unrelated","U2",3096,""
"5a9bbda1f6dfdd0001ea9639",38,12,"Read D","Bathroom","Bathroom","R2","Related",27,34,"Study","Unrelated","U2",2938,""
"5a9bbda1f6dfdd0001ea9639",39,12,"Read D","Roof","Roof","R2","Related",36,37,"Study","Unrelated","U2",1440,""
"5a9bbda1f6dfdd0001ea9639",40,12,"Read D","Stairs","Stairs","R2","Related",32,28,"Study","Unrelated","U2",1583,""
"5a9bbda1f6dfdd0001ea9639",41,12,"Read D","Wall","Wall","R2","Related",29,33,"Study","Unrelated","U2",1479,""
"5a9bbda1f6dfdd0001ea9639",42,12,"Read D","Basement","Basement","R2","Related",26,27,"Study","Unrelated","U2",1572,""
"5a9bbda1f6dfdd0001ea9639",43,12,"Read D","Window","Window","R2","Related",28,30,"Study","Unrelated","U2",1540,""
"5a9bbda1f6dfdd0001ea9639",44,12,"Read D","Ceiling","Ceiling","R2","Related",25,35,"Study","Unrelated","U2",1852,""
"5a9bbda1f6dfdd0001ea9639",45,12,"Read D","Elevator","Elevator","R2","Related",33,29,"Study","Unrelated","U2",1590,""
"5a9bbda1f6dfdd0001ea9639",46,12,"Read D","Door","Door","R2","Related",30,32,"Study","Unrelated","U2",1921,""
"5a9bbda1f6dfdd0001ea9639",47,12,"Read D","Hallway","Hallway","R2","Related",35,36,"Study","Unrelated","U2",1584,""
"5a9bbda1f6dfdd0001ea9639",48,12,"Read D","Floor","Floor","R2","Related",31,31,"Study","Unrelated","U2",1627,""
"5a9bbda1f6dfdd0001ea9639",52,12,"Read D","","","","",NA,0,"FreeRecall","Unrelated","RECALL_Test3",65000,"bed window door floor ceiling hallway roof bathroom stairs elevator attic basement"
"5a9bbda1f6dfdd0001ea9639",54,12,"Read D","Flute","Flute","U2","Unrelated",38,41,"Study","Related","R2",3505,""
"5a9bbda1f6dfdd0001ea9639",55,12,"Read D","Basket","Basket","U2","Unrelated",41,42,"Study","Related","R2",2803,""
"5a9bbda1f6dfdd0001ea9639",56,12,"Read D","Phone","Phone","U2","Unrelated",47,47,"Study","Related","R2",1802,""
"5a9bbda1f6dfdd0001ea9639",57,12,"Read D","Salt","Salt","U2","Unrelated",39,40,"Study","Related","R2",1756,""
"5a9bbda1f6dfdd0001ea9639",58,12,"Read D","Tent","Tent","U2","Unrelated",46,43,"Study","Related","R2",2115,""
"5a9bbda1f6dfdd0001ea9639",59,12,"Read D","Cloud","Cloud","U2","Unrelated",40,39,"Study","Related","R2",1946,""
"5a9bbda1f6dfdd0001ea9639",60,12,"Read D","Card","Card","U2","Unrelated",37,48,"Study","Related","R2",3270,""
"5a9bbda1f6dfdd0001ea9639",61,12,"Read D","Rest","Rest","U2","Unrelated",48,38,"Study","Related","R2",2519,""
"5a9bbda1f6dfdd0001ea9639",62,12,"Read D","Mother","Mother","U2","Unrelated",44,45,"Study","Related","R2",1721,""
"5a9bbda1f6dfdd0001ea9639",63,12,"Read D","Cook","Cook","U2","Unrelated",42,49,"Study","Related","R2",1641,""
"5a9bbda1f6dfdd0001ea9639",64,12,"Read D","Drill","Drill","U2","Unrelated",45,44,"Study","Related","R2",2501,""
"5a9bbda1f6dfdd0001ea9639",65,12,"Read D","Fossil","Fossil","U2","Unrelated",43,46,"Study","Related","R2",1970,""
"5a9bbda1f6dfdd0001ea9639",69,12,"Read D","","","","",NA,0,"FreeRecall","Related","RECALL_Test4",65003,"drill tent rest mother cloud cook phone"
"5ab10212fb22320001bacdfe",3,10,"Read B","Orange","Orange","R1","Related",2,6,"Study","Related","R1",22183,""
"5ab10212fb22320001bacdfe",4,10,"Read B","Lemon","Lemon","R1","Related",12,12,"Study","Related","R1",4540,""
"5ab10212fb22320001bacdfe",5,10,"Read B","Kiwi","Kiwi","R1","Related",8,8,"Study","Related","R1",8438,""
"5ab10212fb22320001bacdfe",6,10,"Read B","Grape","Grape","R1","Related",4,10,"Study","Related","R1",3932,""
"5ab10212fb22320001bacdfe",7,10,"Read B","Strawberry","Strawberry","R1","Related",7,3,"Study","Related","R1",5477,""
"5ab10212fb22320001bacdfe",8,10,"Read B","Cherry","Cherry","R1","Related",11,5,"Study","Related","R1",3037,""
"5ab10212fb22320001bacdfe",9,10,"Read B","Pear","Pear","R1","Related",5,11,"Study","Related","R1",2757,""
"5ab10212fb22320001bacdfe",10,10,"Read B","Banana","Banana","R1","Related",3,13,"Study","Related","R1",4676,""
"5ab10212fb22320001bacdfe",11,10,"Read B","Peach","Peach","R1","Related",6,7,"Study","Related","R1",3208,""
"5ab10212fb22320001bacdfe",12,10,"Read B","Apple","Apple","R1","Related",1,4,"Study","Related","R1",3804,""
"5ab10212fb22320001bacdfe",13,10,"Read B","Plum","Plum","R1","Related",9,2,"Study","Related","R1",3070,""
"5ab10212fb22320001bacdfe",14,10,"Read B","Mango","Mango","R1","Related",10,9,"Study","Related","R1",4162,""
"5ab10212fb22320001bacdfe",18,10,"Read B","","","","",NA,0,"FreeRecall","Related","RECALL_Test1",65002,"orange lemon strawberry pear banana mango apple plum"
"5ab10212fb22320001bacdfe",20,10,"Read B","Bean","Bean","U1","Unrelated",22,25,"Study","Unrelated","U1",4376,""
"5ab10212fb22320001bacdfe",21,10,"Read B","Yellow","Yellow","U1","Unrelated",19,19,"Study","Unrelated","U1",3349,""
"5ab10212fb22320001bacdfe",22,10,"Read B","Mint","Mint","U1","Unrelated",17,17,"Study","Unrelated","U1",2834,""
"5ab10212fb22320001bacdfe",23,10,"Read B","Dirt","Dirt","U1","Unrelated",16,16,"Study","Unrelated","U1",3363,""
"5ab10212fb22320001bacdfe",24,10,"Read B","Kayak","Kayak","U1","Unrelated",20,15,"Study","Unrelated","U1",3500,""
"5ab10212fb22320001bacdfe",25,10,"Read B","Slow","Slow","U1","Unrelated",23,20,"Study","Unrelated","U1",2483,""
"5ab10212fb22320001bacdfe",26,10,"Read B","Flea","Flea","U1","Unrelated",21,22,"Study","Unrelated","U1",3138,""
"5ab10212fb22320001bacdfe",27,10,"Read B","Hawk","Hawk","U1","Unrelated",24,14,"Study","Unrelated","U1",2826,""
"5ab10212fb22320001bacdfe",28,10,"Read B","Frog","Frog","U1","Unrelated",13,23,"Study","Unrelated","U1",3559,""
"5ab10212fb22320001bacdfe",29,10,"Read B","Shirt","Shirt","U1","Unrelated",18,24,"Study","Unrelated","U1",2622,""
"5ab10212fb22320001bacdfe",30,10,"Read B","Document","Document","U1","Unrelated",15,18,"Study","Unrelated","U1",4813,""
"5ab10212fb22320001bacdfe",31,10,"Read B","Bed","Bed","U1","Unrelated",14,21,"Study","Unrelated","U1",2893,""
"5ab10212fb22320001bacdfe",35,10,"Read B","","","","",NA,0,"FreeRecall","Unrelated","RECALL_Test2",65000,"bed yellow mint kayak document hawk"
"5ab10212fb22320001bacdfe",37,10,"Read B","Roof","Roof","R2","Related",36,33,"Study","Related","R2",4140,""
"5ab10212fb22320001bacdfe",38,10,"Read B","Elevator","Elevator","R2","Related",33,29,"Study","Related","R2",4899,""
"5ab10212fb22320001bacdfe",39,10,"Read B","Window","Window","R2","Related",28,30,"Study","Related","R2",2882,""
"5ab10212fb22320001bacdfe",40,10,"Read B","Ceiling","Ceiling","R2","Related",25,32,"Study","Related","R2",3159,""
"5ab10212fb22320001bacdfe",41,10,"Read B","Hallway","Hallway","R2","Related",35,26,"Study","Related","R2",4735,""
"5ab10212fb22320001bacdfe",42,10,"Read B","Stairs","Stairs","R2","Related",32,27,"Study","Related","R2",3299,""
"5ab10212fb22320001bacdfe",43,10,"Read B","Attic","Attic","R2","Related",34,34,"Study","Related","R2",3722,""
"5ab10212fb22320001bacdfe",44,10,"Read B","Basement","Basement","R2","Related",26,36,"Study","Related","R2",3986,""
"5ab10212fb22320001bacdfe",45,10,"Read B","Wall","Wall","R2","Related",29,37,"Study","Related","R2",2959,""
"5ab10212fb22320001bacdfe",46,10,"Read B","Door","Door","R2","Related",30,35,"Study","Related","R2",3516,""
"5ab10212fb22320001bacdfe",47,10,"Read B","Bathroom","Bathroom","R2","Related",27,31,"Study","Related","R2",3503,""
"5ab10212fb22320001bacdfe",48,10,"Read B","Floor","Floor","R2","Related",31,28,"Study","Related","R2",3161,""
"5ab10212fb22320001bacdfe",52,10,"Read B","","","","",NA,0,"FreeRecall","Related","RECALL_Test3",65002,"floor bathroom door roof ceiling basement wall"
"5ab10212fb22320001bacdfe",54,10,"Read B","Salt","Salt","U2","Unrelated",39,49,"Study","Unrelated","U2",3122,""
"5ab10212fb22320001bacdfe",55,10,"Read B","Rest","Rest","U2","Unrelated",48,47,"Study","Unrelated","U2",3332,""
"5ab10212fb22320001bacdfe",56,10,"Read B","Cloud","Cloud","U2","Unrelated",40,38,"Study","Unrelated","U2",3695,""
"5ab10212fb22320001bacdfe",57,10,"Read B","Flute","Flute","U2","Unrelated",38,45,"Study","Unrelated","U2",4497,""
"5ab10212fb22320001bacdfe",58,10,"Read B","Cook","Cook","U2","Unrelated",42,48,"Study","Unrelated","U2",4619,""
"5ab10212fb22320001bacdfe",59,10,"Read B","Fossil","Fossil","U2","Unrelated",43,39,"Study","Unrelated","U2",16410,""
"5ab10212fb22320001bacdfe",60,10,"Read B","Drill","Drill","U2","Unrelated",45,46,"Study","Unrelated","U2",8458,""
"5ab10212fb22320001bacdfe",61,10,"Read B","Basket","Basket","U2","Unrelated",41,41,"Study","Unrelated","U2",5219,""
"5ab10212fb22320001bacdfe",62,10,"Read B","Tent","Tent","U2","Unrelated",46,43,"Study","Unrelated","U2",3220,""
"5ab10212fb22320001bacdfe",63,10,"Read B","Phone","Phone","U2","Unrelated",47,44,"Study","Unrelated","U2",4194,""
"5ab10212fb22320001bacdfe",64,10,"Read B","Mother","Mother","U2","Unrelated",44,40,"Study","Unrelated","U2",3546,""
"5ab10212fb22320001bacdfe",65,10,"Read B","Card","Card","U2","Unrelated",37,42,"Study","Unrelated","U2",3303,""
"5ab10212fb22320001bacdfe",69,10,"Read B","","","","",NA,0,"FreeRecall","","RECALL_Test4",65001,"salt rest drill fossil card mother tent basket flute"
"5af2ef2aa27d3b00011eb45d",3,12,"Read D","Lemon","Lemon","R1","Related",12,11,"Study","Unrelated","U1",3196,""
"5af2ef2aa27d3b00011eb45d",4,12,"Read D","Apple","Apple","R1","Related",1,13,"Study","Unrelated","U1",2329,""
"5af2ef2aa27d3b00011eb45d",5,12,"Read D","Banana","Banana","R1","Related",3,9,"Study","Unrelated","U1",2710,""
"5af2ef2aa27d3b00011eb45d",6,12,"Read D","Kiwi","Kiwi","R1","Related",8,10,"Study","Unrelated","U1",2236,""
"5af2ef2aa27d3b00011eb45d",7,12,"Read D","Grape","Grape","R1","Related",4,4,"Study","Unrelated","U1",2210,""
"5af2ef2aa27d3b00011eb45d",8,12,"Read D","Plum","Plum","R1","Related",9,2,"Study","Unrelated","U1",3773,""
"5af2ef2aa27d3b00011eb45d",9,12,"Read D","Peach","Peach","R1","Related",6,8,"Study","Unrelated","U1",2494,""
"5af2ef2aa27d3b00011eb45d",10,12,"Read D","Pear","Pear","R1","Related",5,7,"Study","Unrelated","U1",2054,""
"5af2ef2aa27d3b00011eb45d",11,12,"Read D","Orange","Orange","R1","Related",2,5,"Study","Unrelated","U1",2422,""
"5af2ef2aa27d3b00011eb45d",12,12,"Read D","Mango","Mango","R1","Related",10,12,"Study","Unrelated","U1",2272,""
"5af2ef2aa27d3b00011eb45d",13,12,"Read D","Cherry","Cherry","R1","Related",11,3,"Study","Unrelated","U1",2567,""
"5af2ef2aa27d3b00011eb45d",14,12,"Read D","Strawberry","Strawberry","R1","Related",7,6,"Study","Unrelated","U1",3763,""
"5af2ef2aa27d3b00011eb45d",18,12,"Read D","","","","",NA,0,"FreeRecall","Unrelated","RECALL_Test1",65002,"Kiwi, Apple, Pear, Banana, Grape, Cherry, Strawberry, Lemon, Plum, Orange"
"5af2ef2aa27d3b00011eb45d",20,12,"Read D","Flea","Flea","U1","Unrelated",21,14,"Study","Related","R1",3174,""
"5af2ef2aa27d3b00011eb45d",21,12,"Read D","Bed","Bed","U1","Unrelated",14,17,"Study","Related","R1",2612,""
"5af2ef2aa27d3b00011eb45d",22,12,"Read D","Mint","Mint","U1","Unrelated",17,16,"Study","Related","R1",2115,""
"5af2ef2aa27d3b00011eb45d",23,12,"Read D","Frog","Frog","U1","Unrelated",13,24,"Study","Related","R1",2798,""
"5af2ef2aa27d3b00011eb45d",24,12,"Read D","Yellow","Yellow","U1","Unrelated",19,22,"Study","Related","R1",2482,""
"5af2ef2aa27d3b00011eb45d",25,12,"Read D","Slow","Slow","U1","Unrelated",23,18,"Study","Related","R1",2025,""
"5af2ef2aa27d3b00011eb45d",26,12,"Read D","Shirt","Shirt","U1","Unrelated",18,20,"Study","Related","R1",3338,""
"5af2ef2aa27d3b00011eb45d",27,12,"Read D","Hawk","Hawk","U1","Unrelated",24,15,"Study","Related","R1",2215,""
"5af2ef2aa27d3b00011eb45d",28,12,"Read D","Bean","Bean","U1","Unrelated",22,23,"Study","Related","R1",2192,""
"5af2ef2aa27d3b00011eb45d",29,12,"Read D","Dirt","Dirt","U1","Unrelated",16,19,"Study","Related","R1",2019,""
"5af2ef2aa27d3b00011eb45d",30,12,"Read D","Kayak","Kayak","U1","Unrelated",20,25,"Study","Related","R1",2375,""
"5af2ef2aa27d3b00011eb45d",31,12,"Read D","Document","Document","U1","Unrelated",15,21,"Study","Related","R1",3455,""
"5af2ef2aa27d3b00011eb45d",35,12,"Read D","","","","",NA,0,"FreeRecall","Related","RECALL_Test2",65001,"Flea, Bed, Dirt, Kayak, Document, Slow, Shirt, Yellow, Bean, Mint"
"5af2ef2aa27d3b00011eb45d",37,12,"Read D","Floor","Floor","R2","Related",31,30,"Study","Unrelated","U2",2764,""
"5af2ef2aa27d3b00011eb45d",38,12,"Read D","Door","Door","R2","Related",30,28,"Study","Unrelated","U2",1961,""
"5af2ef2aa27d3b00011eb45d",39,12,"Read D","Bathroom","Bathroom","R2","Related",27,33,"Study","Unrelated","U2",3201,""
"5af2ef2aa27d3b00011eb45d",40,12,"Read D","Elevator","Elevator","R2","Related",33,29,"Study","Unrelated","U2",3569,""
"5af2ef2aa27d3b00011eb45d",41,12,"Read D","Roof","Roof","R2","Related",36,34,"Study","Unrelated","U2",1951,""
"5af2ef2aa27d3b00011eb45d",42,12,"Read D","Wall","Wall","R2","Related",29,26,"Study","Unrelated","U2",1970,""
"5af2ef2aa27d3b00011eb45d",43,12,"Read D","Hallway","Hallway","R2","Related",35,32,"Study","Unrelated","U2",2381,""
"5af2ef2aa27d3b00011eb45d",44,12,"Read D","Ceiling","Ceiling","R2","Related",25,37,"Study","Unrelated","U2",2973,""
"5af2ef2aa27d3b00011eb45d",45,12,"Read D","Stairs","Stairs","R2","Related",32,31,"Study","Unrelated","U2",2496,""
"5af2ef2aa27d3b00011eb45d",46,12,"Read D","Attic","Attic","R2","Related",34,27,"Study","Unrelated","U2",3115,""
"5af2ef2aa27d3b00011eb45d",47,12,"Read D","Basement","Basement","R2","Related",26,35,"Study","Unrelated","U2",2642,""
"5af2ef2aa27d3b00011eb45d",48,12,"Read D","Window","Window","R2","Related",28,36,"Study","Unrelated","U2",2128,""
"5af2ef2aa27d3b00011eb45d",52,12,"Read D","","","","",NA,0,"FreeRecall","Unrelated","RECALL_Test3",65004,"Stairs, Window, Door, Ceiling, Attic, Kitchen, Basement, Wall, Roof, Bathroom, Elevator, Floor"
"5af2ef2aa27d3b00011eb45d",54,12,"Read D","Flute","Flute","U2","Unrelated",38,43,"Study","Related","R2",5336,""
"5af2ef2aa27d3b00011eb45d",55,12,"Read D","Card","Card","U2","Unrelated",37,39,"Study","Related","R2",2214,""
"5af2ef2aa27d3b00011eb45d",56,12,"Read D","Mother","Mother","U2","Unrelated",44,38,"Study","Related","R2",2318,""
"5af2ef2aa27d3b00011eb45d",57,12,"Read D","Cook","Cook","U2","Unrelated",42,40,"Study","Related","R2",2009,""
"5af2ef2aa27d3b00011eb45d",58,12,"Read D","Tent","Tent","U2","Unrelated",46,49,"Study","Related","R2",1881,""
"5af2ef2aa27d3b00011eb45d",59,12,"Read D","Phone","Phone","U2","Unrelated",47,47,"Study","Related","R2",2084,""
"5af2ef2aa27d3b00011eb45d",60,12,"Read D","Cloud","Cloud","U2","Unrelated",40,42,"Study","Related","R2",1852,""
"5af2ef2aa27d3b00011eb45d",61,12,"Read D","Drill","Drill","U2","Unrelated",45,44,"Study","Related","R2",1964,""
"5af2ef2aa27d3b00011eb45d",62,12,"Read D","Basket","Basket","U2","Unrelated",41,48,"Study","Related","R2",2085,""
"5af2ef2aa27d3b00011eb45d",63,12,"Read D","Rest","Rest","U2","Unrelated",48,41,"Study","Related","R2",1945,""
"5af2ef2aa27d3b00011eb45d",64,12,"Read D","Fossil","Fossil","U2","Unrelated",43,46,"Study","Related","R2",3768,""
"5af2ef2aa27d3b00011eb45d",65,12,"Read D","Salt","Salt","U2","Unrelated",39,45,"Study","Related","R2",1949,""
"5af2ef2aa27d3b00011eb45d",69,12,"Read D","","","","",NA,0,"FreeRecall","Related","RECALL_Test4",65001,"Drill, Cloud, Mother, Flute, Card, Basket, Salt, Tent"
"5b35824a975e260001e9b7a6",3,9,"Read A","Canyon","Canyon","R1","Related",3,5,"Study","Related","R1",2670,""
"5b35824a975e260001e9b7a6",4,9,"Read A","Ocean","Ocean","R1","Related",8,3,"Study","Related","R1",2188,""
"5b35824a975e260001e9b7a6",5,9,"Read A","River","River","R1","Related",2,13,"Study","Related","R1",4915,""
"5b35824a975e260001e9b7a6",6,9,"Read A","Glacier","Glacier","R1","Related",12,4,"Study","Related","R1",3821,""
"5b35824a975e260001e9b7a6",7,9,"Read A","Rock","Rock","R1","Related",5,11,"Study","Related","R1",4950,""
"5b35824a975e260001e9b7a6",8,9,"Read A","Mountain","Mountain","R1","Related",7,12,"Study","Related","R1",2095,""
"5b35824a975e260001e9b7a6",9,9,"Read A","Valley","Valley","R1","Related",1,7,"Study","Related","R1",1659,""
"5b35824a975e260001e9b7a6",10,9,"Read A","Hill","Hill","R1","Related",6,6,"Study","Related","R1",1754,""
"5b35824a975e260001e9b7a6",11,9,"Read A","Volcano","Volcano","R1","Related",4,10,"Study","Related","R1",1605,""
"5b35824a975e260001e9b7a6",12,9,"Read A","Island","Island","R1","Related",9,8,"Study","Related","R1",1031,""
"5b35824a975e260001e9b7a6",13,9,"Read A","Lake","Lake","R1","Related",10,9,"Study","Related","R1",1495,""
"5b35824a975e260001e9b7a6",14,9,"Read A","Cave","Cave","R1","Related",11,2,"Study","Related","R1",1987,""
"5b35824a975e260001e9b7a6",18,9,"Read A","","","","",NA,0,"FreeRecall","Related","RECALL_Test1",65001,"canyon, mountain, river, ocean, volcano, hill, valley, "
"5b35824a975e260001e9b7a6",20,9,"Read A","Milk","Milk","U1","Unrelated",22,17,"Study","Unrelated","U1",1531,""
"5b35824a975e260001e9b7a6",21,9,"Read A","Ballet","Ballet","U1","Unrelated",24,18,"Study","Unrelated","U1",1624,""
"5b35824a975e260001e9b7a6",22,9,"Read A","Parrot","Parrot","U1","Unrelated",21,20,"Study","Unrelated","U1",1436,""
"5b35824a975e260001e9b7a6",23,9,"Read A","Pants","Pants","U1","Unrelated",17,14,"Study","Unrelated","U1",1543,""
"5b35824a975e260001e9b7a6",24,9,"Read A","Mayor","Mayor","U1","Unrelated",14,16,"Study","Unrelated","U1",1702,""
"5b35824a975e260001e9b7a6",25,9,"Read A","Dollar","Dollar","U1","Unrelated",20,15,"Study","Unrelated","U1",1646,""
"5b35824a975e260001e9b7a6",26,9,"Read A","Guitar","Guitar","U1","Unrelated",19,22,"Study","Unrelated","U1",1567,""
"5b35824a975e260001e9b7a6",27,9,"Read A","Student","Student","U1","Unrelated",15,21,"Study","Unrelated","U1",1916,""
"5b35824a975e260001e9b7a6",28,9,"Read A","Jeep","Jeep","U1","Unrelated",23,24,"Study","Unrelated","U1",1645,""
"5b35824a975e260001e9b7a6",29,9,"Read A","Rifle","Rifle","U1","Unrelated",13,23,"Study","Unrelated","U1",1568,""
"5b35824a975e260001e9b7a6",30,9,"Read A","Oxygen","Oxygen","U1","Unrelated",18,19,"Study","Unrelated","U1",1474,""
"5b35824a975e260001e9b7a6",31,9,"Read A","Hockey","Hockey","U1","Unrelated",16,25,"Study","Unrelated","U1",2086,""
"5b35824a975e260001e9b7a6",35,9,"Read A","","","","",NA,0,"FreeRecall","Unrelated","RECALL_Test2",65002,"milk parrot "
"5b35824a975e260001e9b7a6",37,9,"Read A","Cow","Cow","R2","Related",36,30,"Study","Related","R2",1671,""
"5b35824a975e260001e9b7a6",38,9,"Read A","Goat","Goat","R2","Related",30,36,"Study","Related","R2",1542,""
"5b35824a975e260001e9b7a6",39,9,"Read A","Tiger","Tiger","R2","Related",25,32,"Study","Related","R2",3184,""
"5b35824a975e260001e9b7a6",40,9,"Read A","Lion","Lion","R2","Related",26,37,"Study","Related","R2",1453,""
"5b35824a975e260001e9b7a6",41,9,"Read A","Cat","Cat","R2","Related",33,27,"Study","Related","R2",1448,""
"5b35824a975e260001e9b7a6",42,9,"Read A","Girraffe","Girraffe","R2","Related",31,31,"Study","Related","R2",1942,""
"5b35824a975e260001e9b7a6",43,9,"Read A","Wolf","Wolf","R2","Related",29,35,"Study","Related","R2",1178,""
"5b35824a975e260001e9b7a6",44,9,"Read A","Cheetah","Cheetah","R2","Related",28,33,"Study","Related","R2",1392,""
"5b35824a975e260001e9b7a6",45,9,"Read A","Donkey","Donkey","R2","Related",34,26,"Study","Related","R2",1398,""
"5b35824a975e260001e9b7a6",46,9,"Read A","Zebra","Zebra","R2","Related",27,29,"Study","Related","R2",1159,""
"5b35824a975e260001e9b7a6",47,9,"Read A","Bear","Bear","R2","Related",35,28,"Study","Related","R2",1281,""
"5b35824a975e260001e9b7a6",48,9,"Read A","Elephant","Elephant","R2","Related",32,34,"Study","Related","R2",1462,""
"5b35824a975e260001e9b7a6",52,9,"Read A","","","","",NA,0,"FreeRecall","Related","RECALL_Test3",65001,"cat, goat, cheetah, giraffe, cow, zebra, tiger, "
"5b35824a975e260001e9b7a6",54,9,"Read A","Computer","Computer","U2","Unrelated",47,45,"Study","Unrelated","U2",1637,""
"5b35824a975e260001e9b7a6",55,9,"Read A","Fly","Fly","U2","Unrelated",38,46,"Study","Unrelated","U2",1504,""
"5b35824a975e260001e9b7a6",56,9,"Read A","Blue","Blue","U2","Unrelated",41,49,"Study","Unrelated","U2",1539,""
"5b35824a975e260001e9b7a6",57,9,"Read A","Lipstick","Lipstick","U2","Unrelated",46,39,"Study","Unrelated","U2",1683,""
"5b35824a975e260001e9b7a6",58,9,"Read A","Eye","Eye","U2","Unrelated",48,47,"Study","Unrelated","U2",8948,""
"5b35824a975e260001e9b7a6",59,9,"Read A","Cruise","Cruise","U2","Unrelated",42,43,"Study","Unrelated","U2",1473,""
"5b35824a975e260001e9b7a6",60,9,"Read A","Sandal","Sandal","U2","Unrelated",37,41,"Study","Unrelated","U2",1129,""
"5b35824a975e260001e9b7a6",61,9,"Read A","Tea","Tea","U2","Unrelated",45,44,"Study","Unrelated","U2",1539,""
"5b35824a975e260001e9b7a6",62,9,"Read A","Viper","Viper","U2","Unrelated",44,38,"Study","Unrelated","U2",1446,""
"5b35824a975e260001e9b7a6",63,9,"Read A","Tulip","Tulip","U2","Unrelated",39,48,"Study","Unrelated","U2",1594,""
"5b35824a975e260001e9b7a6",64,9,"Read A","Cold","Cold","U2","Unrelated",40,42,"Study","Unrelated","U2",1374,""
"5b35824a975e260001e9b7a6",65,9,"Read A","Shark","Shark","U2","Unrelated",43,40,"Study","Unrelated","U2",1091,""
"5b35824a975e260001e9b7a6",69,9,"Read A","","","","",NA,0,"FreeRecall","","RECALL_Test4",65001,"shark, computer, tea, viper, sandals"
"5b523bdc608e18000184d8a6",3,11,"Read C","Valley","Valley","R1","Related",1,3,"Study","Unrelated","U1",1652,""
"5b523bdc608e18000184d8a6",4,11,"Read C","Mountain","Mountain","R1","Related",7,13,"Study","Unrelated","U1",1334,""
"5b523bdc608e18000184d8a6",5,11,"Read C","Canyon","Canyon","R1","Related",3,5,"Study","Unrelated","U1",1748,""
"5b523bdc608e18000184d8a6",6,11,"Read C","Volcano","Volcano","R1","Related",4,11,"Study","Unrelated","U1",1835,""
"5b523bdc608e18000184d8a6",7,11,"Read C","Rock","Rock","R1","Related",5,4,"Study","Unrelated","U1",2084,""
"5b523bdc608e18000184d8a6",8,11,"Read C","Glacier","Glacier","R1","Related",12,12,"Study","Unrelated","U1",2495,""
"5b523bdc608e18000184d8a6",9,11,"Read C","Island","Island","R1","Related",9,10,"Study","Unrelated","U1",1397,""
"5b523bdc608e18000184d8a6",10,11,"Read C","Hill","Hill","R1","Related",6,8,"Study","Unrelated","U1",1382,""
"5b523bdc608e18000184d8a6",11,11,"Read C","Lake","Lake","R1","Related",10,2,"Study","Unrelated","U1",1112,""
"5b523bdc608e18000184d8a6",12,11,"Read C","Ocean","Ocean","R1","Related",8,6,"Study","Unrelated","U1",1425,""
"5b523bdc608e18000184d8a6",13,11,"Read C","Cave","Cave","R1","Related",11,7,"Study","Unrelated","U1",1184,""
"5b523bdc608e18000184d8a6",14,11,"Read C","River","River","R1","Related",2,9,"Study","Unrelated","U1",1287,""
"5b523bdc608e18000184d8a6",18,11,"Read C","","","","",NA,0,"FreeRecall","Unrelated","RECALL_Test1",65002,"Valley, mountain, volcano, rock, hill, ocean, glacier, island, lake, cave, river, "
"5b523bdc608e18000184d8a6",20,11,"Read C","Rifle","Rifle","U1","Unrelated",13,18,"Study","Related","R1",2425,""
"5b523bdc608e18000184d8a6",21,11,"Read C","Milk","Milk","U1","Unrelated",22,15,"Study","Related","R1",1290,""
"5b523bdc608e18000184d8a6",22,11,"Read C","Jeep","Jeep","U1","Unrelated",23,14,"Study","Related","R1",1581,""
"5b523bdc608e18000184d8a6",23,11,"Read C","Student","Student","U1","Unrelated",15,20,"Study","Related","R1",1250,""
"5b523bdc608e18000184d8a6",24,11,"Read C","Pants","Pants","U1","Unrelated",17,19,"Study","Related","R1",1235,""
"5b523bdc608e18000184d8a6",25,11,"Read C","Dollar","Dollar","U1","Unrelated",20,21,"Study","Related","R1",1165,""
"5b523bdc608e18000184d8a6",26,11,"Read C","Hockey","Hockey","U1","Unrelated",16,24,"Study","Related","R1",1287,""
"5b523bdc608e18000184d8a6",27,11,"Read C","Mayor","Mayor","U1","Unrelated",14,17,"Study","Related","R1",1020,""
"5b523bdc608e18000184d8a6",28,11,"Read C","Oxygen","Oxygen","U1","Unrelated",18,22,"Study","Related","R1",1195,""
"5b523bdc608e18000184d8a6",29,11,"Read C","Parrot","Parrot","U1","Unrelated",21,23,"Study","Related","R1",1095,""
"5b523bdc608e18000184d8a6",30,11,"Read C","Ballet","Ballet","U1","Unrelated",24,25,"Study","Related","R1",1147,""
"5b523bdc608e18000184d8a6",31,11,"Read C","Guitar","Guitar","U1","Unrelated",19,16,"Study","Related","R1",1291,""
"5b523bdc608e18000184d8a6",35,11,"Read C","","","","",NA,0,"FreeRecall","Related","RECALL_Test2",65245,"Rifle, milk, dollar, mayor, parrot"
"5b523bdc608e18000184d8a6",37,11,"Read C","Donkey","Donkey","R2","Related",34,35,"Study","Unrelated","U2",5767,""
"5b523bdc608e18000184d8a6",38,11,"Read C","Wolf","Wolf","R2","Related",29,37,"Study","Unrelated","U2",1095,""
"5b523bdc608e18000184d8a6",39,11,"Read C","Tiger","Tiger","R2","Related",25,30,"Study","Unrelated","U2",1479,""
"5b523bdc608e18000184d8a6",40,11,"Read C","Girraffe","Girraffe","R2","Related",31,27,"Study","Unrelated","U2",1287,""
"5b523bdc608e18000184d8a6",41,11,"Read C","Cat","Cat","R2","Related",33,34,"Study","Unrelated","U2",1157,""
"5b523bdc608e18000184d8a6",42,11,"Read C","Zebra","Zebra","R2","Related",27,28,"Study","Unrelated","U2",1301,""
"5b523bdc608e18000184d8a6",43,11,"Read C","Elephant","Elephant","R2","Related",32,33,"Study","Unrelated","U2",1226,""
"5b523bdc608e18000184d8a6",44,11,"Read C","Bear","Bear","R2","Related",35,26,"Study","Unrelated","U2",1328,""
"5b523bdc608e18000184d8a6",45,11,"Read C","Cow","Cow","R2","Related",36,36,"Study","Unrelated","U2",1206,""
"5b523bdc608e18000184d8a6",46,11,"Read C","Goat","Goat","R2","Related",30,29,"Study","Unrelated","U2",1392,""
"5b523bdc608e18000184d8a6",47,11,"Read C","Lion","Lion","R2","Related",26,31,"Study","Unrelated","U2",1062,""
"5b523bdc608e18000184d8a6",48,11,"Read C","Cheetah","Cheetah","R2","Related",28,32,"Study","Unrelated","U2",1069,""
"5b523bdc608e18000184d8a6",52,11,"Read C","","","","",NA,0,"FreeRecall","Unrelated","RECALL_Test3",65737,"Giraffe, tiger, cat, zebra, lion, "
"5b523bdc608e18000184d8a6",54,11,"Read C","Computer","Computer","U2","Unrelated",47,47,"Study","Related","R2",9991,""
"5b523bdc608e18000184d8a6",55,11,"Read C","Eye","Eye","U2","Unrelated",48,43,"Study","Related","R2",1333,""
"5b523bdc608e18000184d8a6",56,11,"Read C","Blue","Blue","U2","Unrelated",41,39,"Study","Related","R2",1038,""
"5b523bdc608e18000184d8a6",57,11,"Read C","Sandal","Sandal","U2","Unrelated",37,44,"Study","Related","R2",1064,""
"5b523bdc608e18000184d8a6",58,11,"Read C","Tea","Tea","U2","Unrelated",45,46,"Study","Related","R2",1171,""
"5b523bdc608e18000184d8a6",59,11,"Read C","Lipstick","Lipstick","U2","Unrelated",46,45,"Study","Related","R2",1020,""
"5b523bdc608e18000184d8a6",60,11,"Read C","Viper","Viper","U2","Unrelated",44,38,"Study","Related","R2",1077,""
"5b523bdc608e18000184d8a6",61,11,"Read C","Cold","Cold","U2","Unrelated",40,41,"Study","Related","R2",1049,""
"5b523bdc608e18000184d8a6",62,11,"Read C","Shark","Shark","U2","Unrelated",43,49,"Study","Related","R2",1037,""
"5b523bdc608e18000184d8a6",63,11,"Read C","Tulip","Tulip","U2","Unrelated",39,40,"Study","Related","R2",1002,""
"5b523bdc608e18000184d8a6",64,11,"Read C","Fly","Fly","U2","Unrelated",38,48,"Study","Related","R2",1134,""
"5b523bdc608e18000184d8a6",65,11,"Read C","Cruise","Cruise","U2","Unrelated",42,42,"Study","Related","R2",1002,""
"5b523bdc608e18000184d8a6",69,11,"Read C","","","","",NA,0,"FreeRecall","Related","RECALL_Test4",65803,"Computer, eye, blue, lipstick, shark, teeth, candle, "
"5c59baa95e09ea00015521d9",3,10,"Read B","Kiwi","Kiwi","R1","Related",8,3,"Study","Related","R1",4999,""
"5c59baa95e09ea00015521d9",4,10,"Read B","Plum","Plum","R1","Related",9,2,"Study","Related","R1",4126,""
"5c59baa95e09ea00015521d9",5,10,"Read B","Lemon","Lemon","R1","Related",12,4,"Study","Related","R1",3386,""
"5c59baa95e09ea00015521d9",6,10,"Read B","Apple","Apple","R1","Related",1,7,"Study","Related","R1",8449,""
"5c59baa95e09ea00015521d9",7,10,"Read B","Peach","Peach","R1","Related",6,9,"Study","Related","R1",9389,""
"5c59baa95e09ea00015521d9",8,10,"Read B","Cherry","Cherry","R1","Related",11,5,"Study","Related","R1",2102,""
"5c59baa95e09ea00015521d9",9,10,"Read B","Orange","Orange","R1","Related",2,6,"Study","Related","R1",5529,""
"5c59baa95e09ea00015521d9",10,10,"Read B","Grape","Grape","R1","Related",4,12,"Study","Related","R1",4707,""
"5c59baa95e09ea00015521d9",11,10,"Read B","Strawberry","Strawberry","R1","Related",7,8,"Study","Related","R1",4709,""
"5c59baa95e09ea00015521d9",12,10,"Read B","Mango","Mango","R1","Related",10,13,"Study","Related","R1",10029,""
"5c59baa95e09ea00015521d9",13,10,"Read B","Pear","Pear","R1","Related",5,11,"Study","Related","R1",2092,""
"5c59baa95e09ea00015521d9",14,10,"Read B","Banana","Banana","R1","Related",3,10,"Study","Related","R1",1540,""
"5c59baa95e09ea00015521d9",18,10,"Read B","","","","",NA,0,"FreeRecall","Related","RECALL_Test1",65004,"Kiwi lemon plum apple peach cherry orange banana strawberry mango "
"5c59baa95e09ea00015521d9",20,10,"Read B","Dirt","Dirt","U1","Unrelated",16,21,"Study","Unrelated","U1",3400,""
"5c59baa95e09ea00015521d9",21,10,"Read B","Shirt","Shirt","U1","Unrelated",18,16,"Study","Unrelated","U1",1405,""
"5c59baa95e09ea00015521d9",22,10,"Read B","Mint","Mint","U1","Unrelated",17,18,"Study","Unrelated","U1",3945,""
"5c59baa95e09ea00015521d9",23,10,"Read B","Yellow","Yellow","U1","Unrelated",19,19,"Study","Unrelated","U1",2468,""
"5c59baa95e09ea00015521d9",24,10,"Read B","Hawk","Hawk","U1","Unrelated",24,24,"Study","Unrelated","U1",14386,""
"5c59baa95e09ea00015521d9",25,10,"Read B","Flea","Flea","U1","Unrelated",21,23,"Study","Unrelated","U1",1861,""
"5c59baa95e09ea00015521d9",26,10,"Read B","Frog","Frog","U1","Unrelated",13,14,"Study","Unrelated","U1",1482,""
"5c59baa95e09ea00015521d9",27,10,"Read B","Kayak","Kayak","U1","Unrelated",20,20,"Study","Unrelated","U1",2116,""
"5c59baa95e09ea00015521d9",28,10,"Read B","Bean","Bean","U1","Unrelated",22,17,"Study","Unrelated","U1",2909,""
"5c59baa95e09ea00015521d9",29,10,"Read B","Document","Document","U1","Unrelated",15,15,"Study","Unrelated","U1",1253,""
"5c59baa95e09ea00015521d9",30,10,"Read B","Slow","Slow","U1","Unrelated",23,25,"Study","Unrelated","U1",5323,""
"5c59baa95e09ea00015521d9",31,10,"Read B","Bed","Bed","U1","Unrelated",14,22,"Study","Unrelated","U1",1403,""
"5c59baa95e09ea00015521d9",35,10,"Read B","","","","",NA,0,"FreeRecall","Unrelated","RECALL_Test2",65004,"Dirt shirt slow bed kayak hawk flea bean yellow mint"
"5c59baa95e09ea00015521d9",37,10,"Read B","Window","Window","R2","Related",28,31,"Study","Related","R2",2431,""
"5c59baa95e09ea00015521d9",38,10,"Read B","Attic","Attic","R2","Related",34,26,"Study","Related","R2",1586,""
"5c59baa95e09ea00015521d9",39,10,"Read B","Door","Door","R2","Related",30,29,"Study","Related","R2",1571,""
"5c59baa95e09ea00015521d9",40,10,"Read B","Basement","Basement","R2","Related",26,35,"Study","Related","R2",1149,""
"5c59baa95e09ea00015521d9",41,10,"Read B","Roof","Roof","R2","Related",36,34,"Study","Related","R2",1042,""
"5c59baa95e09ea00015521d9",42,10,"Read B","Floor","Floor","R2","Related",31,28,"Study","Related","R2",2312,""
"5c59baa95e09ea00015521d9",43,10,"Read B","Ceiling","Ceiling","R2","Related",25,30,"Study","Related","R2",1923,""
"5c59baa95e09ea00015521d9",44,10,"Read B","Elevator","Elevator","R2","Related",33,33,"Study","Related","R2",1017,""
"5c59baa95e09ea00015521d9",45,10,"Read B","Bathroom","Bathroom","R2","Related",27,32,"Study","Related","R2",2621,""
"5c59baa95e09ea00015521d9",46,10,"Read B","Hallway","Hallway","R2","Related",35,37,"Study","Related","R2",2337,""
"5c59baa95e09ea00015521d9",47,10,"Read B","Wall","Wall","R2","Related",29,36,"Study","Related","R2",1069,""
"5c59baa95e09ea00015521d9",48,10,"Read B","Stairs","Stairs","R2","Related",32,27,"Study","Related","R2",3386,""
"5c59baa95e09ea00015521d9",52,10,"Read B","","","","",NA,0,"FreeRecall","Related","RECALL_Test3",65004,"Basement walls hallway ceiling loft window door stairs bathroom "
"5c59baa95e09ea00015521d9",54,10,"Read B","Mother","Mother","U2","Unrelated",44,42,"Study","Unrelated","U2",1119,""
"5c59baa95e09ea00015521d9",55,10,"Read B","Cloud","Cloud","U2","Unrelated",40,45,"Study","Unrelated","U2",2134,""
"5c59baa95e09ea00015521d9",56,10,"Read B","Phone","Phone","U2","Unrelated",47,41,"Study","Unrelated","U2",4145,""
"5c59baa95e09ea00015521d9",57,10,"Read B","Rest","Rest","U2","Unrelated",48,44,"Study","Unrelated","U2",2978,""
"5c59baa95e09ea00015521d9",58,10,"Read B","Cook","Cook","U2","Unrelated",42,46,"Study","Unrelated","U2",9070,""
"5c59baa95e09ea00015521d9",59,10,"Read B","Flute","Flute","U2","Unrelated",38,48,"Study","Unrelated","U2",2186,""
"5c59baa95e09ea00015521d9",60,10,"Read B","Drill","Drill","U2","Unrelated",45,38,"Study","Unrelated","U2",2253,""
"5c59baa95e09ea00015521d9",61,10,"Read B","Salt","Salt","U2","Unrelated",39,43,"Study","Unrelated","U2",2707,""
"5c59baa95e09ea00015521d9",62,10,"Read B","Basket","Basket","U2","Unrelated",41,39,"Study","Unrelated","U2",2903,""
"5c59baa95e09ea00015521d9",63,10,"Read B","Fossil","Fossil","U2","Unrelated",43,49,"Study","Unrelated","U2",2533,""
"5c59baa95e09ea00015521d9",64,10,"Read B","Card","Card","U2","Unrelated",37,40,"Study","Unrelated","U2",3761,""
"5c59baa95e09ea00015521d9",65,10,"Read B","Tent","Tent","U2","Unrelated",46,47,"Study","Unrelated","U2",2289,""
"5c59baa95e09ea00015521d9",69,10,"Read B","","","","",NA,0,"FreeRecall","","RECALL_Test4",65004,"Basket mother rest cloud flute drill salt "
"5c92f797803bff0017fef8dd",3,11,"Read C","Glacier","Glacier","R1","Related",12,8,"Study","Unrelated","U1",1706,""
"5c92f797803bff0017fef8dd",4,11,"Read C","Ocean","Ocean","R1","Related",8,11,"Study","Unrelated","U1",1084,""
"5c92f797803bff0017fef8dd",5,11,"Read C","Rock","Rock","R1","Related",5,9,"Study","Unrelated","U1",1202,""
"5c92f797803bff0017fef8dd",6,11,"Read C","Mountain","Mountain","R1","Related",7,10,"Study","Unrelated","U1",1120,""
"5c92f797803bff0017fef8dd",7,11,"Read C","Cave","Cave","R1","Related",11,7,"Study","Unrelated","U1",1225,""
"5c92f797803bff0017fef8dd",8,11,"Read C","Valley","Valley","R1","Related",1,13,"Study","Unrelated","U1",1130,""
"5c92f797803bff0017fef8dd",9,11,"Read C","River","River","R1","Related",2,5,"Study","Unrelated","U1",1039,""
"5c92f797803bff0017fef8dd",10,11,"Read C","Canyon","Canyon","R1","Related",3,6,"Study","Unrelated","U1",1148,""
"5c92f797803bff0017fef8dd",11,11,"Read C","Volcano","Volcano","R1","Related",4,4,"Study","Unrelated","U1",1085,""
"5c92f797803bff0017fef8dd",12,11,"Read C","Lake","Lake","R1","Related",10,12,"Study","Unrelated","U1",1023,""
"5c92f797803bff0017fef8dd",13,11,"Read C","Island","Island","R1","Related",9,3,"Study","Unrelated","U1",1136,""
"5c92f797803bff0017fef8dd",14,11,"Read C","Hill","Hill","R1","Related",6,2,"Study","Unrelated","U1",1015,""
"5c92f797803bff0017fef8dd",18,11,"Read C","","","","",NA,0,"FreeRecall","Unrelated","RECALL_Test1",65001,"Ocean, Mountain, Rock, Cave, Glacier, Canyon"
"5c92f797803bff0017fef8dd",20,11,"Read C","Jeep","Jeep","U1","Unrelated",23,17,"Study","Related","R1",1406,""
"5c92f797803bff0017fef8dd",21,11,"Read C","Parrot","Parrot","U1","Unrelated",21,22,"Study","Related","R1",1111,""
"5c92f797803bff0017fef8dd",22,11,"Read C","Milk","Milk","U1","Unrelated",22,16,"Study","Related","R1",1135,""
"5c92f797803bff0017fef8dd",23,11,"Read C","Student","Student","U1","Unrelated",15,19,"Study","Related","R1",1109,""
"5c92f797803bff0017fef8dd",24,11,"Read C","Guitar","Guitar","U1","Unrelated",19,23,"Study","Related","R1",1219,""
"5c92f797803bff0017fef8dd",25,11,"Read C","Hockey","Hockey","U1","Unrelated",16,20,"Study","Related","R1",1111,""
"5c92f797803bff0017fef8dd",26,11,"Read C","Oxygen","Oxygen","U1","Unrelated",18,25,"Study","Related","R1",1250,""
"5c92f797803bff0017fef8dd",27,11,"Read C","Mayor","Mayor","U1","Unrelated",14,18,"Study","Related","R1",1128,""
"5c92f797803bff0017fef8dd",28,11,"Read C","Dollar","Dollar","U1","Unrelated",20,21,"Study","Related","R1",1082,""
"5c92f797803bff0017fef8dd",29,11,"Read C","Ballet","Ballet","U1","Unrelated",24,24,"Study","Related","R1",1199,""
"5c92f797803bff0017fef8dd",30,11,"Read C","Pants","Pants","U1","Unrelated",17,15,"Study","Related","R1",1183,""
"5c92f797803bff0017fef8dd",31,11,"Read C","Rifle","Rifle","U1","Unrelated",13,14,"Study","Related","R1",1136,""
"5c92f797803bff0017fef8dd",35,11,"Read C","","","","",NA,0,"FreeRecall","Related","RECALL_Test2",65002,"Jeep, Guitar, Oxygen, Rifle, Car, "
"5c92f797803bff0017fef8dd",37,11,"Read C","Lion","Lion","R2","Related",26,26,"Study","Unrelated","U2",2669,""
"5c92f797803bff0017fef8dd",38,11,"Read C","Cow","Cow","R2","Related",36,37,"Study","Unrelated","U2",1047,""
"5c92f797803bff0017fef8dd",39,11,"Read C","Zebra","Zebra","R2","Related",27,27,"Study","Unrelated","U2",1077,""
"5c92f797803bff0017fef8dd",40,11,"Read C","Goat","Goat","R2","Related",30,33,"Study","Unrelated","U2",1526,""
"5c92f797803bff0017fef8dd",41,11,"Read C","Elephant","Elephant","R2","Related",32,36,"Study","Unrelated","U2",2625,""
"5c92f797803bff0017fef8dd",42,11,"Read C","Donkey","Donkey","R2","Related",34,28,"Study","Unrelated","U2",1078,""
"5c92f797803bff0017fef8dd",43,11,"Read C","Bear","Bear","R2","Related",35,29,"Study","Unrelated","U2",1069,""
"5c92f797803bff0017fef8dd",44,11,"Read C","Tiger","Tiger","R2","Related",25,30,"Study","Unrelated","U2",4728,""
"5c92f797803bff0017fef8dd",45,11,"Read C","Cat","Cat","R2","Related",33,32,"Study","Unrelated","U2",1014,""
"5c92f797803bff0017fef8dd",46,11,"Read C","Girraffe","Girraffe","R2","Related",31,31,"Study","Unrelated","U2",1095,""
"5c92f797803bff0017fef8dd",47,11,"Read C","Cheetah","Cheetah","R2","Related",28,35,"Study","Unrelated","U2",1286,""
"5c92f797803bff0017fef8dd",48,11,"Read C","Wolf","Wolf","R2","Related",29,34,"Study","Unrelated","U2",1094,""
"5c92f797803bff0017fef8dd",52,11,"Read C","","","","",NA,0,"FreeRecall","Unrelated","RECALL_Test3",65001,"Lion, cow, goat, donkey, bear, wolf, cat, tiger"
"5c92f797803bff0017fef8dd",54,11,"Read C","Fly","Fly","U2","Unrelated",38,39,"Study","Related","R2",1639,""
"5c92f797803bff0017fef8dd",55,11,"Read C","Computer","Computer","U2","Unrelated",47,46,"Study","Related","R2",4881,""
"5c92f797803bff0017fef8dd",56,11,"Read C","Viper","Viper","U2","Unrelated",44,44,"Study","Related","R2",1102,""
"5c92f797803bff0017fef8dd",57,11,"Read C","Sandal","Sandal","U2","Unrelated",37,47,"Study","Related","R2",1217,""
"5c92f797803bff0017fef8dd",58,11,"Read C","Eye","Eye","U2","Unrelated",48,40,"Study","Related","R2",1108,""
"5c92f797803bff0017fef8dd",59,11,"Read C","Lipstick","Lipstick","U2","Unrelated",46,43,"Study","Related","R2",4860,""
"5c92f797803bff0017fef8dd",60,11,"Read C","Tulip","Tulip","U2","Unrelated",39,49,"Study","Related","R2",1417,""
"5c92f797803bff0017fef8dd",61,11,"Read C","Shark","Shark","U2","Unrelated",43,45,"Study","Related","R2",1296,""
"5c92f797803bff0017fef8dd",62,11,"Read C","Cruise","Cruise","U2","Unrelated",42,38,"Study","Related","R2",1116,""
"5c92f797803bff0017fef8dd",63,11,"Read C","Blue","Blue","U2","Unrelated",41,48,"Study","Related","R2",4920,""
"5c92f797803bff0017fef8dd",64,11,"Read C","Cold","Cold","U2","Unrelated",40,42,"Study","Related","R2",1052,""
"5c92f797803bff0017fef8dd",65,11,"Read C","Tea","Tea","U2","Unrelated",45,41,"Study","Related","R2",1016,""
"5c92f797803bff0017fef8dd",69,11,"Read C","","","","",NA,0,"FreeRecall","Related","RECALL_Test4",65911,"Fly, viper, eye, tulip, blue, cold, tea, shark, computer"
"5cb67a7ab73e8a001507fae5",3,9,"Read A","Mountain","Mountain","R1","Related",7,8,"Study","Related","R1",8075,""
"5cb67a7ab73e8a001507fae5",4,9,"Read A","Island","Island","R1","Related",9,2,"Study","Related","R1",4616,""
"5cb67a7ab73e8a001507fae5",5,9,"Read A","Cave","Cave","R1","Related",11,9,"Study","Related","R1",3975,""
"5cb67a7ab73e8a001507fae5",6,9,"Read A","Glacier","Glacier","R1","Related",12,10,"Study","Related","R1",4916,""
"5cb67a7ab73e8a001507fae5",7,9,"Read A","Hill","Hill","R1","Related",6,6,"Study","Related","R1",4241,""
"5cb67a7ab73e8a001507fae5",8,9,"Read A","Canyon","Canyon","R1","Related",3,12,"Study","Related","R1",4574,""
"5cb67a7ab73e8a001507fae5",9,9,"Read A","Rock","Rock","R1","Related",5,5,"Study","Related","R1",4597,""
"5cb67a7ab73e8a001507fae5",10,9,"Read A","Valley","Valley","R1","Related",1,11,"Study","Related","R1",6146,""
"5cb67a7ab73e8a001507fae5",11,9,"Read A","Ocean","Ocean","R1","Related",8,13,"Study","Related","R1",4582,""
"5cb67a7ab73e8a001507fae5",12,9,"Read A","Volcano","Volcano","R1","Related",4,3,"Study","Related","R1",5086,""
"5cb67a7ab73e8a001507fae5",13,9,"Read A","Lake","Lake","R1","Related",10,7,"Study","Related","R1",4584,""
"5cb67a7ab73e8a001507fae5",14,9,"Read A","River","River","R1","Related",2,4,"Study","Related","R1",4396,""
"5cb67a7ab73e8a001507fae5",18,9,"Read A","","","","",NA,0,"FreeRecall","Related","RECALL_Test1",65001,"mountain, island, cave, glacier, hill, canyon, ocean, volcano, rock"
"5cb67a7ab73e8a001507fae5",20,9,"Read A","Pants","Pants","U1","Unrelated",17,25,"Study","Unrelated","U1",6795,""
"5cb67a7ab73e8a001507fae5",21,9,"Read A","Dollar","Dollar","U1","Unrelated",20,17,"Study","Unrelated","U1",4043,""
"5cb67a7ab73e8a001507fae5",22,9,"Read A","Milk","Milk","U1","Unrelated",22,22,"Study","Unrelated","U1",4192,""
"5cb67a7ab73e8a001507fae5",23,9,"Read A","Ballet","Ballet","U1","Unrelated",24,14,"Study","Unrelated","U1",5616,""
"5cb67a7ab73e8a001507fae5",24,9,"Read A","Jeep","Jeep","U1","Unrelated",23,24,"Study","Unrelated","U1",4254,""
"5cb67a7ab73e8a001507fae5",25,9,"Read A","Parrot","Parrot","U1","Unrelated",21,19,"Study","Unrelated","U1",4673,""
"5cb67a7ab73e8a001507fae5",26,9,"Read A","Rifle","Rifle","U1","Unrelated",13,18,"Study","Unrelated","U1",4298,""
"5cb67a7ab73e8a001507fae5",27,9,"Read A","Student","Student","U1","Unrelated",15,16,"Study","Unrelated","U1",4957,""
"5cb67a7ab73e8a001507fae5",28,9,"Read A","Mayor","Mayor","U1","Unrelated",14,23,"Study","Unrelated","U1",5910,""
"5cb67a7ab73e8a001507fae5",29,9,"Read A","Hockey","Hockey","U1","Unrelated",16,15,"Study","Unrelated","U1",4763,""
"5cb67a7ab73e8a001507fae5",30,9,"Read A","Oxygen","Oxygen","U1","Unrelated",18,20,"Study","Unrelated","U1",5188,""
"5cb67a7ab73e8a001507fae5",31,9,"Read A","Guitar","Guitar","U1","Unrelated",19,21,"Study","Unrelated","U1",4918,""
"5cb67a7ab73e8a001507fae5",35,9,"Read A","","","","",NA,0,"FreeRecall","Unrelated","RECALL_Test2",65000,"dollar, milk, jeep, parrot, hockey, mayor, pants"
"5cb67a7ab73e8a001507fae5",37,9,"Read A","Goat","Goat","R2","Related",30,32,"Study","Related","R2",5962,""
"5cb67a7ab73e8a001507fae5",38,9,"Read A","Cat","Cat","R2","Related",33,36,"Study","Related","R2",3242,""
"5cb67a7ab73e8a001507fae5",39,9,"Read A","Elephant","Elephant","R2","Related",32,26,"Study","Related","R2",5184,""
"5cb67a7ab73e8a001507fae5",40,9,"Read A","Wolf","Wolf","R2","Related",29,29,"Study","Related","R2",4181,""
"5cb67a7ab73e8a001507fae5",41,9,"Read A","Donkey","Donkey","R2","Related",34,30,"Study","Related","R2",4544,""
"5cb67a7ab73e8a001507fae5",42,9,"Read A","Zebra","Zebra","R2","Related",27,35,"Study","Related","R2",3880,""
"5cb67a7ab73e8a001507fae5",43,9,"Read A","Lion","Lion","R2","Related",26,28,"Study","Related","R2",3492,""
"5cb67a7ab73e8a001507fae5",44,9,"Read A","Cow","Cow","R2","Related",36,37,"Study","Related","R2",3096,""
"5cb67a7ab73e8a001507fae5",45,9,"Read A","Cheetah","Cheetah","R2","Related",28,34,"Study","Related","R2",6243,""
"5cb67a7ab73e8a001507fae5",46,9,"Read A","Tiger","Tiger","R2","Related",25,31,"Study","Related","R2",4138,""
"5cb67a7ab73e8a001507fae5",47,9,"Read A","Girraffe","Girraffe","R2","Related",31,33,"Study","Related","R2",6525,""
"5cb67a7ab73e8a001507fae5",48,9,"Read A","Bear","Bear","R2","Related",35,27,"Study","Related","R2",3856,""
"5cb67a7ab73e8a001507fae5",52,9,"Read A","","","","",NA,0,"FreeRecall","Related","RECALL_Test3",65001,"goat, cat, elephant, wolf, donkey, zebra, cow, tiger, cheetah, bear"
"5cb67a7ab73e8a001507fae5",54,9,"Read A","Viper","Viper","U2","Unrelated",44,38,"Study","Unrelated","U2",6458,""
"5cb67a7ab73e8a001507fae5",55,9,"Read A","Tea","Tea","U2","Unrelated",45,46,"Study","Unrelated","U2",3150,""
"5cb67a7ab73e8a001507fae5",56,9,"Read A","Shark","Shark","U2","Unrelated",43,49,"Study","Unrelated","U2",4140,""
"5cb67a7ab73e8a001507fae5",57,9,"Read A","Blue","Blue","U2","Unrelated",41,41,"Study","Unrelated","U2",3773,""
"5cb67a7ab73e8a001507fae5",58,9,"Read A","Tulip","Tulip","U2","Unrelated",39,48,"Study","Unrelated","U2",5226,""
"5cb67a7ab73e8a001507fae5",59,9,"Read A","Eye","Eye","U2","Unrelated",48,43,"Study","Unrelated","U2",3826,""
"5cb67a7ab73e8a001507fae5",60,9,"Read A","Sandal","Sandal","U2","Unrelated",37,45,"Study","Unrelated","U2",4613,""
"5cb67a7ab73e8a001507fae5",61,9,"Read A","Computer","Computer","U2","Unrelated",47,39,"Study","Unrelated","U2",5041,""
"5cb67a7ab73e8a001507fae5",62,9,"Read A","Cruise","Cruise","U2","Unrelated",42,44,"Study","Unrelated","U2",4571,""
"5cb67a7ab73e8a001507fae5",63,9,"Read A","Lipstick","Lipstick","U2","Unrelated",46,40,"Study","Unrelated","U2",5430,""
"5cb67a7ab73e8a001507fae5",64,9,"Read A","Fly","Fly","U2","Unrelated",38,47,"Study","Unrelated","U2",3514,""
"5cb67a7ab73e8a001507fae5",65,9,"Read A","Cold","Cold","U2","Unrelated",40,42,"Study","Unrelated","U2",3640,""
"5cb67a7ab73e8a001507fae5",69,9,"Read A","","","","",NA,0,"FreeRecall","","RECALL_Test4",65001,"tea, shark, tulip, eye, computer, cruise, fly, cold"
"5d68c8aa40524c00189e8ac2",3,9,"Read A","River","River","R1","Related",2,10,"Study","Related","R1",11499,""
"5d68c8aa40524c00189e8ac2",4,9,"Read A","Mountain","Mountain","R1","Related",7,11,"Study","Related","R1",9263,""
"5d68c8aa40524c00189e8ac2",5,9,"Read A","Hill","Hill","R1","Related",6,8,"Study","Related","R1",8771,""
"5d68c8aa40524c00189e8ac2",6,9,"Read A","Ocean","Ocean","R1","Related",8,2,"Study","Related","R1",10079,""
"5d68c8aa40524c00189e8ac2",7,9,"Read A","Lake","Lake","R1","Related",10,13,"Study","Related","R1",13412,""
"5d68c8aa40524c00189e8ac2",8,9,"Read A","Valley","Valley","R1","Related",1,3,"Study","Related","R1",8591,""
"5d68c8aa40524c00189e8ac2",9,9,"Read A","Glacier","Glacier","R1","Related",12,12,"Study","Related","R1",8291,""
"5d68c8aa40524c00189e8ac2",10,9,"Read A","Volcano","Volcano","R1","Related",4,9,"Study","Related","R1",5439,""
"5d68c8aa40524c00189e8ac2",11,9,"Read A","Cave","Cave","R1","Related",11,6,"Study","Related","R1",6210,""
"5d68c8aa40524c00189e8ac2",12,9,"Read A","Island","Island","R1","Related",9,5,"Study","Related","R1",12807,""
"5d68c8aa40524c00189e8ac2",13,9,"Read A","Canyon","Canyon","R1","Related",3,4,"Study","Related","R1",14508,""
"5d68c8aa40524c00189e8ac2",14,9,"Read A","Rock","Rock","R1","Related",5,7,"Study","Related","R1",6793,""
"5d68c8aa40524c00189e8ac2",18,9,"Read A","","","","",NA,0,"FreeRecall","Related","RECALL_Test1",65001,"River, Ocean, Lake, Valley, Glacier, Volcano, Cave, Island, Canyon, Rock"
"5d68c8aa40524c00189e8ac2",20,9,"Read A","Guitar","Guitar","U1","Unrelated",19,21,"Study","Unrelated","U1",4898,""
"5d68c8aa40524c00189e8ac2",21,9,"Read A","Dollar","Dollar","U1","Unrelated",20,15,"Study","Unrelated","U1",8729,""
"5d68c8aa40524c00189e8ac2",22,9,"Read A","Student","Student","U1","Unrelated",15,22,"Study","Unrelated","U1",9085,""
"5d68c8aa40524c00189e8ac2",23,9,"Read A","Milk","Milk","U1","Unrelated",22,14,"Study","Unrelated","U1",6073,""
"5d68c8aa40524c00189e8ac2",24,9,"Read A","Pants","Pants","U1","Unrelated",17,17,"Study","Unrelated","U1",7867,""
"5d68c8aa40524c00189e8ac2",25,9,"Read A","Parrot","Parrot","U1","Unrelated",21,16,"Study","Unrelated","U1",5991,""
"5d68c8aa40524c00189e8ac2",26,9,"Read A","Hockey","Hockey","U1","Unrelated",16,23,"Study","Unrelated","U1",8480,""
"5d68c8aa40524c00189e8ac2",27,9,"Read A","Mayor","Mayor","U1","Unrelated",14,19,"Study","Unrelated","U1",8772,""
"5d68c8aa40524c00189e8ac2",28,9,"Read A","Oxygen","Oxygen","U1","Unrelated",18,18,"Study","Unrelated","U1",9764,""
"5d68c8aa40524c00189e8ac2",29,9,"Read A","Rifle","Rifle","U1","Unrelated",13,20,"Study","Unrelated","U1",20859,""
"5d68c8aa40524c00189e8ac2",30,9,"Read A","Ballet","Ballet","U1","Unrelated",24,24,"Study","Unrelated","U1",7556,""
"5d68c8aa40524c00189e8ac2",31,9,"Read A","Jeep","Jeep","U1","Unrelated",23,25,"Study","Unrelated","U1",4657,""
"5d68c8aa40524c00189e8ac2",35,9,"Read A","","","","",NA,0,"FreeRecall","Unrelated","RECALL_Test2",65000,"Guitar, Dollar, Student, Milk, Pants, Parrot, Hockey, Mayor, Oxygen, Rifle, Ballet, Jeep"
"5d68c8aa40524c00189e8ac2",37,9,"Read A","Bear","Bear","R2","Related",35,32,"Study","Related","R2",7122,""
"5d68c8aa40524c00189e8ac2",38,9,"Read A","Cat","Cat","R2","Related",33,26,"Study","Related","R2",5311,""
"5d68c8aa40524c00189e8ac2",39,9,"Read A","Goat","Goat","R2","Related",30,36,"Study","Related","R2",8131,""
"5d68c8aa40524c00189e8ac2",40,9,"Read A","Elephant","Elephant","R2","Related",32,37,"Study","Related","R2",7892,""
"5d68c8aa40524c00189e8ac2",41,9,"Read A","Wolf","Wolf","R2","Related",29,35,"Study","Related","R2",15715,""
"5d68c8aa40524c00189e8ac2",42,9,"Read A","Zebra","Zebra","R2","Related",27,30,"Study","Related","R2",7982,""
"5d68c8aa40524c00189e8ac2",43,9,"Read A","Cheetah","Cheetah","R2","Related",28,27,"Study","Related","R2",13413,""
"5d68c8aa40524c00189e8ac2",44,9,"Read A","Cow","Cow","R2","Related",36,28,"Study","Related","R2",10913,""
"5d68c8aa40524c00189e8ac2",45,9,"Read A","Girraffe","Girraffe","R2","Related",31,31,"Study","Related","R2",9628,""
"5d68c8aa40524c00189e8ac2",46,9,"Read A","Tiger","Tiger","R2","Related",25,33,"Study","Related","R2",14997,""
"5d68c8aa40524c00189e8ac2",47,9,"Read A","Donkey","Donkey","R2","Related",34,29,"Study","Related","R2",10848,""
"5d68c8aa40524c00189e8ac2",48,9,"Read A","Lion","Lion","R2","Related",26,34,"Study","Related","R2",9915,""
"5d68c8aa40524c00189e8ac2",52,9,"Read A","","","","",NA,0,"FreeRecall","Related","RECALL_Test3",65001,"Bear, Cat, Goat, Lion, Cheetah, Tiger, Elephant, Giraffe"
"5d68c8aa40524c00189e8ac2",54,9,"Read A","Viper","Viper","U2","Unrelated",44,42,"Study","Unrelated","U2",2321,""
"5d68c8aa40524c00189e8ac2",55,9,"Read A","Tulip","Tulip","U2","Unrelated",39,47,"Study","Unrelated","U2",7045,""
"5d68c8aa40524c00189e8ac2",56,9,"Read A","Sandal","Sandal","U2","Unrelated",37,49,"Study","Unrelated","U2",5302,""
"5d68c8aa40524c00189e8ac2",57,9,"Read A","Cold","Cold","U2","Unrelated",40,48,"Study","Unrelated","U2",4638,""
"5d68c8aa40524c00189e8ac2",58,9,"Read A","Computer","Computer","U2","Unrelated",47,38,"Study","Unrelated","U2",5480,""
"5d68c8aa40524c00189e8ac2",59,9,"Read A","Eye","Eye","U2","Unrelated",48,45,"Study","Unrelated","U2",7569,""
"5d68c8aa40524c00189e8ac2",60,9,"Read A","Fly","Fly","U2","Unrelated",38,44,"Study","Unrelated","U2",6571,""
"5d68c8aa40524c00189e8ac2",61,9,"Read A","Cruise","Cruise","U2","Unrelated",42,39,"Study","Unrelated","U2",4788,""
"5d68c8aa40524c00189e8ac2",62,9,"Read A","Tea","Tea","U2","Unrelated",45,41,"Study","Unrelated","U2",9390,""
"5d68c8aa40524c00189e8ac2",63,9,"Read A","Blue","Blue","U2","Unrelated",41,40,"Study","Unrelated","U2",5167,""
"5d68c8aa40524c00189e8ac2",64,9,"Read A","Shark","Shark","U2","Unrelated",43,46,"Study","Unrelated","U2",4616,""
"5d68c8aa40524c00189e8ac2",65,9,"Read A","Lipstick","Lipstick","U2","Unrelated",46,43,"Study","Unrelated","U2",4687,""
"5d68c8aa40524c00189e8ac2",69,9,"Read A","","","","",NA,0,"FreeRecall","","RECALL_Test4",65001,"Tea, Blue, Shark"
"5dfab99508267580dcdafe05",3,11,"Read C","Canyon","Canyon","R1","Related",3,9,"Study","Unrelated","U1",2940,""
"5dfab99508267580dcdafe05",4,11,"Read C","Glacier","Glacier","R1","Related",12,8,"Study","Unrelated","U1",1142,""
"5dfab99508267580dcdafe05",5,11,"Read C","Mountain","Mountain","R1","Related",7,12,"Study","Unrelated","U1",2230,""
"5dfab99508267580dcdafe05",6,11,"Read C","River","River","R1","Related",2,3,"Study","Unrelated","U1",1808,""
"5dfab99508267580dcdafe05",7,11,"Read C","Cave","Cave","R1","Related",11,5,"Study","Unrelated","U1",1770,""
"5dfab99508267580dcdafe05",8,11,"Read C","Rock","Rock","R1","Related",5,4,"Study","Unrelated","U1",1740,""
"5dfab99508267580dcdafe05",9,11,"Read C","Island","Island","R1","Related",9,2,"Study","Unrelated","U1",1478,""
"5dfab99508267580dcdafe05",10,11,"Read C","Ocean","Ocean","R1","Related",8,10,"Study","Unrelated","U1",1593,""
"5dfab99508267580dcdafe05",11,11,"Read C","Volcano","Volcano","R1","Related",4,13,"Study","Unrelated","U1",1601,""
"5dfab99508267580dcdafe05",12,11,"Read C","Valley","Valley","R1","Related",1,6,"Study","Unrelated","U1",1450,""
"5dfab99508267580dcdafe05",13,11,"Read C","Hill","Hill","R1","Related",6,11,"Study","Unrelated","U1",1485,""
"5dfab99508267580dcdafe05",14,11,"Read C","Lake","Lake","R1","Related",10,7,"Study","Unrelated","U1",1512,""
"5dfab99508267580dcdafe05",18,11,"Read C","","","","",NA,0,"FreeRecall","Unrelated","RECALL_Test1",65006,"mountain lake canyon glacier valley ocean hill cave cliff rock volcano "
"5dfab99508267580dcdafe05",20,11,"Read C","Student","Student","U1","Unrelated",15,23,"Study","Related","R1",1713,""
"5dfab99508267580dcdafe05",21,11,"Read C","Dollar","Dollar","U1","Unrelated",20,20,"Study","Related","R1",1623,""
"5dfab99508267580dcdafe05",22,11,"Read C","Parrot","Parrot","U1","Unrelated",21,22,"Study","Related","R1",1472,""
"5dfab99508267580dcdafe05",23,11,"Read C","Jeep","Jeep","U1","Unrelated",23,21,"Study","Related","R1",1551,""
"5dfab99508267580dcdafe05",24,11,"Read C","Oxygen","Oxygen","U1","Unrelated",18,25,"Study","Related","R1",1523,""
"5dfab99508267580dcdafe05",25,11,"Read C","Guitar","Guitar","U1","Unrelated",19,18,"Study","Related","R1",1538,""
"5dfab99508267580dcdafe05",26,11,"Read C","Mayor","Mayor","U1","Unrelated",14,16,"Study","Related","R1",1576,""
"5dfab99508267580dcdafe05",27,11,"Read C","Pants","Pants","U1","Unrelated",17,19,"Study","Related","R1",1486,""
"5dfab99508267580dcdafe05",28,11,"Read C","Milk","Milk","U1","Unrelated",22,24,"Study","Related","R1",1487,""
"5dfab99508267580dcdafe05",29,11,"Read C","Hockey","Hockey","U1","Unrelated",16,15,"Study","Related","R1",1553,""
"5dfab99508267580dcdafe05",30,11,"Read C","Rifle","Rifle","U1","Unrelated",13,17,"Study","Related","R1",1473,""
"5dfab99508267580dcdafe05",31,11,"Read C","Ballet","Ballet","U1","Unrelated",24,14,"Study","Related","R1",1434,""
"5dfab99508267580dcdafe05",35,11,"Read C","","","","",NA,0,"FreeRecall","Related","RECALL_Test2",65004,"parrot student ballet mayor hockey diner pen Jeep "
"5dfab99508267580dcdafe05",37,11,"Read C","Cow","Cow","R2","Related",36,31,"Study","Unrelated","U2",1485,""
"5dfab99508267580dcdafe05",38,11,"Read C","Wolf","Wolf","R2","Related",29,28,"Study","Unrelated","U2",1496,""
"5dfab99508267580dcdafe05",39,11,"Read C","Elephant","Elephant","R2","Related",32,33,"Study","Unrelated","U2",1469,""
"5dfab99508267580dcdafe05",40,11,"Read C","Cheetah","Cheetah","R2","Related",28,29,"Study","Unrelated","U2",1488,""
"5dfab99508267580dcdafe05",41,11,"Read C","Donkey","Donkey","R2","Related",34,35,"Study","Unrelated","U2",1529,""
"5dfab99508267580dcdafe05",42,11,"Read C","Goat","Goat","R2","Related",30,36,"Study","Unrelated","U2",1421,""
"5dfab99508267580dcdafe05",43,11,"Read C","Zebra","Zebra","R2","Related",27,27,"Study","Unrelated","U2",1415,""
"5dfab99508267580dcdafe05",44,11,"Read C","Tiger","Tiger","R2","Related",25,32,"Study","Unrelated","U2",1445,""
"5dfab99508267580dcdafe05",45,11,"Read C","Lion","Lion","R2","Related",26,37,"Study","Unrelated","U2",1441,""
"5dfab99508267580dcdafe05",46,11,"Read C","Bear","Bear","R2","Related",35,34,"Study","Unrelated","U2",1439,""
"5dfab99508267580dcdafe05",47,11,"Read C","Cat","Cat","R2","Related",33,26,"Study","Unrelated","U2",1556,""
"5dfab99508267580dcdafe05",48,11,"Read C","Girraffe","Girraffe","R2","Related",31,30,"Study","Unrelated","U2",1493,""
"5dfab99508267580dcdafe05",52,11,"Read C","","","","",NA,0,"FreeRecall","Unrelated","RECALL_Test3",65006,"lion tiger bear cat giraffe elephant cow horse goat cheetah pig "
"5dfab99508267580dcdafe05",54,11,"Read C","Eye","Eye","U2","Unrelated",48,39,"Study","Related","R2",1466,""
"5dfab99508267580dcdafe05",55,11,"Read C","Blue","Blue","U2","Unrelated",41,40,"Study","Related","R2",1465,""
"5dfab99508267580dcdafe05",56,11,"Read C","Lipstick","Lipstick","U2","Unrelated",46,43,"Study","Related","R2",1435,""
"5dfab99508267580dcdafe05",57,11,"Read C","Sandal","Sandal","U2","Unrelated",37,44,"Study","Related","R2",1439,""
"5dfab99508267580dcdafe05",58,11,"Read C","Shark","Shark","U2","Unrelated",43,47,"Study","Related","R2",1544,""
"5dfab99508267580dcdafe05",59,11,"Read C","Fly","Fly","U2","Unrelated",38,48,"Study","Related","R2",1410,""
"5dfab99508267580dcdafe05",60,11,"Read C","Cold","Cold","U2","Unrelated",40,49,"Study","Related","R2",1435,""
"5dfab99508267580dcdafe05",61,11,"Read C","Viper","Viper","U2","Unrelated",44,41,"Study","Related","R2",1438,""
"5dfab99508267580dcdafe05",62,11,"Read C","Tulip","Tulip","U2","Unrelated",39,46,"Study","Related","R2",1443,""
"5dfab99508267580dcdafe05",63,11,"Read C","Tea","Tea","U2","Unrelated",45,45,"Study","Related","R2",1408,""
"5dfab99508267580dcdafe05",64,11,"Read C","Cruise","Cruise","U2","Unrelated",42,38,"Study","Related","R2",1441,""
"5dfab99508267580dcdafe05",65,11,"Read C","Computer","Computer","U2","Unrelated",47,42,"Study","Related","R2",1769,""
"5dfab99508267580dcdafe05",69,11,"Read C","","","","",NA,0,"FreeRecall","Related","RECALL_Test4",65006,"shark blue viper tulip sandal lipstick cruise fly computer eye "
"5e10a618a1f36176c71669ac",3,10,"Read B","Pear","Pear","R1","Related",5,5,"Study","Related","R1",7881,""
"5e10a618a1f36176c71669ac",4,10,"Read B","Grape","Grape","R1","Related",4,13,"Study","Related","R1",3725,""
"5e10a618a1f36176c71669ac",5,10,"Read B","Cherry","Cherry","R1","Related",11,9,"Study","Related","R1",2082,""
"5e10a618a1f36176c71669ac",6,10,"Read B","Strawberry","Strawberry","R1","Related",7,3,"Study","Related","R1",2212,""
"5e10a618a1f36176c71669ac",7,10,"Read B","Mango","Mango","R1","Related",10,11,"Study","Related","R1",1935,""
"5e10a618a1f36176c71669ac",8,10,"Read B","Lemon","Lemon","R1","Related",12,12,"Study","Related","R1",1947,""
"5e10a618a1f36176c71669ac",9,10,"Read B","Apple","Apple","R1","Related",1,7,"Study","Related","R1",2132,""
"5e10a618a1f36176c71669ac",10,10,"Read B","Peach","Peach","R1","Related",6,6,"Study","Related","R1",1960,""
"5e10a618a1f36176c71669ac",11,10,"Read B","Kiwi","Kiwi","R1","Related",8,4,"Study","Related","R1",1763,""
"5e10a618a1f36176c71669ac",12,10,"Read B","Orange","Orange","R1","Related",2,2,"Study","Related","R1",1889,""
"5e10a618a1f36176c71669ac",13,10,"Read B","Banana","Banana","R1","Related",3,8,"Study","Related","R1",1664,""
"5e10a618a1f36176c71669ac",14,10,"Read B","Plum","Plum","R1","Related",9,10,"Study","Related","R1",1727,""
"5e10a618a1f36176c71669ac",18,10,"Read B","","","","",NA,0,"FreeRecall","Related","RECALL_Test1",65001,"banana, peach, cherries, orange, pear, mango, grapes, strawberries, kiwi, apple"
"5e10a618a1f36176c71669ac",20,10,"Read B","Kayak","Kayak","U1","Unrelated",20,23,"Study","Unrelated","U1",2507,""
"5e10a618a1f36176c71669ac",21,10,"Read B","Flea","Flea","U1","Unrelated",21,19,"Study","Unrelated","U1",3278,""
"5e10a618a1f36176c71669ac",22,10,"Read B","Frog","Frog","U1","Unrelated",13,14,"Study","Unrelated","U1",3008,""
"5e10a618a1f36176c71669ac",23,10,"Read B","Shirt","Shirt","U1","Unrelated",18,25,"Study","Unrelated","U1",4718,""
"5e10a618a1f36176c71669ac",24,10,"Read B","Slow","Slow","U1","Unrelated",23,16,"Study","Unrelated","U1",3124,""
"5e10a618a1f36176c71669ac",25,10,"Read B","Dirt","Dirt","U1","Unrelated",16,22,"Study","Unrelated","U1",3789,""
"5e10a618a1f36176c71669ac",26,10,"Read B","Mint","Mint","U1","Unrelated",17,18,"Study","Unrelated","U1",2737,""
"5e10a618a1f36176c71669ac",27,10,"Read B","Bed","Bed","U1","Unrelated",14,24,"Study","Unrelated","U1",2103,""
"5e10a618a1f36176c71669ac",28,10,"Read B","Yellow","Yellow","U1","Unrelated",19,20,"Study","Unrelated","U1",2281,""
"5e10a618a1f36176c71669ac",29,10,"Read B","Hawk","Hawk","U1","Unrelated",24,15,"Study","Unrelated","U1",2015,""
"5e10a618a1f36176c71669ac",30,10,"Read B","Document","Document","U1","Unrelated",15,21,"Study","Unrelated","U1",2236,""
"5e10a618a1f36176c71669ac",31,10,"Read B","Bean","Bean","U1","Unrelated",22,17,"Study","Unrelated","U1",2244,""
"5e10a618a1f36176c71669ac",35,10,"Read B","","","","",NA,0,"FreeRecall","Unrelated","RECALL_Test2",65003,"Kayak, flea, shirt, bed, document, frog, hawk, mint, "
"5e10a618a1f36176c71669ac",37,10,"Read B","Bathroom","Bathroom","R2","Related",27,26,"Study","Related","R2",2497,""
"5e10a618a1f36176c71669ac",38,10,"Read B","Roof","Roof","R2","Related",36,27,"Study","Related","R2",1905,""
"5e10a618a1f36176c71669ac",39,10,"Read B","Floor","Floor","R2","Related",31,33,"Study","Related","R2",1389,""
"5e10a618a1f36176c71669ac",40,10,"Read B","Attic","Attic","R2","Related",34,36,"Study","Related","R2",1666,""
"5e10a618a1f36176c71669ac",41,10,"Read B","Window","Window","R2","Related",28,35,"Study","Related","R2",1492,""
"5e10a618a1f36176c71669ac",42,10,"Read B","Elevator","Elevator","R2","Related",33,30,"Study","Related","R2",2050,""
"5e10a618a1f36176c71669ac",43,10,"Read B","Ceiling","Ceiling","R2","Related",25,29,"Study","Related","R2",1532,""
"5e10a618a1f36176c71669ac",44,10,"Read B","Stairs","Stairs","R2","Related",32,34,"Study","Related","R2",1554,""
"5e10a618a1f36176c71669ac",45,10,"Read B","Wall","Wall","R2","Related",29,31,"Study","Related","R2",1713,""
"5e10a618a1f36176c71669ac",46,10,"Read B","Basement","Basement","R2","Related",26,28,"Study","Related","R2",1686,""
"5e10a618a1f36176c71669ac",47,10,"Read B","Hallway","Hallway","R2","Related",35,37,"Study","Related","R2",1498,""
"5e10a618a1f36176c71669ac",48,10,"Read B","Door","Door","R2","Related",30,32,"Study","Related","R2",1643,""
"5e10a618a1f36176c71669ac",52,10,"Read B","","","","",NA,0,"FreeRecall","Related","RECALL_Test3",65002,"bathroom, attic, basement, hall, window, ceiling, door, floor, elevator, wall"
"5e10a618a1f36176c71669ac",54,10,"Read B","Drill","Drill","U2","Unrelated",45,41,"Study","Unrelated","U2",1972,""
"5e10a618a1f36176c71669ac",55,10,"Read B","Phone","Phone","U2","Unrelated",47,42,"Study","Unrelated","U2",2780,""
"5e10a618a1f36176c71669ac",56,10,"Read B","Salt","Salt","U2","Unrelated",39,47,"Study","Unrelated","U2",2358,""
"5e10a618a1f36176c71669ac",57,10,"Read B","Cloud","Cloud","U2","Unrelated",40,48,"Study","Unrelated","U2",2353,""
"5e10a618a1f36176c71669ac",58,10,"Read B","Fossil","Fossil","U2","Unrelated",43,40,"Study","Unrelated","U2",2822,""
"5e10a618a1f36176c71669ac",59,10,"Read B","Rest","Rest","U2","Unrelated",48,43,"Study","Unrelated","U2",1844,""
"5e10a618a1f36176c71669ac",60,10,"Read B","Flute","Flute","U2","Unrelated",38,45,"Study","Unrelated","U2",1800,""
"5e10a618a1f36176c71669ac",61,10,"Read B","Tent","Tent","U2","Unrelated",46,38,"Study","Unrelated","U2",1791,""
"5e10a618a1f36176c71669ac",62,10,"Read B","Card","Card","U2","Unrelated",37,49,"Study","Unrelated","U2",2156,""
"5e10a618a1f36176c71669ac",63,10,"Read B","Mother","Mother","U2","Unrelated",44,44,"Study","Unrelated","U2",2440,""
"5e10a618a1f36176c71669ac",64,10,"Read B","Basket","Basket","U2","Unrelated",41,46,"Study","Unrelated","U2",2063,""
"5e10a618a1f36176c71669ac",65,10,"Read B","Cook","Cook","U2","Unrelated",42,39,"Study","Unrelated","U2",1652,""
"5e10a618a1f36176c71669ac",69,10,"Read B","","","","",NA,0,"FreeRecall","","RECALL_Test4",65002,"basket, cook, mother, drill, salt, kitchen, tent, "
"5e97012e6074fb190b2e4",3,9,"Read A","Glacier","Glacier","R1","Related",12,4,"Study","Related","R1",2804,""
"5e97012e6074fb190b2e4",4,9,"Read A","Rock","Rock","R1","Related",5,3,"Study","Related","R1",2076,""
"5e97012e6074fb190b2e4",5,9,"Read A","Canyon","Canyon","R1","Related",3,6,"Study","Related","R1",1455,""
"5e97012e6074fb190b2e4",6,9,"Read A","Mountain","Mountain","R1","Related",7,12,"Study","Related","R1",1140,""
"5e97012e6074fb190b2e4",7,9,"Read A","Volcano","Volcano","R1","Related",4,7,"Study","Related","R1",1198,""
"5e97012e6074fb190b2e4",8,9,"Read A","Ocean","Ocean","R1","Related",8,2,"Study","Related","R1",1155,""
"5e97012e6074fb190b2e4",9,9,"Read A","Island","Island","R1","Related",9,8,"Study","Related","R1",1100,""
"5e97012e6074fb190b2e4",10,9,"Read A","River","River","R1","Related",2,13,"Study","Related","R1",3175,""
"5e97012e6074fb190b2e4",11,9,"Read A","Lake","Lake","R1","Related",10,11,"Study","Related","R1",2213,""
"5e97012e6074fb190b2e4",12,9,"Read A","Cave","Cave","R1","Related",11,9,"Study","Related","R1",1073,""
"5e97012e6074fb190b2e4",13,9,"Read A","Valley","Valley","R1","Related",1,10,"Study","Related","R1",2666,""
"5e97012e6074fb190b2e4",14,9,"Read A","Hill","Hill","R1","Related",6,5,"Study","Related","R1",2832,""
"5e97012e6074fb190b2e4",18,9,"Read A","","","","",NA,0,"FreeRecall","Related","RECALL_Test1",65003,"Lake River glacier volcano cave Hill canyon Mountain "
"5e97012e6074fb190b2e4",20,9,"Read A","Student","Student","U1","Unrelated",15,18,"Study","Unrelated","U1",1884,""
"5e97012e6074fb190b2e4",21,9,"Read A","Hockey","Hockey","U1","Unrelated",16,14,"Study","Unrelated","U1",1577,""
"5e97012e6074fb190b2e4",22,9,"Read A","Guitar","Guitar","U1","Unrelated",19,16,"Study","Unrelated","U1",1500,""
"5e97012e6074fb190b2e4",23,9,"Read A","Milk","Milk","U1","Unrelated",22,20,"Study","Unrelated","U1",1997,""
"5e97012e6074fb190b2e4",24,9,"Read A","Pants","Pants","U1","Unrelated",17,23,"Study","Unrelated","U1",2346,""
"5e97012e6074fb190b2e4",25,9,"Read A","Parrot","Parrot","U1","Unrelated",21,25,"Study","Unrelated","U1",1218,""
"5e97012e6074fb190b2e4",26,9,"Read A","Rifle","Rifle","U1","Unrelated",13,17,"Study","Unrelated","U1",1618,""
"5e97012e6074fb190b2e4",27,9,"Read A","Oxygen","Oxygen","U1","Unrelated",18,19,"Study","Unrelated","U1",1719,""
"5e97012e6074fb190b2e4",28,9,"Read A","Ballet","Ballet","U1","Unrelated",24,22,"Study","Unrelated","U1",1780,""
"5e97012e6074fb190b2e4",29,9,"Read A","Mayor","Mayor","U1","Unrelated",14,21,"Study","Unrelated","U1",2908,""
"5e97012e6074fb190b2e4",30,9,"Read A","Jeep","Jeep","U1","Unrelated",23,24,"Study","Unrelated","U1",1608,""
"5e97012e6074fb190b2e4",31,9,"Read A","Dollar","Dollar","U1","Unrelated",20,15,"Study","Unrelated","U1",1625,""
"5e97012e6074fb190b2e4",35,9,"Read A","","","","",NA,0,"FreeRecall","Unrelated","RECALL_Test2",65004,"Milk hockey jeep oxygen "
"5e97012e6074fb190b2e4",37,9,"Read A","Tiger","Tiger","R2","Related",25,32,"Study","Related","R2",2011,""
"5e97012e6074fb190b2e4",38,9,"Read A","Cow","Cow","R2","Related",36,35,"Study","Related","R2",1756,""
"5e97012e6074fb190b2e4",39,9,"Read A","Elephant","Elephant","R2","Related",32,30,"Study","Related","R2",1598,""
"5e97012e6074fb190b2e4",40,9,"Read A","Lion","Lion","R2","Related",26,26,"Study","Related","R2",1714,""
"5e97012e6074fb190b2e4",41,9,"Read A","Goat","Goat","R2","Related",30,31,"Study","Related","R2",1657,""
"5e97012e6074fb190b2e4",42,9,"Read A","Girraffe","Girraffe","R2","Related",31,34,"Study","Related","R2",1599,""
"5e97012e6074fb190b2e4",43,9,"Read A","Zebra","Zebra","R2","Related",27,37,"Study","Related","R2",1454,""
"5e97012e6074fb190b2e4",44,9,"Read A","Cat","Cat","R2","Related",33,36,"Study","Related","R2",1391,""
"5e97012e6074fb190b2e4",45,9,"Read A","Cheetah","Cheetah","R2","Related",28,28,"Study","Related","R2",1659,""
"5e97012e6074fb190b2e4",46,9,"Read A","Bear","Bear","R2","Related",35,27,"Study","Related","R2",1663,""
"5e97012e6074fb190b2e4",47,9,"Read A","Donkey","Donkey","R2","Related",34,29,"Study","Related","R2",1646,""
"5e97012e6074fb190b2e4",48,9,"Read A","Wolf","Wolf","R2","Related",29,33,"Study","Related","R2",1676,""
"5e97012e6074fb190b2e4",52,9,"Read A","","","","",NA,0,"FreeRecall","Related","RECALL_Test3",65004,"Tiger lion donkey elephant goat cat wolf cow giraffe "
"5e97012e6074fb190b2e4",54,9,"Read A","Eye","Eye","U2","Unrelated",48,47,"Study","Unrelated","U2",1893,""
"5e97012e6074fb190b2e4",55,9,"Read A","Tulip","Tulip","U2","Unrelated",39,44,"Study","Unrelated","U2",1650,""
"5e97012e6074fb190b2e4",56,9,"Read A","Lipstick","Lipstick","U2","Unrelated",46,49,"Study","Unrelated","U2",1708,""
"5e97012e6074fb190b2e4",57,9,"Read A","Cruise","Cruise","U2","Unrelated",42,39,"Study","Unrelated","U2",1764,""
"5e97012e6074fb190b2e4",58,9,"Read A","Sandal","Sandal","U2","Unrelated",37,40,"Study","Unrelated","U2",1720,""
"5e97012e6074fb190b2e4",59,9,"Read A","Fly","Fly","U2","Unrelated",38,42,"Study","Unrelated","U2",1714,""
"5e97012e6074fb190b2e4",60,9,"Read A","Tea","Tea","U2","Unrelated",45,38,"Study","Unrelated","U2",1676,""
"5e97012e6074fb190b2e4",61,9,"Read A","Viper","Viper","U2","Unrelated",44,43,"Study","Unrelated","U2",1866,""
"5e97012e6074fb190b2e4",62,9,"Read A","Blue","Blue","U2","Unrelated",41,41,"Study","Unrelated","U2",1662,""
"5e97012e6074fb190b2e4",63,9,"Read A","Cold","Cold","U2","Unrelated",40,46,"Study","Unrelated","U2",1781,""
"5e97012e6074fb190b2e4",64,9,"Read A","Shark","Shark","U2","Unrelated",43,45,"Study","Unrelated","U2",1629,""
"5e97012e6074fb190b2e4",65,9,"Read A","Computer","Computer","U2","Unrelated",47,48,"Study","Unrelated","U2",1655,""
"5e97012e6074fb190b2e4",69,9,"Read A","","","","",NA,0,"FreeRecall","","RECALL_Test4",65005,"Cold lipstick eye rifle sandel "
"5ee4a14b578f8a000b384376",3,12,"Read D","Mango","Mango","R1","Related",10,9,"Study","Unrelated","U1",2760,""
"5ee4a14b578f8a000b384376",4,12,"Read D","Pear","Pear","R1","Related",5,13,"Study","Unrelated","U1",1510,""
"5ee4a14b578f8a000b384376",5,12,"Read D","Kiwi","Kiwi","R1","Related",8,5,"Study","Unrelated","U1",2292,""
"5ee4a14b578f8a000b384376",6,12,"Read D","Orange","Orange","R1","Related",2,7,"Study","Unrelated","U1",1816,""
"5ee4a14b578f8a000b384376",7,12,"Read D","Cherry","Cherry","R1","Related",11,3,"Study","Unrelated","U1",1479,""
"5ee4a14b578f8a000b384376",8,12,"Read D","Grape","Grape","R1","Related",4,2,"Study","Unrelated","U1",1245,""
"5ee4a14b578f8a000b384376",9,12,"Read D","Strawberry","Strawberry","R1","Related",7,10,"Study","Unrelated","U1",1836,""
"5ee4a14b578f8a000b384376",10,12,"Read D","Peach","Peach","R1","Related",6,4,"Study","Unrelated","U1",1631,""
"5ee4a14b578f8a000b384376",11,12,"Read D","Apple","Apple","R1","Related",1,8,"Study","Unrelated","U1",1518,""
"5ee4a14b578f8a000b384376",12,12,"Read D","Lemon","Lemon","R1","Related",12,6,"Study","Unrelated","U1",1684,""
"5ee4a14b578f8a000b384376",13,12,"Read D","Plum","Plum","R1","Related",9,11,"Study","Unrelated","U1",1618,""
"5ee4a14b578f8a000b384376",14,12,"Read D","Banana","Banana","R1","Related",3,12,"Study","Unrelated","U1",1456,""
"5ee4a14b578f8a000b384376",18,12,"Read D","","","","",NA,0,"FreeRecall","Unrelated","RECALL_Test1",65001,"mango, pear, peach, strawberry, banana, grape, plum, cherry"
"5ee4a14b578f8a000b384376",20,12,"Read D","Bed","Bed","U1","Unrelated",14,24,"Study","Related","R1",1598,""
"5ee4a14b578f8a000b384376",21,12,"Read D","Dirt","Dirt","U1","Unrelated",16,21,"Study","Related","R1",2517,""
"5ee4a14b578f8a000b384376",22,12,"Read D","Yellow","Yellow","U1","Unrelated",19,23,"Study","Related","R1",1719,""
"5ee4a14b578f8a000b384376",23,12,"Read D","Shirt","Shirt","U1","Unrelated",18,14,"Study","Related","R1",1473,""
"5ee4a14b578f8a000b384376",24,12,"Read D","Frog","Frog","U1","Unrelated",13,16,"Study","Related","R1",1579,""
"5ee4a14b578f8a000b384376",25,12,"Read D","Kayak","Kayak","U1","Unrelated",20,18,"Study","Related","R1",1537,""
"5ee4a14b578f8a000b384376",26,12,"Read D","Flea","Flea","U1","Unrelated",21,25,"Study","Related","R1",1844,""
"5ee4a14b578f8a000b384376",27,12,"Read D","Hawk","Hawk","U1","Unrelated",24,19,"Study","Related","R1",1461,""
"5ee4a14b578f8a000b384376",28,12,"Read D","Bean","Bean","U1","Unrelated",22,20,"Study","Related","R1",1557,""
"5ee4a14b578f8a000b384376",29,12,"Read D","Mint","Mint","U1","Unrelated",17,22,"Study","Related","R1",1587,""
"5ee4a14b578f8a000b384376",30,12,"Read D","Document","Document","U1","Unrelated",15,15,"Study","Related","R1",1273,""
"5ee4a14b578f8a000b384376",31,12,"Read D","Slow","Slow","U1","Unrelated",23,17,"Study","Related","R1",1448,""
"5ee4a14b578f8a000b384376",35,12,"Read D","","","","",NA,0,"FreeRecall","Related","RECALL_Test2",65004,"kayak, shirt, bed, "
"5ee4a14b578f8a000b384376",37,12,"Read D","Ceiling","Ceiling","R2","Related",25,28,"Study","Unrelated","U2",1745,""
"5ee4a14b578f8a000b384376",38,12,"Read D","Door","Door","R2","Related",30,32,"Study","Unrelated","U2",1581,""
"5ee4a14b578f8a000b384376",39,12,"Read D","Bathroom","Bathroom","R2","Related",27,33,"Study","Unrelated","U2",1779,""
"5ee4a14b578f8a000b384376",40,12,"Read D","Stairs","Stairs","R2","Related",32,29,"Study","Unrelated","U2",1042,""
"5ee4a14b578f8a000b384376",41,12,"Read D","Attic","Attic","R2","Related",34,36,"Study","Unrelated","U2",1714,""
"5ee4a14b578f8a000b384376",42,12,"Read D","Elevator","Elevator","R2","Related",33,37,"Study","Unrelated","U2",2472,""
"5ee4a14b578f8a000b384376",43,12,"Read D","Window","Window","R2","Related",28,30,"Study","Unrelated","U2",1737,""
