Username,ID,ExperimentName,Session,Trial,Date,TimeDif,"Condition Number","Stimuli File","Order File","Condition Description","Condition Notes",Stimuli*Cue,Stimuli*Answer,Stimuli*Shuffle,"Stimuli*Stimuli Notes",Stimuli*Value,Procedure*Item,"Procedure*Trial Type","Procedure*Max Time","Procedure*Min Time",Procedure*Text,"Procedure*Procedure Notes",Procedure*Shuffle,Procedure*,Response*RT,Response*Response,Response*Accuracy,Response*RTfirst,Response*RTlast,Response*strictAcc,Response*lenientAcc,Response*focus,Response*JOL,Response*Focus
M20332037,gqi19f49rv,"DRM Reactivity 1_MSU",1,1,2023-10-31T04:45:35+00:00,7.2527420520782,8,Stim_B.csv,I_JOL_B.csv,"Item D",Item,,,,,,0,Instruct,-,5,"In this section, you will be presented with a series of words. Please study each word carefully. Your memory will be tested! Click next to continue.",Initial_Instruct,Instruct1,,7132,,,-1,-1,,,,,1
M20332037,gqi19f49rv,"DRM Reactivity 1_MSU",1,2,2023-10-31T04:45:43+00:00,7.2574200630188,8,Stim_B.csv,I_JOL_B.csv,"Item D",Item,,,,,,0,Instruct,-,5,"As you study, you will be asked to rate your ability to remember each word on a later test using a 0-100 scale.","JOL instruct",JOL_Instruct,,7079,,,-1,-1,,,,,1
M20332037,gqi19f49rv,"DRM Reactivity 1_MSU",1,3,2023-10-31T04:46:01+00:00,18.347807884216,8,Stim_B.csv,I_JOL_B.csv,"Item D",Item,,,,,,0,Instruct,-,10,"For example, if you see the word ""dog"", a rating of 0 means you would not expect to remember this word at test, while a rating of 100 means you would definitely remember it. When making these ratings, it is important that you try to be as accurate as possible. Try to use the full range of the scale -- Don't just make ratings of only 0 or 100!",,,,18075,,,-1,-1,,,,,1
M20332037,gqi19f49rv,"DRM Reactivity 1_MSU",1,4,2023-10-31T04:46:03+00:00,2.1752381324768,8,Stim_B.csv,I_JOL_B.csv,"Item D",Item,,,,,,0,Instruct,User,-,"You will now begin the study. Click next when you are ready to begin.",,Instruct16,,1991,,,-1,-1,,,,,1
M20332037,gqi19f49rv,"DRM Reactivity 1_MSU",1,5,2023-10-31T04:46:11+00:00,8.2838048934937,8,Stim_B.csv,I_JOL_B.csv,"Item D",Item,Kiwi,Kiwi,R1,Related,8,7,JOL,User,-,"How likely are you to correctly recall the second item in the pair?|Type your response on a scale from 0-100 and then press Enter.",Unrelated,U1,,7863,,,6597,6716,,,,20,1
M20332037,gqi19f49rv,"DRM Reactivity 1_MSU",1,6,2023-10-31T04:46:21+00:00,9.9422929286957,8,Stim_B.csv,I_JOL_B.csv,"Item D",Item,Cherry,Cherry,R1,Related,11,13,JOL,User,-,"How likely are you to correctly recall the second item in the pair?|Type your response on a scale from 0-100 and then press Enter.",Unrelated,U1,,9554,,,6058,8163,,,,20,1
M20332037,gqi19f49rv,"DRM Reactivity 1_MSU",1,7,2023-10-31T04:46:25+00:00,3.3330631256104,8,Stim_B.csv,I_JOL_B.csv,"Item D",Item,Mango,Mango,R1,Related,10,2,JOL,User,-,"How likely are you to correctly recall the second item in the pair?|Type your response on a scale from 0-100 and then press Enter.",Unrelated,U1,,3139,,,1751,1861,,,,20,1
M20332037,gqi19f49rv,"DRM Reactivity 1_MSU",1,8,2023-10-31T04:46:32+00:00,7.1476418972015,8,Stim_B.csv,I_JOL_B.csv,"Item D",Item,Banana,Banana,R1,Related,3,8,JOL,User,-,"How likely are you to correctly recall the second item in the pair?|Type your response on a scale from 0-100 and then press Enter.",Unrelated,U1,,6999,,,6456,6592,,,,30,1
M20332037,gqi19f49rv,"DRM Reactivity 1_MSU",1,9,2023-10-31T04:46:34+00:00,2.0746309757233,8,Stim_B.csv,I_JOL_B.csv,"Item D",Item,Pear,Pear,R1,Related,5,3,JOL,User,-,"How likely are you to correctly recall the second item in the pair?|Type your response on a scale from 0-100 and then press Enter.",Unrelated,U1,,1921,,,1291,1396,,,,30,1
M20332037,gqi19f49rv,"DRM Reactivity 1_MSU",1,10,2023-10-31T04:46:36+00:00,1.7076101303101,8,Stim_B.csv,I_JOL_B.csv,"Item D",Item,Strawberry,Strawberry,R1,Related,7,11,JOL,User,-,"How likely are you to correctly recall the second item in the pair?|Type your response on a scale from 0-100 and then press Enter.",Unrelated,U1,,1560,,,948,1075,,,,30,1
M20332037,gqi19f49rv,"DRM Reactivity 1_MSU",1,11,2023-10-31T04:46:45+00:00,9.5726799964905,8,Stim_B.csv,I_JOL_B.csv,"Item D",Item,Lemon,Lemon,R1,Related,12,6,JOL,User,-,"How likely are you to correctly recall the second item in the pair?|Type your response on a scale from 0-100 and then press Enter.",Unrelated,U1,,9424,,,8365,8486,,,,20,1
M20332037,gqi19f49rv,"DRM Reactivity 1_MSU",1,12,2023-10-31T04:46:48+00:00,2.8498768806458,8,Stim_B.csv,I_JOL_B.csv,"Item D",Item,Apple,Apple,R1,Related,1,12,JOL,User,-,"How likely are you to correctly recall the second item in the pair?|Type your response on a scale from 0-100 and then press Enter.",Unrelated,U1,,2694,,,1976,2318,,,,100,1
M20332037,gqi19f49rv,"DRM Reactivity 1_MSU",1,13,2023-10-31T04:46:52+00:00,3.4656600952148,8,Stim_B.csv,I_JOL_B.csv,"Item D",Item,Peach,Peach,R1,Related,6,10,JOL,User,-,"How likely are you to correctly recall the second item in the pair?|Type your response on a scale from 0-100 and then press Enter.",Unrelated,U1,,3302,,,2508,2629,,,,10,1
M20332037,gqi19f49rv,"DRM Reactivity 1_MSU",1,14,2023-10-31T04:46:54+00:00,2.5916950702667,8,Stim_B.csv,I_JOL_B.csv,"Item D",Item,Grape,Grape,R1,Related,4,4,JOL,User,-,"How likely are you to correctly recall the second item in the pair?|Type your response on a scale from 0-100 and then press Enter.",Unrelated,U1,,2438,,,1230,1462,,,,10,1
M20332037,gqi19f49rv,"DRM Reactivity 1_MSU",1,15,2023-10-31T04:46:58+00:00,3.535120010376,8,Stim_B.csv,I_JOL_B.csv,"Item D",Item,Orange,Orange,R1,Related,2,5,JOL,User,-,"How likely are you to correctly recall the second item in the pair?|Type your response on a scale from 0-100 and then press Enter.",Unrelated,U1,,3384,,,989,1143,,,,10,1
M20332037,gqi19f49rv,"DRM Reactivity 1_MSU",1,16,2023-10-31T04:47:02+00:00,4.4658279418945,8,Stim_B.csv,I_JOL_B.csv,"Item D",Item,Plum,Plum,R1,Related,9,9,JOL,User,-,"How likely are you to correctly recall the second item in the pair?|Type your response on a scale from 0-100 and then press Enter.",Unrelated,U1,,4276,,,2289,4051,,,,0,1
M20332037,gqi19f49rv,"DRM Reactivity 1_MSU",1,17,2023-10-31T04:47:07+00:00,4.9207420349121,8,Stim_B.csv,I_JOL_B.csv,"Item D",Item,,,,,,0,Instruct,User,3,"You will now be presented with a new study list and will again be asked to rate your ability to remember each word. Click next when you are ready to begin.",,NEXT_LIST,,4728,,,-1,-1,,,,,1
M20332037,gqi19f49rv,"DRM Reactivity 1_MSU",1,18,2023-10-31T04:47:17+00:00,9.5719969272614,8,Stim_B.csv,I_JOL_B.csv,"Item D",Item,Bed,Bed,U1,Unrelated,14,22,JOL,User,-,"How likely are you to correctly recall the second item in the pair?|Type your response on a scale from 0-100 and then press Enter.",Related,R1,,9406,,,8872,9042,,,,80,1
M20332037,gqi19f49rv,"DRM Reactivity 1_MSU",1,19,2023-10-31T04:47:21+00:00,4.423840045929,8,Stim_B.csv,I_JOL_B.csv,"Item D",Item,Yellow,Yellow,U1,Unrelated,19,20,JOL,User,-,"How likely are you to correctly recall the second item in the pair?|Type your response on a scale from 0-100 and then press Enter.",Related,R1,,4183,,,3775,3942,,,,10,1
M20332037,gqi19f49rv,"DRM Reactivity 1_MSU",1,20,2023-10-31T04:47:24+00:00,2.5289618968964,8,Stim_B.csv,I_JOL_B.csv,"Item D",Item,Document,Document,U1,Unrelated,15,24,JOL,User,-,"How likely are you to correctly recall the second item in the pair?|Type your response on a scale from 0-100 and then press Enter.",Related,R1,,2348,,,1797,1797,,,,0,1
M20332037,gqi19f49rv,"DRM Reactivity 1_MSU",1,21,2023-10-31T04:47:27+00:00,3.117495059967,8,Stim_B.csv,I_JOL_B.csv,"Item D",Item,Mint,Mint,U1,Unrelated,17,21,JOL,User,-,"How likely are you to correctly recall the second item in the pair?|Type your response on a scale from 0-100 and then press Enter.",Related,R1,,2918,,,2498,2635,,,,12,1
M20332037,gqi19f49rv,"DRM Reactivity 1_MSU",1,22,2023-10-31T04:47:29+00:00,2.2119140625,8,Stim_B.csv,I_JOL_B.csv,"Item D",Item,Bean,Bean,U1,Unrelated,22,18,JOL,User,-,"How likely are you to correctly recall the second item in the pair?|Type your response on a scale from 0-100 and then press Enter.",Related,R1,,2053,,,1820,1820,,,,0,1
M20332037,gqi19f49rv,"DRM Reactivity 1_MSU",1,23,2023-10-31T04:47:32+00:00,2.785975933075,8,Stim_B.csv,I_JOL_B.csv,"Item D",Item,Flea,Flea,U1,Unrelated,21,15,JOL,User,-,"How likely are you to correctly recall the second item in the pair?|Type your response on a scale from 0-100 and then press Enter.",Related,R1,,2598,,,2224,2370,,,,45,1
M20332037,gqi19f49rv,"DRM Reactivity 1_MSU",1,24,2023-10-31T04:47:39+00:00,6.9925420284271,8,Stim_B.csv,I_JOL_B.csv,"Item D",Item,Frog,Frog,U1,Unrelated,13,25,JOL,User,-,"How likely are you to correctly recall the second item in the pair?|Type your response on a scale from 0-100 and then press Enter.",Related,R1,,6839,,,6455,6616,,,,12,1
M20332037,gqi19f49rv,"DRM Reactivity 1_MSU",1,25,2023-10-31T04:47:40+00:00,1.7557120323181,8,Stim_B.csv,I_JOL_B.csv,"Item D",Item,Kayak,Kayak,U1,Unrelated,20,16,JOL,User,-,"How likely are you to correctly recall the second item in the pair?|Type your response on a scale from 0-100 and then press Enter.",Related,R1,,1588,,,1365,1365,,,,0,1
M20332037,gqi19f49rv,"DRM Reactivity 1_MSU",1,26,2023-10-31T04:47:45+00:00,4.6690979003906,8,Stim_B.csv,I_JOL_B.csv,"Item D",Item,Slow,Slow,U1,Unrelated,23,17,JOL,User,-,"How likely are you to correctly recall the second item in the pair?|Type your response on a scale from 0-100 and then press Enter.",Related,R1,,4512,,,4143,4274,,,,85,1
M20332037,gqi19f49rv,"DRM Reactivity 1_MSU",1,27,2023-10-31T04:47:47+00:00,2.0872850418091,8,Stim_B.csv,I_JOL_B.csv,"Item D",Item,Dirt,Dirt,U1,Unrelated,16,14,JOL,User,-,"How likely are you to correctly recall the second item in the pair?|Type your response on a scale from 0-100 and then press Enter.",Related,R1,,1936,,,1579,1676,,,,85,1
M20332037,gqi19f49rv,"DRM Reactivity 1_MSU",1,28,2023-10-31T04:47:50+00:00,2.433336019516,8,Stim_B.csv,I_JOL_B.csv,"Item D",Item,Hawk,Hawk,U1,Unrelated,24,23,JOL,User,-,"How likely are you to correctly recall the second item in the pair?|Type your response on a scale from 0-100 and then press Enter.",Related,R1,,2238,,,1863,2030,,,,40,1
M20332037,gqi19f49rv,"DRM Reactivity 1_MSU",1,29,2023-10-31T04:48:00+00:00,10.131649017334,8,Stim_B.csv,I_JOL_B.csv,"Item D",Item,Shirt,Shirt,U1,Unrelated,18,19,JOL,User,-,"How likely are you to correctly recall the second item in the pair?|Type your response on a scale from 0-100 and then press Enter.",Related,R1,,9939,,,9490,9686,,,,25,1
M20332037,gqi19f49rv,"DRM Reactivity 1_MSU",1,30,2023-10-31T04:48:03+00:00,3.607038974762,8,Stim_B.csv,I_JOL_B.csv,"Item D",Item,,,,,,0,Instruct,User,3,"You will now be presented with a new study list and will again be asked to rate your ability to remember each word. Click next when you are ready to begin.",,NEXT_LIST,,3429,,,-1,-1,,,,,1
M20332037,gqi19f49rv,"DRM Reactivity 1_MSU",1,31,2023-10-31T04:48:20+00:00,16.486746072769,8,Stim_B.csv,I_JOL_B.csv,"Item D",Item,Roof,Roof,R2,Related,36,31,JOL,User,-,"How likely are you to correctly recall the second item in the pair?|Type your response on a scale from 0-100 and then press Enter.",Unrelated,U2,,16180,,,14274,15917,,,,20,1
M20332037,gqi19f49rv,"DRM Reactivity 1_MSU",1,32,2023-10-31T04:48:24+00:00,3.8580038547516,8,Stim_B.csv,I_JOL_B.csv,"Item D",Item,Door,Door,R2,Related,30,27,JOL,User,-,"How likely are you to correctly recall the second item in the pair?|Type your response on a scale from 0-100 and then press Enter.",Unrelated,U2,,3679,,,3301,3446,,,,45,1
M20332037,gqi19f49rv,"DRM Reactivity 1_MSU",1,33,2023-10-31T04:48:27+00:00,3.1200151443481,8,Stim_B.csv,I_JOL_B.csv,"Item D",Item,Attic,Attic,R2,Related,34,29,JOL,User,-,"How likely are you to correctly recall the second item in the pair?|Type your response on a scale from 0-100 and then press Enter.",Unrelated,U2,,2928,,,1994,2690,,,,30,1
M20332037,gqi19f49rv,"DRM Reactivity 1_MSU",1,34,2023-10-31T04:48:30+00:00,3.0956349372864,8,Stim_B.csv,I_JOL_B.csv,"Item D",Item,Ceiling,Ceiling,R2,Related,25,26,JOL,User,-,"How likely are you to correctly recall the second item in the pair?|Type your response on a scale from 0-100 and then press Enter.",Unrelated,U2,,2909,,,1798,1799,,,,0,1
M20332037,gqi19f49rv,"DRM Reactivity 1_MSU",1,35,2023-10-31T04:48:35+00:00,5.464271068573,8,Stim_B.csv,I_JOL_B.csv,"Item D",Item,Stairs,Stairs,R2,Related,32,28,JOL,User,-,"How likely are you to correctly recall the second item in the pair?|Type your response on a scale from 0-100 and then press Enter.",Unrelated,U2,,5244,,,2396,5027,,,,45,1
M20332037,gqi19f49rv,"DRM Reactivity 1_MSU",1,36,2023-10-31T04:48:39+00:00,3.261433839798,8,Stim_B.csv,I_JOL_B.csv,"Item D",Item,Bathroom,Bathroom,R2,Related,27,35,JOL,User,-,"How likely are you to correctly recall the second item in the pair?|Type your response on a scale from 0-100 and then press Enter.",Unrelated,U2,,3103,,,1599,2912,,,,75,1
M20332037,gqi19f49rv,"DRM Reactivity 1_MSU",1,37,2023-10-31T04:48:43+00:00,4.6923770904541,8,Stim_B.csv,I_JOL_B.csv,"Item D",Item,Floor,Floor,R2,Related,31,36,JOL,User,-,"How likely are you to correctly recall the second item in the pair?|Type your response on a scale from 0-100 and then press Enter.",Unrelated,U2,,4491,,,948,3885,,,,100,1
M20332037,gqi19f49rv,"DRM Reactivity 1_MSU",1,38,2023-10-31T04:48:48+00:00,4.7463490962982,8,Stim_B.csv,I_JOL_B.csv,"Item D",Item,Hallway,Hallway,R2,Related,35,33,JOL,User,-,"How likely are you to correctly recall the second item in the pair?|Type your response on a scale from 0-100 and then press Enter.",Unrelated,U2,,4594,,,3115,4367,,,,95,1
M20332037,gqi19f49rv,"DRM Reactivity 1_MSU",1,39,2023-10-31T04:48:51+00:00,3.0323929786682,8,Stim_B.csv,I_JOL_B.csv,"Item D",Item,Wall,Wall,R2,Related,29,30,JOL,User,-,"How likely are you to correctly recall the second item in the pair?|Type your response on a scale from 0-100 and then press Enter.",Unrelated,U2,,2883,,,2382,2565,,,,85,1
M20332037,gqi19f49rv,"DRM Reactivity 1_MSU",1,40,2023-10-31T04:48:54+00:00,2.5290110111237,8,Stim_B.csv,I_JOL_B.csv,"Item D",Item,Elevator,Elevator,R2,Related,33,34,JOL,User,-,"How likely are you to correctly recall the second item in the pair?|Type your response on a scale from 0-100 and then press Enter.",Unrelated,U2,,2372,,,1974,2124,,,,10,1
M20332037,gqi19f49rv,"DRM Reactivity 1_MSU",1,41,2023-10-31T04:48:56+00:00,2.1471748352051,8,Stim_B.csv,I_JOL_B.csv,"Item D",Item,Window,Window,R2,Related,28,32,JOL,User,-,"How likely are you to correctly recall the second item in the pair?|Type your response on a scale from 0-100 and then press Enter.",Unrelated,U2,,2004,,,1611,1781,,,,15,1
M20332037,gqi19f49rv,"DRM Reactivity 1_MSU",1,42,2023-10-31T04:49:03+00:00,7.6549060344696,8,Stim_B.csv,I_JOL_B.csv,"Item D",Item,Basement,Basement,R2,Related,26,37,JOL,User,-,"How likely are you to correctly recall the second item in the pair?|Type your response on a scale from 0-100 and then press Enter.",Unrelated,U2,,7481,,,1957,7254,,,,15,1
M20332037,gqi19f49rv,"DRM Reactivity 1_MSU",1,43,2023-10-31T04:49:08+00:00,4.6602120399475,8,Stim_B.csv,I_JOL_B.csv,"Item D",Item,,,,,,0,Instruct,User,3,"You will now be presented with a new study list and will again be asked to rate your ability to remember each word. Click next when you are ready to begin.",,NEXT_LIST,,4501,,,-1,-1,,,,,1
M20332037,gqi19f49rv,"DRM Reactivity 1_MSU",1,44,2023-10-31T04:49:21+00:00,12.696856021881,8,Stim_B.csv,I_JOL_B.csv,"Item D",Item,Basket,Basket,U2,Unrelated,41,48,JOL,User,-,"How likely are you to correctly recall the second item in the pair?|Type your response on a scale from 0-100 and then press Enter.",Related,R2,,12528,,,12189,12314,,,,18,1
M20332037,gqi19f49rv,"DRM Reactivity 1_MSU",1,45,2023-10-31T04:49:25+00:00,4.1165039539337,8,Stim_B.csv,I_JOL_B.csv,"Item D",Item,Drill,Drill,U2,Unrelated,45,38,JOL,User,-,"How likely are you to correctly recall the second item in the pair?|Type your response on a scale from 0-100 and then press Enter.",Related,R2,,3960,,,1419,3779,,,,0,1
M20332037,gqi19f49rv,"DRM Reactivity 1_MSU",1,46,2023-10-31T04:49:27+00:00,2.2883400917053,8,Stim_B.csv,I_JOL_B.csv,"Item D",Item,Flute,Flute,U2,Unrelated,38,43,JOL,User,-,"How likely are you to correctly recall the second item in the pair?|Type your response on a scale from 0-100 and then press Enter.",Related,R2,,2120,,,1754,1905,,,,15,1
M20332037,gqi19f49rv,"DRM Reactivity 1_MSU",1,47,2023-10-31T04:49:30+00:00,2.3573558330536,8,Stim_B.csv,I_JOL_B.csv,"Item D",Item,Cloud,Cloud,U2,Unrelated,40,39,JOL,User,-,"How likely are you to correctly recall the second item in the pair?|Type your response on a scale from 0-100 and then press Enter.",Related,R2,,2175,,,1777,1936,,,,85,1
M20332037,gqi19f49rv,"DRM Reactivity 1_MSU",1,48,2023-10-31T04:49:32+00:00,2.6266779899597,8,Stim_B.csv,I_JOL_B.csv,"Item D",Item,Phone,Phone,U2,Unrelated,47,42,JOL,User,-,"How likely are you to correctly recall the second item in the pair?|Type your response on a scale from 0-100 and then press Enter.",Related,R2,,2470,,,1730,2080,,,,100,1
M20332037,gqi19f49rv,"DRM Reactivity 1_MSU",1,49,2023-10-31T04:49:36+00:00,3.8190901279449,8,Stim_B.csv,I_JOL_B.csv,"Item D",Item,Tent,Tent,U2,Unrelated,46,45,JOL,User,-,"How likely are you to correctly recall the second item in the pair?|Type your response on a scale from 0-100 and then press Enter.",Related,R2,,3651,,,3275,3431,,,,10,1
M20332037,gqi19f49rv,"DRM Reactivity 1_MSU",1,50,2023-10-31T04:49:38+00:00,1.6260578632355,8,Stim_B.csv,I_JOL_B.csv,"Item D",Item,Fossil,Fossil,U2,Unrelated,43,40,JOL,User,-,"How likely are you to correctly recall the second item in the pair?|Type your response on a scale from 0-100 and then press Enter.",Related,R2,,1475,,,1227,1227,,,,0,1
M20332037,gqi19f49rv,"DRM Reactivity 1_MSU",1,51,2023-10-31T04:49:40+00:00,2.411737203598,8,Stim_B.csv,I_JOL_B.csv,"Item D",Item,Salt,Salt,U2,Unrelated,39,49,JOL,User,-,"How likely are you to correctly recall the second item in the pair?|Type your response on a scale from 0-100 and then press Enter.",Related,R2,,2268,,,1890,2016,,,,85,1
M20332037,gqi19f49rv,"DRM Reactivity 1_MSU",1,52,2023-10-31T04:49:42+00:00,1.9842729568481,8,Stim_B.csv,I_JOL_B.csv,"Item D",Item,Rest,Rest,U2,Unrelated,48,44,JOL,User,-,"How likely are you to correctly recall the second item in the pair?|Type your response on a scale from 0-100 and then press Enter.",Related,R2,,1833,,,1277,1692,,,,100,1
M20332037,gqi19f49rv,"DRM Reactivity 1_MSU",1,53,2023-10-31T04:49:46+00:00,3.5147409439087,8,Stim_B.csv,I_JOL_B.csv,"Item D",Item,Card,Card,U2,Unrelated,37,46,JOL,User,-,"How likely are you to correctly recall the second item in the pair?|Type your response on a scale from 0-100 and then press Enter.",Related,R2,,3134,,,2745,2906,,,,20,1
M20332037,gqi19f49rv,"DRM Reactivity 1_MSU",1,54,2023-10-31T04:49:49+00:00,3.6735880374908,8,Stim_B.csv,I_JOL_B.csv,"Item D",Item,Cook,Cook,U2,Unrelated,42,41,JOL,User,-,"How likely are you to correctly recall the second item in the pair?|Type your response on a scale from 0-100 and then press Enter.",Related,R2,,3521,,,3039,3236,,,,35,1
M20332037,gqi19f49rv,"DRM Reactivity 1_MSU",1,55,2023-10-31T04:49:51+00:00,2.2344880104065,8,Stim_B.csv,I_JOL_B.csv,"Item D",Item,Mother,Mother,U2,Unrelated,44,47,JOL,User,-,"How likely are you to correctly recall the second item in the pair?|Type your response on a scale from 0-100 and then press Enter.",Related,R2,,2085,,,1314,1691,,,,100,1
M20332037,gqi19f49rv,"DRM Reactivity 1_MSU",1,56,2023-10-31T04:49:54+00:00,2.2909200191498,8,Stim_B.csv,I_JOL_B.csv,"Item D",Item,,,,,,0,Instruct,User,-,"You have completed this section. Please click next.",,Instruct166,,2130,,,-1,-1,,,,,1
M20332037,gqi19f49rv,"DRM Reactivity 1_MSU",1,57,2023-10-31T04:51:54+00:00,120.32180190086,8,Stim_B.csv,I_JOL_B.csv,"Item D",Item,,,,,,0,FreeRecall,120,120,"Please list the 50 US States in alphabetical order. The computer will automatically advance to the next screen in 2 minutes.",,FILLER,,120006,"Alabama Alaska Arizona Arkansas California Colorado Connecticut Delaware Florida Hawaii Idaho Indiana Iowa Kansas Kentucky Louisiana Maine Maryland Massachusets Michigan Minnosta Mississpi Missouri Montana Nebraska Nevada New Hampshire New Mexico New York North Car",0,6050,120000,0,0,,,1
M20332037,gqi19f49rv,"DRM Reactivity 1_MSU",1,58,2023-10-31T04:52:00+00:00,6.1188910007477,8,Stim_B.csv,I_JOL_B.csv,"Item D",Item,,,,,,0,Instruct,User,-,"You have completed this section. Please click next.",,Instruct166,,5948,,,-1,-1,,,,,1
M20332037,gqi19f49rv,"DRM Reactivity 1_MSU",1,59,2023-10-31T04:52:11+00:00,10.790561914444,8,Stim_B.csv,I_JOL_B.csv,"Item D",Item,,,,,,0,Instruct,User,10,"Your memory will now be tested. You will be presented with a series of words. If the word on the screen was previously studied, please select YES. If the word was not studied, select NO. PLEASE DO NOT SKIP ITEMS! Click next when you are ready to begin.",,,,10623,,,-1,-1,,,,,1
M20332037,gqi19f49rv,"DRM Reactivity 1_MSU",1,60,2023-10-31T04:52:15+00:00,3.7653870582581,8,Stim_B.csv,I_JOL_B.csv,"Item D",Item,Orange,Orange,Recog,Presented,98,128,Likert,User,1,"Was this item previously studied?","Critical Lure Control",Recog,1::2,3562,YES,22.222222222222,-1,-1,0,0,,,1
M20332037,gqi19f49rv,"DRM Reactivity 1_MSU",1,61,2023-10-31T04:52:19+00:00,4.0241169929504,8,Stim_B.csv,I_JOL_B.csv,"Item D",Item,Elephant,Elephant,Recog,Control,80,125,Likert,User,1,"Was this item previously studied?","Critical Lure Control",Recog,1::2,3837,NO,20,-1,-1,0,0,,,1
M20332037,gqi19f49rv,"DRM Reactivity 1_MSU",1,62,2023-10-31T04:52:21+00:00,2.6441931724548,8,Stim_B.csv,I_JOL_B.csv,"Item D",Item,Ocean,Ocean,Recog,Control,56,107,Likert,User,1,"Was this item previously studied?","List Item Control",Recog,1::2,2479,NO,28.571428571429,-1,-1,0,0,,,1
M20332037,gqi19f49rv,"DRM Reactivity 1_MSU",1,63,2023-10-31T04:52:24+00:00,2.4963138103485,8,Stim_B.csv,I_JOL_B.csv,"Item D",Item,Cave,Cave,Recog,Control,59,100,Likert,User,1,"Was this item previously studied?","List Item Control",Recog,1::2,2329,NO,0,-1,-1,0,0,,,1
M20332037,gqi19f49rv,"DRM Reactivity 1_MSU",1,64,2023-10-31T04:52:26+00:00,2.003319978714,8,Stim_B.csv,I_JOL_B.csv,"Item D",Item,Lion,Lion,Recog,Control,74,115,Likert,User,1,"Was this item previously studied?","List Item Control",Recog,1::2,1844,NO,33.333333333333,-1,-1,0,0,,,1
M20332037,gqi19f49rv,"DRM Reactivity 1_MSU",1,65,2023-10-31T04:52:28+00:00,2.2950592041016,8,Stim_B.csv,I_JOL_B.csv,"Item D",Item,Milk,Milk,Recog,Control,70,68,Likert,User,1,"Was this item previously studied?","List Item Sans F",Recog,1::2,2080,NO,0,-1,-1,0,0,,,1
M20332037,gqi19f49rv,"DRM Reactivity 1_MSU",1,66,2023-10-31T04:52:31+00:00,2.6013979911804,8,Stim_B.csv,I_JOL_B.csv,"Item D",Item,Cherry,Cherry,Recog,Presented,107,82,Likert,User,1,"Was this item previously studied?","Critical Lure Sans F",Recog,1::2,2436,YES,22.222222222222,-1,-1,0,0,,,1
M20332037,gqi19f49rv,"DRM Reactivity 1_MSU",1,67,2023-10-31T04:52:33+00:00,2.3076438903809,8,Stim_B.csv,I_JOL_B.csv,"Item D",Item,Cook,Cook,Recog,Presented,138,51,Likert,User,1,"Was this item previously studied?","List Item Sans F",Recog,1::2,2115,YES,0,-1,-1,0,0,,,1
M20332037,gqi19f49rv,"DRM Reactivity 1_MSU",1,68,2023-10-31T04:52:36+00:00,2.453850030899,8,Stim_B.csv,I_JOL_B.csv,"Item D",Item,Tiger,Tiger,Recog,Control,73,54,Likert,User,1,"Was this item previously studied?","List Item Standard F",Recog,1::2,2301,NO,0,-1,-1,0,0,,,1
M20332037,gqi19f49rv,"DRM Reactivity 1_MSU",1,69,2023-10-31T04:52:38+00:00,2.7256119251251,8,Stim_B.csv,I_JOL_B.csv,"Item D",Item,Dollar,Dollar,Recog,Control,68,145,Likert,User,1,"Was this item previously studied?","Critical Lure Control",Recog,1::2,2562,NO,25,-1,-1,0,0,,,1
M20332037,gqi19f49rv,"DRM Reactivity 1_MSU",1,70,2023-10-31T04:52:40+00:00,2.0072410106659,8,Stim_B.csv,I_JOL_B.csv,"Item D",Item,Wall,Wall,Recog,Presented,125,73,Likert,User,1,"Was this item previously studied?","List Item Standard F",Recog,1::2,1780,YES,0,-1,-1,0,0,,,1
M20332037,gqi19f49rv,"DRM Reactivity 1_MSU",1,71,2023-10-31T04:52:44+00:00,4.0840499401093,8,Stim_B.csv,I_JOL_B.csv,"Item D",Item,River,River,Recog,Control,50,59,Likert,User,1,"Was this item previously studied?","List Item Standard F",Recog,1::2,3926,NO,0,-1,-1,0,0,,,1
M20332037,gqi19f49rv,"DRM Reactivity 1_MSU",1,72,2023-10-31T04:52:47+00:00,2.3771190643311,8,Stim_B.csv,I_JOL_B.csv,"Item D",Item,Cold,Cold,Recog,Control,88,121,Likert,User,1,"Was this item previously studied?","Critical Lure Control",Recog,1::2,2221,NO,33.333333333333,-1,-1,0,0,,,1
M20332037,gqi19f49rv,"DRM Reactivity 1_MSU",1,73,2023-10-31T04:52:50+00:00,3.1646599769592,8,Stim_B.csv,I_JOL_B.csv,"Item D",Item,Volcano,Volcano,Recog,Control,52,138,Likert,User,1,"Was this item previously studied?","Critical Lure Control",Recog,1::2,2997,NO,44.444444444444,-1,-1,0,0,,,1
M20332037,gqi19f49rv,"DRM Reactivity 1_MSU",1,74,2023-10-31T04:52:54+00:00,3.9180309772491,8,Stim_B.csv,I_JOL_B.csv,"Item D",Item,Cat,Cat,Recog,Control,81,127,Likert,User,1,"Was this item previously studied?","Critical Lure Control",Recog,1::2,3711,NO,0,-1,-1,0,0,,,1
M20332037,gqi19f49rv,"DRM Reactivity 1_MSU",1,75,2023-10-31T04:52:56+00:00,2.1492011547089,8,Stim_B.csv,I_JOL_B.csv,"Item D",Item,Jeep,Jeep,Recog,Control,71,69,Likert,User,1,"Was this item previously studied?","List Item Sans F",Recog,1::2,1993,NO,0,-1,-1,0,0,,,1
M20332037,gqi19f49rv,"DRM Reactivity 1_MSU",1,76,2023-10-31T04:52:59+00:00,3.1994149684906,8,Stim_B.csv,I_JOL_B.csv,"Item D",Item,Attic,Attic,Recog,Presented,130,99,Likert,User,1,"Was this item previously studied?","List Item Control",Recog,1::2,3019,YES,0,-1,-1,0,0,,,1
M20332037,gqi19f49rv,"DRM Reactivity 1_MSU",1,77,2023-10-31T04:53:01+00:00,2.0711169242859,8,Stim_B.csv,I_JOL_B.csv,"Item D",Item,Cow,Cow,Recog,Control,84,135,Likert,User,1,"Was this item previously studied?","Critical Lure Control",Recog,1::2,1901,NO,40,-1,-1,0,0,,,1
M20332037,gqi19f49rv,"DRM Reactivity 1_MSU",1,78,2023-10-31T04:53:04+00:00,2.6600120067596,8,Stim_B.csv,I_JOL_B.csv,"Item D",Item,Goat,Goat,Recog,Control,78,95,Likert,User,1,"Was this item previously studied?","List Item Control",Recog,1::2,2502,NO,33.333333333333,-1,-1,0,0,,,1
M20332037,gqi19f49rv,"DRM Reactivity 1_MSU",1,79,2023-10-31T04:53:06+00:00,2.0309479236603,8,Stim_B.csv,I_JOL_B.csv,"Item D",Item,Viper,Viper,Recog,Control,92,55,Likert,User,1,"Was this item previously studied?","List Item Standard F",Recog,1::2,1870,NO,0,-1,-1,0,0,,,1
M20332037,gqi19f49rv,"DRM Reactivity 1_MSU",1,80,2023-10-31T04:53:08+00:00,2.2512040138245,8,Stim_B.csv,I_JOL_B.csv,"Item D",Item,Canyon,Canyon,Recog,Control,51,93,Likert,User,1,"Was this item previously studied?","List Item Control",Recog,1::2,2061,NO,50,-1,-1,0,0,,,1
M20332037,gqi19f49rv,"DRM Reactivity 1_MSU",1,81,2023-10-31T04:53:11+00:00,2.4742031097412,8,Stim_B.csv,I_JOL_B.csv,"Item D",Item,Student,Student,Recog,Control,63,63,Likert,User,1,"Was this item previously studied?","List Item Sans F",Recog,1::2,2283,NO,22.222222222222,-1,-1,0,0,,,1
M20332037,gqi19f49rv,"DRM Reactivity 1_MSU",1,82,2023-10-31T04:53:13+00:00,2.4573290348053,8,Stim_B.csv,I_JOL_B.csv,"Item D",Item,Mint,Mint,Recog,Presented,113,60,Likert,User,1,"Was this item previously studied?","List Item Standard F",Recog,1::2,2295,YES,0,-1,-1,0,0,,,1
M20332037,gqi19f49rv,"DRM Reactivity 1_MSU",1,83,2023-10-31T04:53:15+00:00,1.7453780174255,8,Stim_B.csv,I_JOL_B.csv,"Item D",Item,Wolf,Wolf,Recog,Control,77,105,Likert,User,1,"Was this item previously studied?","List Item Control",Recog,1::2,1558,NO,33.333333333333,-1,-1,0,0,,,1
M20332037,gqi19f49rv,"DRM Reactivity 1_MSU",1,84,2023-10-31T04:53:17+00:00,2.2133369445801,8,Stim_B.csv,I_JOL_B.csv,"Item D",Item,Cheetah,Cheetah,Recog,Control,76,120,Likert,User,1,"Was this item previously studied?","Critical Lure Control",Recog,1::2,2034,NO,0,-1,-1,0,0,,,1
M20332037,gqi19f49rv,"DRM Reactivity 1_MSU",1,85,2023-10-31T04:53:19+00:00,2.2704970836639,8,Stim_B.csv,I_JOL_B.csv,"Item D",Item,Door,Door,Recog,Presented,126,80,Likert,User,1,"Was this item previously studied?","Critical Lure Sans F",Recog,1::2,2102,YES,0,-1,-1,0,0,,,1
M20332037,gqi19f49rv,"DRM Reactivity 1_MSU",1,86,2023-10-31T04:53:24+00:00,4.1467490196228,8,Stim_B.csv,I_JOL_B.csv,"Item D",Item,Mother,Mother,Recog,Presented,140,76,Likert,User,1,"Was this item previously studied?","List Item Sans F",Recog,1::2,3989,YES,22.222222222222,-1,-1,0,0,,,1
M20332037,gqi19f49rv,"DRM Reactivity 1_MSU",1,87,2023-10-31T04:53:26+00:00,2.0814168453217,8,Stim_B.csv,I_JOL_B.csv,"Item D",Item,Stairs,Stairs,Recog,Presented,128,106,Likert,User,1,"Was this item previously studied?","List Item Control",Recog,1::2,1917,YES,22.222222222222,-1,-1,0,0,,,1
M20332037,gqi19f49rv,"DRM Reactivity 1_MSU",1,88,2023-10-31T04:53:28+00:00,2.5862901210785,8,Stim_B.csv,I_JOL_B.csv,"Item D",Item,Glacier,Glacier,Recog,Control,60,122,Likert,User,1,"Was this item previously studied?","Critical Lure Control",Recog,1::2,2403,NO,0,-1,-1,0,0,,,1
M20332037,gqi19f49rv,"DRM Reactivity 1_MSU",1,89,2023-10-31T04:53:31+00:00,3.1905410289764,8,Stim_B.csv,I_JOL_B.csv,"Item D",Item,Rest,Rest,Recog,Presented,144,90,Likert,User,1,"Was this item previously studied?","List Item Control",Recog,1::2,3032,YES,57.142857142857,-1,-1,0,0,,,1
M20332037,gqi19f49rv,"DRM Reactivity 1_MSU",1,90,2023-10-31T04:53:35+00:00,3.6737627983093,8,Stim_B.csv,I_JOL_B.csv,"Item D",Item,Lemon,Lemon,Recog,Presented,108,67,Likert,User,1,"Was this item previously studied?","List Item Standard F",Recog,1::2,2290,YES,25,-1,-1,0,0,,,1
M20332037,gqi19f49rv,"DRM Reactivity 1_MSU",1,91,2023-10-31T04:53:39+00:00,4.3331739902496,8,Stim_B.csv,I_JOL_B.csv,"Item D",Item,Mountain,Mountain,Recog,Control,55,130,Likert,User,1,"Was this item previously studied?","Critical Lure Control",Recog,1::2,2582,NO,20,-1,-1,0,0,,,1
M20332037,gqi19f49rv,"DRM Reactivity 1_MSU",1,92,2023-10-31T04:53:41+00:00,2.0687580108643,8,Stim_B.csv,I_JOL_B.csv,"Item D",Item,Bed,Bed,Recog,Presented,110,50,Likert,User,1,"Was this item previously studied?","List Item Sans F",Recog,1::2,1909,YES,33.333333333333,-1,-1,0,0,,,1
M20332037,gqi19f49rv,"DRM Reactivity 1_MSU",1,93,2023-10-31T04:53:45+00:00,3.1767661571503,8,Stim_B.csv,I_JOL_B.csv,"Item D",Item,Fly,Fly,Recog,Control,86,116,Likert,User,1,"Was this item previously studied?","List Item Control",Recog,1::2,3022,NO,0,-1,-1,0,0,,,1
M20332037,gqi19f49rv,"DRM Reactivity 1_MSU",1,94,2023-10-31T04:53:47+00:00,2.7559700012207,8,Stim_B.csv,I_JOL_B.csv,"Item D",Item,Dirt,Dirt,Recog,Presented,112,131,Likert,User,1,"Was this item previously studied?","Critical Lure Control",Recog,1::2,2608,YES,0,-1,-1,0,0,,,1
M20332037,gqi19f49rv,"DRM Reactivity 1_MSU",1,95,2023-10-31T04:53:49+00:00,1.8588709831238,8,Stim_B.csv,I_JOL_B.csv,"Item D",Item,Blue,Blue,Recog,Control,89,78,Likert,User,1,"Was this item previously studied?","List Item Standard F",Recog,1::2,1695,NO,0,-1,-1,0,0,,,1
M20332037,gqi19f49rv,"DRM Reactivity 1_MSU",1,96,2023-10-31T04:53:51+00:00,1.8920919895172,8,Stim_B.csv,I_JOL_B.csv,"Item D",Item,Salt,Salt,Recog,Presented,135,72,Likert,User,1,"Was this item previously studied?","List Item Standard F",Recog,1::2,1707,YES,28.571428571429,-1,-1,0,0,,,1
M20332037,gqi19f49rv,"DRM Reactivity 1_MSU",1,97,2023-10-31T04:53:53+00:00,2.0143020153046,8,Stim_B.csv,I_JOL_B.csv,"Item D",Item,Grape,Grape,Recog,Presented,100,94,Likert,User,1,"Was this item previously studied?","List Item Control",Recog,1::2,1851,YES,25,-1,-1,0,0,,,1
M20332037,gqi19f49rv,"DRM Reactivity 1_MSU",1,98,2023-10-31T04:53:56+00:00,3.0746648311615,8,Stim_B.csv,I_JOL_B.csv,"Item D",Item,Mayor,Mayor,Recog,Control,62,133,Likert,User,1,"Was this item previously studied?","Critical Lure Control",Recog,1::2,2891,NO,28.571428571429,-1,-1,0,0,,,1
M20332037,gqi19f49rv,"DRM Reactivity 1_MSU",1,99,2023-10-31T04:53:58+00:00,1.8859171867371,8,Stim_B.csv,I_JOL_B.csv,"Item D",Item,Frog,Frog,Recog,Presented,109,97,Likert,User,1,"Was this item previously studied?","List Item Control",Recog,1::2,1731,YES,0,-1,-1,0,0,,,1
M20332037,gqi19f49rv,"DRM Reactivity 1_MSU",1,100,2023-10-31T04:54:01+00:00,2.43363904953,8,Stim_B.csv,I_JOL_B.csv,"Item D",Item,Bear,Bear,Recog,Control,83,81,Likert,User,1,"Was this item previously studied?","Critical Lure Standard F",Recog,1::2,2276,NO,0,-1,-1,0,0,,,1
M20332037,gqi19f49rv,"DRM Reactivity 1_MSU",1,101,2023-10-31T04:54:04+00:00,3.0578739643097,8,Stim_B.csv,I_JOL_B.csv,"Item D",Item,Slow,Slow,Recog,Presented,119,117,Likert,User,1,"Was this item previously studied?","List Item Control",Recog,1::2,2904,NO,33.333333333333,-1,-1,0,0,,,1
M20332037,gqi19f49rv,"DRM Reactivity 1_MSU",1,102,2023-10-31T04:54:06+00:00,2.2869579792023,8,Stim_B.csv,I_JOL_B.csv,"Item D",Item,Elevator,Elevator,Recog,Presented,129,143,Likert,User,1,"Was this item previously studied?","Critical Lure Control",Recog,1::2,2121,YES,18.181818181818,-1,-1,0,0,,,1
M20332037,gqi19f49rv,"DRM Reactivity 1_MSU",1,103,2023-10-31T04:54:08+00:00,2.1127338409424,8,Stim_B.csv,I_JOL_B.csv,"Item D",Item,Ceiling,Ceiling,Recog,Presented,121,109,Likert,User,1,"Was this item previously studied?","List Item Control",Recog,1::2,1952,YES,20,-1,-1,0,0,,,1
M20332037,gqi19f49rv,"DRM Reactivity 1_MSU",1,104,2023-10-31T04:54:10+00:00,2.4453060626984,8,Stim_B.csv,I_JOL_B.csv,"Item D",Item,Fossil,Fossil,Recog,Presented,139,85,Likert,User,1,"Was this item previously studied?","Critical Lure Standard F",Recog,1::2,2281,YES,22.222222222222,-1,-1,0,0,,,1
M20332037,gqi19f49rv,"DRM Reactivity 1_MSU",1,105,2023-10-31T04:54:13+00:00,2.3334090709686,8,Stim_B.csv,I_JOL_B.csv,"Item D",Item,Drill,Drill,Recog,Presented,141,103,Likert,User,1,"Was this item previously studied?","List Item Control",Recog,1::2,2175,YES,0,-1,-1,0,0,,,1
M20332037,gqi19f49rv,"DRM Reactivity 1_MSU",1,106,2023-10-31T04:54:15+00:00,2.2750189304352,8,Stim_B.csv,I_JOL_B.csv,"Item D",Item,Pear,Pear,Recog,Presented,101,123,Likert,User,1,"Was this item previously studied?","Critical Lure Control",Recog,1::2,2117,YES,28.571428571429,-1,-1,0,0,,,1
M20332037,gqi19f49rv,"DRM Reactivity 1_MSU",1,107,2023-10-31T04:54:17+00:00,2.1933460235596,8,Stim_B.csv,I_JOL_B.csv,"Item D",Item,Strawberry,Strawberry,Recog,Presented,103,101,Likert,User,1,"Was this item previously studied?","List Item Control",Recog,1::2,2029,YES,15.384615384615,-1,-1,0,0,,,1
M20332037,gqi19f49rv,"DRM Reactivity 1_MSU",1,108,2023-10-31T04:54:19+00:00,1.4786829948425,8,Stim_B.csv,I_JOL_B.csv,"Item D",Item,Floor,Floor,Recog,Presented,127,110,Likert,User,1,"Was this item previously studied?","List Item Control",Recog,1::2,1312,YES,0,-1,-1,0,0,,,1
M20332037,gqi19f49rv,"DRM Reactivity 1_MSU",1,109,2023-10-31T04:54:21+00:00,1.8397309780121,8,Stim_B.csv,I_JOL_B.csv,"Item D",Item,Basket,Basket,Recog,Presented,137,113,Likert,User,1,"Was this item previously studied?","List Item Control",Recog,1::2,1683,YES,22.222222222222,-1,-1,0,0,,,1
M20332037,gqi19f49rv,"DRM Reactivity 1_MSU",1,110,2023-10-31T04:54:22+00:00,1.5374779701233,8,Stim_B.csv,I_JOL_B.csv,"Item D",Item,Banana,Banana,Recog,Presented,99,86,Likert,User,1,"Was this item previously studied?","Critical Lure Sans F",Recog,1::2,1377,YES,0,-1,-1,0,0,,,1
M20332037,gqi19f49rv,"DRM Reactivity 1_MSU",1,111,2023-10-31T04:54:25+00:00,2.5713920593262,8,Stim_B.csv,I_JOL_B.csv,"Item D",Item,Hockey,Hockey,Recog,Control,64,118,Likert,User,1,"Was this item previously studied?","List Item Control",Recog,1::2,2414,NO,25,-1,-1,0,0,,,1
M20332037,gqi19f49rv,"DRM Reactivity 1_MSU",1,112,2023-10-31T04:54:27+00:00,2.0362250804901,8,Stim_B.csv,I_JOL_B.csv,"Item D",Item,Pants,Pants,Recog,Control,65,98,Likert,User,1,"Was this item previously studied?","List Item Control",Recog,1::2,1876,YES,25,-1,-1,0,0,,,1
M20332037,gqi19f49rv,"DRM Reactivity 1_MSU",1,113,2023-10-31T04:54:34+00:00,6.7921159267426,8,Stim_B.csv,I_JOL_B.csv,"Item D",Item,Rifle,Rifle,Recog,Control,61,57,Likert,User,1,"Was this item previously studied?","List Item Sans F",Recog,1::2,6631,NO,0,-1,-1,0,0,,,1
M20332037,gqi19f49rv,"DRM Reactivity 1_MSU",1,114,2023-10-31T04:54:37+00:00,3.1234240531921,8,Stim_B.csv,I_JOL_B.csv,"Item D",Item,Hill,Hill,Recog,Control,54,62,Likert,User,1,"Was this item previously studied?","List Item Sans F",Recog,1::2,2974,NO,0,-1,-1,0,0,,,1
M20332037,gqi19f49rv,"DRM Reactivity 1_MSU",1,115,2023-10-31T04:54:40+00:00,3.5704929828644,8,Stim_B.csv,I_JOL_B.csv,"Item D",Item,Tea,Tea,Recog,Control,93,129,Likert,User,1,"Was this item previously studied?","Critical Lure Control",Recog,1::2,3415,NO,0,-1,-1,0,0,,,1
M20332037,gqi19f49rv,"DRM Reactivity 1_MSU",1,116,2023-10-31T04:54:49+00:00,8.6194350719452,8,Stim_B.csv,I_JOL_B.csv,"Item D",Item,Island,Island,Recog,Control,57,53,Likert,User,1,"Was this item previously studied?","List Item Standard F",Recog,1::2,7483,NO,25,-1,-1,0,0,,,1
M20332037,gqi19f49rv,"DRM Reactivity 1_MSU",1,117,2023-10-31T04:54:51+00:00,2.639554977417,8,Stim_B.csv,I_JOL_B.csv,"Item D",Item,Parrot,Parrot,Recog,Control,69,83,Likert,User,1,"Was this item previously studied?","Critical Lure Standard F",Recog,1::2,2324,NO,25,-1,-1,0,0,,,1
M20332037,gqi19f49rv,"DRM Reactivity 1_MSU",1,118,2023-10-31T04:54:54+00:00,2.70055103302,8,Stim_B.csv,I_JOL_B.csv,"Item D",Item,Kiwi,Kiwi,Recog,Presented,104,108,Likert,User,1,"Was this item previously studied?","List Item Control",Recog,1::2,2489,YES,0,-1,-1,0,0,,,1
M20332037,gqi19f49rv,"DRM Reactivity 1_MSU",1,119,2023-10-31T04:54:56+00:00,2.2397208213806,8,Stim_B.csv,I_JOL_B.csv,"Item D",Item,Flute,Flute,Recog,Presented,134,88,Likert,User,1,"Was this item previously studied?","Critical Lure Sans F",Recog,1::2,2088,YES,25,-1,-1,0,0,,,1
M20332037,gqi19f49rv,"DRM Reactivity 1_MSU",1,120,2023-10-31T04:55:02+00:00,5.2685611248016,8,Stim_B.csv,I_JOL_B.csv,"Item D",Item,Hawk,Hawk,Recog,Presented,120,91,Likert,User,1,"Was this item previously studied?","List Item Control",Recog,1::2,5111,YES,0,-1,-1,0,0,,,1
M20332037,gqi19f49rv,"DRM Reactivity 1_MSU",1,121,2023-10-31T04:55:06+00:00,4.6427190303802,8,Stim_B.csv,I_JOL_B.csv,"Item D",Item,Tulip,Tulip,Recog,Control,87,134,Likert,User,1,"Was this item previously studied?","Critical Lure Control",Recog,1::2,4406,NO,0,-1,-1,0,0,,,1
M20332037,gqi19f49rv,"DRM Reactivity 1_MSU",1,122,2023-10-31T04:55:11+00:00,4.9631278514862,8,Stim_B.csv,I_JOL_B.csv,"Item D",Item,Tent,Tent,Recog,Presented,142,77,Likert,User,1,"Was this item previously studied?","List Item Standard F",Recog,1::2,4806,YES,28.571428571429,-1,-1,0,0,,,1
M20332037,gqi19f49rv,"DRM Reactivity 1_MSU",1,123,2023-10-31T04:55:14+00:00,2.3246650695801,8,Stim_B.csv,I_JOL_B.csv,"Item D",Item,Eye,Eye,Recog,Control,96,144,Likert,User,1,"Was this item previously studied?","Critical Lure Control",Recog,1::2,2162,NO,0,-1,-1,0,0,,,1
M20332037,gqi19f49rv,"DRM Reactivity 1_MSU",1,124,2023-10-31T04:55:17+00:00,2.951849937439,8,Stim_B.csv,I_JOL_B.csv,"Item D",Item,Shark,Shark,Recog,Control,91,58,Likert,User,1,"Was this item previously studied?","List Item Sans F",Recog,1::2,2796,NO,0,-1,-1,0,0,,,1
M20332037,gqi19f49rv,"DRM Reactivity 1_MSU",1,125,2023-10-31T04:55:19+00:00,2.2474551200867,8,Stim_B.csv,I_JOL_B.csv,"Item D",Item,Flea,Flea,Recog,Presented,117,84,Likert,User,1,"Was this item previously studied?","Critical Lure Sans F",Recog,1::2,2094,YES,28.571428571429,-1,-1,0,0,,,1
M20332037,gqi19f49rv,"DRM Reactivity 1_MSU",1,126,2023-10-31T04:55:21+00:00,2.1903259754181,8,Stim_B.csv,I_JOL_B.csv,"Item D",Item,Valley,Valley,Recog,Control,49,132,Likert,User,1,"Was this item previously studied?","Critical Lure Control",Recog,1::2,2033,NO,0,-1,-1,0,0,,,1
M20332037,gqi19f49rv,"DRM Reactivity 1_MSU",1,127,2023-10-31T04:55:24+00:00,3.4213929176331,8,Stim_B.csv,I_JOL_B.csv,"Item D",Item,Phone,Phone,Recog,Presented,143,52,Likert,User,1,"Was this item previously studied?","List Item Sans F",Recog,1::2,3261,YES,25,-1,-1,0,0,,,1
M20332037,gqi19f49rv,"DRM Reactivity 1_MSU",1,128,2023-10-31T04:55:32+00:00,7.126415014267,8,Stim_B.csv,I_JOL_B.csv,"Item D",Item,Ballet,Ballet,Recog,Control,72,104,Likert,User,1,"Was this item previously studied?","List Item Control",Recog,1::2,6921,NO,0,-1,-1,0,0,,,1
M20332037,gqi19f49rv,"DRM Reactivity 1_MSU",1,129,2023-10-31T04:55:34+00:00,2.566085100174,8,Stim_B.csv,I_JOL_B.csv,"Item D",Item,Bathroom,Bathroom,Recog,Presented,123,56,Likert,User,1,"Was this item previously studied?","List Item Sans F",Recog,1::2,2408,YES,0,-1,-1,0,0,,,1
M20332037,gqi19f49rv,"DRM Reactivity 1_MSU",1,130,2023-10-31T04:55:37+00:00,2.4978840351105,8,Stim_B.csv,I_JOL_B.csv,"Item D",Item,Document,Document,Recog,Presented,111,61,Likert,User,1,"Was this item previously studied?","List Item Standard F",Recog,1::2,2339,YES,18.181818181818,-1,-1,0,0,,,1
M20332037,gqi19f49rv,"DRM Reactivity 1_MSU",1,131,2023-10-31T04:55:41+00:00,4.0561878681183,8,Stim_B.csv,I_JOL_B.csv,"Item D",Item,Apple,Apple,Recog,Presented,97,119,Likert,User,1,"Was this item previously studied?","List Item Control",Recog,1::2,3896,YES,25,-1,-1,0,0,,,1
M20332037,gqi19f49rv,"DRM Reactivity 1_MSU",1,132,2023-10-31T04:55:44+00:00,2.9886939525604,8,Stim_B.csv,I_JOL_B.csv,"Item D",Item,Roof,Roof,Recog,Presented,132,64,Likert,User,1,"Was this item previously studied?","List Item Sans F",Recog,1::2,2826,YES,0,-1,-1,0,0,,,1
M20332037,gqi19f49rv,"DRM Reactivity 1_MSU",1,133,2023-10-31T04:55:46+00:00,2.4934339523315,8,Stim_B.csv,I_JOL_B.csv,"Item D",Item,Lipstick,Lipstick,Recog,Control,94,111,Likert,User,1,"Was this item previously studied?","List Item Control",Recog,1::2,2320,NO,0,-1,-1,0,0,,,1
M20332037,gqi19f49rv,"DRM Reactivity 1_MSU",1,134,2023-10-31T04:55:48+00:00,2.1485621929169,8,Stim_B.csv,I_JOL_B.csv,"Item D",Item,Kayak,Kayak,Recog,Presented,116,70,Likert,User,1,"Was this item previously studied?","List Item Sans F",Recog,1::2,1992,YES,25,-1,-1,0,0,,,1
M20332037,gqi19f49rv,"DRM Reactivity 1_MSU",1,135,2023-10-31T04:55:51+00:00,2.68288397789,8,Stim_B.csv,I_JOL_B.csv,"Item D",Item,Peach,Peach,Recog,Presented,102,65,Likert,User,1,"Was this item previously studied?","List Item Standard F",Recog,1::2,2533,YES,25,-1,-1,0,0,,,1
M20332037,gqi19f49rv,"DRM Reactivity 1_MSU",1,136,2023-10-31T04:55:58+00:00,7.2203378677368,8,Stim_B.csv,I_JOL_B.csv,"Item D",Item,Window,Window,Recog,Presented,124,140,Likert,User,1,"Was this item previously studied?","Critical Lure Control",Recog,1::2,6041,YES,0,-1,-1,0,0,,,1
M20332037,gqi19f49rv,"DRM Reactivity 1_MSU",1,137,2023-10-31T04:56:00+00:00,2.1660571098328,8,Stim_B.csv,I_JOL_B.csv,"Item D",Item,Hallway,Hallway,Recog,Presented,131,126,Likert,User,1,"Was this item previously studied?","Critical Lure Control",Recog,1::2,1893,YES,20,-1,-1,0,0,,,1
M20332037,gqi19f49rv,"DRM Reactivity 1_MSU",1,138,2023-10-31T04:56:02+00:00,2.0761978626251,8,Stim_B.csv,I_JOL_B.csv,"Item D",Item,Girraffe,Girraffe,Recog,Control,79,66,Likert,User,1,"Was this item previously studied?","List Item Standard F",Recog,1::2,1919,NO,0,-1,-1,0,0,,,1
M20332037,gqi19f49rv,"DRM Reactivity 1_MSU",1,139,2023-10-31T04:56:04+00:00,1.9943552017212,8,Stim_B.csv,I_JOL_B.csv,"Item D",Item,Cloud,Cloud,Recog,Presented,136,137,Likert,User,1,"Was this item previously studied?","Critical Lure Control",Recog,1::2,1841,YES,0,-1,-1,0,0,,,1
M20332037,gqi19f49rv,"DRM Reactivity 1_MSU",1,140,2023-10-31T04:56:06+00:00,1.7339270114899,8,Stim_B.csv,I_JOL_B.csv,"Item D",Item,Rock,Rock,Recog,Control,53,124,Likert,User,1,"Was this item previously studied?","Critical Lure Control",Recog,1::2,1578,NO,33.333333333333,-1,-1,0,0,,,1
M20332037,gqi19f49rv,"DRM Reactivity 1_MSU",1,141,2023-10-31T04:56:08+00:00,1.6098408699036,8,Stim_B.csv,I_JOL_B.csv,"Item D",Item,Oxygen,Oxygen,Recog,Control,66,74,Likert,User,1,"Was this item previously studied?","List Item Sans F",Recog,1::2,1459,NO,25,-1,-1,0,0,,,1
M20332037,gqi19f49rv,"DRM Reactivity 1_MSU",1,142,2023-10-31T04:56:10+00:00,1.7838089466095,8,Stim_B.csv,I_JOL_B.csv,"Item D",Item,Cruise,Cruise,Recog,Control,90,71,Likert,User,1,"Was this item previously studied?","List Item Standard F",Recog,1::2,1627,NO,0,-1,-1,0,0,,,1
M20332037,gqi19f49rv,"DRM Reactivity 1_MSU",1,143,2023-10-31T04:56:11+00:00,1.2887790203094,8,Stim_B.csv,I_JOL_B.csv,"Item D",Item,Sandal,Sandal,Recog,Control,85,102,Likert,User,1,"Was this item previously studied?","List Item Control",Recog,1::2,1129,NO,25,-1,-1,0,0,,,1
M20332037,gqi19f49rv,"DRM Reactivity 1_MSU",1,144,2023-10-31T04:56:12+00:00,1.4280760288239,8,Stim_B.csv,I_JOL_B.csv,"Item D",Item,Mango,Mango,Recog,Presented,106,139,Likert,User,1,"Was this item previously studied?","Critical Lure Control",Recog,1::2,1267,YES,0,-1,-1,0,0,,,1
M20332037,gqi19f49rv,"DRM Reactivity 1_MSU",1,145,2023-10-31T04:56:14+00:00,1.6411409378052,8,Stim_B.csv,I_JOL_B.csv,"Item D",Item,Card,Card,Recog,Presented,133,141,Likert,User,1,"Was this item previously studied?","Critical Lure Control",Recog,1::2,1488,YES,0,-1,-1,0,0,,,1
M20332037,gqi19f49rv,"DRM Reactivity 1_MSU",1,146,2023-10-31T04:56:16+00:00,1.7237770557404,8,Stim_B.csv,I_JOL_B.csv,"Item D",Item,Guitar,Guitar,Recog,Control,67,92,Likert,User,1,"Was this item previously studied?","List Item Control",Recog,1::2,1543,YES,0,-1,-1,0,0,,,1
M20332037,gqi19f49rv,"DRM Reactivity 1_MSU",1,147,2023-10-31T04:56:17+00:00,1.2847640514374,8,Stim_B.csv,I_JOL_B.csv,"Item D",Item,Yellow,Yellow,Recog,Presented,115,89,Likert,User,1,"Was this item previously studied?","Critical Lure Standard F",Recog,1::2,1123,YES,44.444444444444,-1,-1,0,0,,,1
M20332037,gqi19f49rv,"DRM Reactivity 1_MSU",1,148,2023-10-31T04:56:18+00:00,1.291200876236,8,Stim_B.csv,I_JOL_B.csv,"Item D",Item,Shirt,Shirt,Recog,Presented,114,142,Likert,User,1,"Was this item previously studied?","Critical Lure Control",Recog,1::2,1136,YES,25,-1,-1,0,0,,,1
M20332037,gqi19f49rv,"DRM Reactivity 1_MSU",1,149,2023-10-31T04:56:20+00:00,1.7581820487976,8,Stim_B.csv,I_JOL_B.csv,"Item D",Item,Bean,Bean,Recog,Presented,118,75,Likert,User,1,"Was this item previously studied?","List Item Sans F",Recog,1::2,1600,YES,28.571428571429,-1,-1,0,0,,,1
M20332037,gqi19f49rv,"DRM Reactivity 1_MSU",1,150,2023-10-31T04:56:22+00:00,2.0701460838318,8,Stim_B.csv,I_JOL_B.csv,"Item D",Item,Computer,Computer,Recog,Control,95,79,Likert,User,1,"Was this item previously studied?","List Item Standard F",Recog,1::2,1891,NO,20,-1,-1,0,0,,,1
M20332037,gqi19f49rv,"DRM Reactivity 1_MSU",1,151,2023-10-31T04:56:24+00:00,1.7149839401245,8,Stim_B.csv,I_JOL_B.csv,"Item D",Item,Plum,Plum,Recog,Presented,105,87,Likert,User,1,"Was this item previously studied?","Critical Lure Standard F",Recog,1::2,1560,YES,0,-1,-1,0,0,,,1
M20332037,gqi19f49rv,"DRM Reactivity 1_MSU",1,152,2023-10-31T04:56:26+00:00,2.5155389308929,8,Stim_B.csv,I_JOL_B.csv,"Item D",Item,Lake,Lake,Recog,Control,58,114,Likert,User,1,"Was this item previously studied?","List Item Control",Recog,1::2,2357,NO,0,-1,-1,0,0,,,1
M20332037,gqi19f49rv,"DRM Reactivity 1_MSU",1,153,2023-10-31T04:56:29+00:00,2.4786942005157,8,Stim_B.csv,I_JOL_B.csv,"Item D",Item,Donkey,Donkey,Recog,Control,82,96,Likert,User,1,"Was this item previously studied?","List Item Control",Recog,1::2,2311,NO,25,-1,-1,0,0,,,1
M20332037,gqi19f49rv,"DRM Reactivity 1_MSU",1,154,2023-10-31T04:56:31+00:00,2.1323709487915,8,Stim_B.csv,I_JOL_B.csv,"Item D",Item,Basement,Basement,Recog,Presented,122,136,Likert,User,1,"Was this item previously studied?","Critical Lure Control",Recog,1::2,1974,YES,18.181818181818,-1,-1,0,0,,,1
M20332037,gqi19f49rv,"DRM Reactivity 1_MSU",1,155,2023-10-31T04:56:33+00:00,1.9727580547333,8,Stim_B.csv,I_JOL_B.csv,"Item D",Item,Zebra,Zebra,Recog,Control,75,112,Likert,User,1,"Was this item previously studied?","List Item Control",Recog,1::2,1814,NO,0,-1,-1,0,0,,,1
M20332037,gqi19f49rv,"DRM Reactivity 1_MSU",1,156,2023-10-31T04:56:34+00:00,1.2300658226013,8,Stim_B.csv,I_JOL_B.csv,"Item D",Item,,,,,,0,Instruct,User,-,"You have completed this section. Please click next.",,Instruct7,,981,,,-1,-1,,,,,1
M20332037,gqi19f49rv,"DRM Reactivity 1_MSU",1,157,2023-10-31T04:56:36+00:00,2.293380022049,8,Stim_B.csv,I_JOL_B.csv,"Item D",Item,,,,,,0,Instruct,User,-,"The following screen will ask you a few questions abour your experience today. You must complete these questions to receive credit.",,Instruct8,,2030,,,-1,-1,,,,,1
