"Username","Trial","Condition.Number","Condition.Description","Condition.Notes","Stimuli.Cue","Stimuli.Answer","Stimuli.Shuffle","Stimuli.Stimuli.Notes","Stimuli.Value","Procedure.Item","Procedure.Trial.Type","Procedure.Procedure.Notes","Procedure.Shuffle","Response.RT","Response.Response","Response.JOL"
"58de70ac1400fc0001207546",4,4,"Global","B","aroma",NA,"Win_1",NA,NA,2,"Study","Window","Win_1",2337,"",NA
"58de70ac1400fc0001207546",5,4,"Global","B","scent",NA,"Win_2",NA,NA,3,"Study","Window","Win_2",1902,"",NA
"58de70ac1400fc0001207546",6,4,"Global","B","whiff",NA,"Win_3",NA,NA,4,"Study","Window","Win_3",2154,"",NA
"58de70ac1400fc0001207546",7,4,"Global","B","stench",NA,"Win_4",NA,NA,5,"Study","Window","Win_4",2203,"",NA
"58de70ac1400fc0001207546",8,4,"Global","B","reek",NA,"Win_5",NA,NA,6,"Study","Window","Win_5",2896,"",NA
"58de70ac1400fc0001207546",9,4,"Global","B","sniff",NA,"Win_6",NA,NA,7,"Study","Window","Win_6",1945,"",NA
"58de70ac1400fc0001207546",10,4,"Global","B","perfume",NA,"Win_7",NA,NA,8,"Study","Window","Win_7",1579,"",NA
"58de70ac1400fc0001207546",11,4,"Global","B","fragrance",NA,"Win_8",NA,NA,9,"Study","Window","Win_8",1554,"",NA
"58de70ac1400fc0001207546",12,4,"Global","B","nose",NA,"Win_9",NA,NA,10,"Study","Window","Win_9",1713,"",NA
"58de70ac1400fc0001207546",13,4,"Global","B","rose",NA,"Win_10",NA,NA,11,"Study","Window","Win_10",1572,"",NA
"58de70ac1400fc0001207546",14,4,"Global","B","salts",NA,"Win_11",NA,NA,12,"Study","Window","Win_11",1604,"",NA
"58de70ac1400fc0001207546",15,4,"Global","B","breathe",NA,"Win_12",NA,NA,13,"Study","Window","Win_12",1434,"",NA
"58de70ac1400fc0001207546",17,4,"Global","B","",NA,"",NA,NA,0,"JOL_GLOBAL","Related","JOL1",5004,"",70
"58de70ac1400fc0001207546",22,4,"Global","B","",NA,"",NA,NA,0,"FreeRecall","","RECALL_Test",54033,"Whiff, perfume, salt, reek, stench, odour, nose, rose, breathe, smell, inhale, ",NA
"58de70ac1400fc0001207546",24,4,"Global","B","hard",NA,"R1",NA,NA,14,"Study","Rough","R1",3007,"",NA
"58de70ac1400fc0001207546",25,4,"Global","B","loud",NA,"R2",NA,NA,15,"Study","Rough","R2",1790,"",NA
"58de70ac1400fc0001207546",26,4,"Global","B","tender",NA,"R3",NA,NA,16,"Study","Rough","R3",1294,"",NA
"58de70ac1400fc0001207546",27,4,"Global","B","fluffy",NA,"R4",NA,NA,17,"Study","Rough","R4",1831,"",NA
"58de70ac1400fc0001207546",28,4,"Global","B","pillow",NA,"R5",NA,NA,18,"Study","Rough","R5",1545,"",NA
"58de70ac1400fc0001207546",29,4,"Global","B","downy",NA,"R6",NA,NA,19,"Study","Rough","R6",1468,"",NA
"58de70ac1400fc0001207546",30,4,"Global","B","plush",NA,"R7",NA,NA,20,"Study","Rough","R7",1445,"",NA
"58de70ac1400fc0001207546",31,4,"Global","B","cotton",NA,"R8",NA,NA,21,"Study","Rough","R8",1471,"",NA
"58de70ac1400fc0001207546",32,4,"Global","B","skin",NA,"R9",NA,NA,22,"Study","Rough","R9",1272,"",NA
"58de70ac1400fc0001207546",33,4,"Global","B","fur",NA,"R10",NA,NA,23,"Study","Rough","R10",1338,"",NA
"58de70ac1400fc0001207546",34,4,"Global","B","touch",NA,"R11",NA,NA,24,"Study","Rough","R11",1461,"",NA
"58de70ac1400fc0001207546",35,4,"Global","B","furry",NA,"R12",NA,NA,25,"Study","Rough","R12",1617,"",NA
"58de70ac1400fc0001207546",37,4,"Global","B","",NA,"",NA,NA,0,"JOL_GLOBAL","Unrelated","JOL2",5004,"",40
"58de70ac1400fc0001207546",42,4,"Global","B","",NA,"",NA,NA,0,"FreeRecall","","RECALL_Test",60717,"Pillow, downy, soft, hard, fur, furry, skin, touch, wool",NA
"58de70ac1400fc0001207546",44,4,"Global","B","honey",NA,"A1",NA,NA,26,"Study","Anger","A1",2731,"",NA
"58de70ac1400fc0001207546",45,4,"Global","B","bitter",NA,"A2",NA,NA,27,"Study","Anger","A2",1757,"",NA
"58de70ac1400fc0001207546",46,4,"Global","B","sugar",NA,"A3",NA,NA,28,"Study","Anger","A3",1622,"",NA
"58de70ac1400fc0001207546",47,4,"Global","B","sour",NA,"A4",NA,NA,29,"Study","Anger","A4",1285,"",NA
"58de70ac1400fc0001207546",48,4,"Global","B","candy",NA,"A5",NA,NA,30,"Study","Anger","A5",1253,"",NA
"58de70ac1400fc0001207546",49,4,"Global","B","tart",NA,"A6",NA,NA,31,"Study","Anger","A6",1636,"",NA
"58de70ac1400fc0001207546",50,4,"Global","B","chocolate",NA,"A7",NA,NA,32,"Study","Anger","A7",1554,"",NA
"58de70ac1400fc0001207546",51,4,"Global","B","nice",NA,"A8",NA,NA,33,"Study","Anger","A8",1578,"",NA
"58de70ac1400fc0001207546",52,4,"Global","B","taste",NA,"A9",NA,NA,34,"Study","Anger","A9",1372,"",NA
"58de70ac1400fc0001207546",53,4,"Global","B","cake",NA,"A10",NA,NA,35,"Study","Anger","A10",1639,"",NA
"58de70ac1400fc0001207546",54,4,"Global","B","good",NA,"A11",NA,NA,36,"Study","Anger","A11",1534,"",NA
"58de70ac1400fc0001207546",55,4,"Global","B","tooth",NA,"A12",NA,NA,37,"Study","Anger","A12",1719,"",NA
"58de70ac1400fc0001207546",57,4,"Global","B","",NA,"",NA,NA,0,"JOL_GLOBAL","Related","JOL3",5006,"",45
"58de70ac1400fc0001207546",62,4,"Global","B","",NA,"",NA,NA,0,"FreeRecall","","RECALL_Test",60002,"good, sweet, honey, chocolate, tarte, sour, bitter, taste, sugar, ",NA
"58de70ac1400fc0001207546",64,4,"Global","B","table",NA,"T1",NA,NA,38,"Study","Trash","T1",4012,"",NA
"58de70ac1400fc0001207546",65,4,"Global","B","swivel",NA,"T2",NA,NA,39,"Study","Trash","T2",2373,"",NA
"58de70ac1400fc0001207546",66,4,"Global","B","rocking",NA,"T3",NA,NA,40,"Study","Trash","T3",1789,"",NA
"58de70ac1400fc0001207546",67,4,"Global","B","recliner",NA,"T4",NA,NA,41,"Study","Trash","T4",1579,"",NA
"58de70ac1400fc0001207546",68,4,"Global","B","seat",NA,"T5",NA,NA,42,"Study","Trash","T5",1516,"",NA
"58de70ac1400fc0001207546",69,4,"Global","B","stool",NA,"T6",NA,NA,43,"Study","Trash","T6",1263,"",NA
"58de70ac1400fc0001207546",70,4,"Global","B","desk",NA,"T7",NA,NA,44,"Study","Trash","T7",1469,"",NA
"58de70ac1400fc0001207546",71,4,"Global","B","couch",NA,"T8",NA,NA,45,"Study","Trash","T8",1442,"",NA
"58de70ac1400fc0001207546",72,4,"Global","B","sit",NA,"T9",NA,NA,46,"Study","Trash","T9",1405,"",NA
"58de70ac1400fc0001207546",73,4,"Global","B","sofa",NA,"T10",NA,NA,47,"Study","Trash","T10",1579,"",NA
"58de70ac1400fc0001207546",74,4,"Global","B","bench",NA,"T11",NA,NA,48,"Study","Trash","T11",1448,"",NA
"58de70ac1400fc0001207546",75,4,"Global","B","sitting",NA,"T12",NA,NA,49,"Study","Trash","T12",1520,"",NA
"58de70ac1400fc0001207546",77,4,"Global","B","",NA,"",NA,NA,0,"JOL_GLOBAL","Related","JOL4",5003,"",60
"58de70ac1400fc0001207546",82,4,"Global","B","",NA,"",NA,NA,0,"FreeRecall","","RECALL_Test",60003,"couch, bench, stool, sit, sitting, desk, table, recline, sofa, chair, swivel",NA
"58de70ac1400fc0001207546",84,4,"Global","B","climber",NA,"D1",NA,NA,50,"Study","Doctor","D1",2566,"",NA
"58de70ac1400fc0001207546",85,4,"Global","B","hill",NA,"D2",NA,NA,51,"Study","Doctor","D2",1786,"",NA
"58de70ac1400fc0001207546",86,4,"Global","B","climb",NA,"D3",NA,NA,52,"Study","Doctor","D3",1592,"",NA
"58de70ac1400fc0001207546",87,4,"Global","B","molehill",NA,"D4",NA,NA,53,"Study","Doctor","D4",1860,"",NA
"58de70ac1400fc0001207546",88,4,"Global","B","peak",NA,"D5",NA,NA,54,"Study","Doctor","D5",1501,"",NA
"58de70ac1400fc0001207546",89,4,"Global","B","valley",NA,"D6",NA,NA,55,"Study","Doctor","D6",1328,"",NA
"58de70ac1400fc0001207546",90,4,"Global","B","summit",NA,"D7",NA,NA,56,"Study","Doctor","D7",1578,"",NA
"58de70ac1400fc0001207546",91,4,"Global","B","steep",NA,"D8",NA,NA,57,"Study","Doctor","D8",1352,"",NA
"58de70ac1400fc0001207546",92,4,"Global","B","ski",NA,"D9",NA,NA,58,"Study","Doctor","D9",1672,"",NA
"58de70ac1400fc0001207546",93,4,"Global","B","bike",NA,"D10",NA,NA,59,"Study","Doctor","D10",1340,"",NA
"58de70ac1400fc0001207546",94,4,"Global","B","goat",NA,"D11",NA,NA,60,"Study","Doctor","D11",1352,"",NA
"58de70ac1400fc0001207546",95,4,"Global","B","glacier",NA,"D12",NA,NA,61,"Study","Doctor","D12",1386,"",NA
"58de70ac1400fc0001207546",97,4,"Global","B","",NA,"",NA,NA,0,"JOL_GLOBAL","Related","JOL5",4208,"",45
"58de70ac1400fc0001207546",102,4,"Global","B","",NA,"",NA,NA,0,"FreeRecall","","RECALL_Test",60003,"peak, valley, goat, glacier, ski, molehill, hill, climber, mountain, ",NA
"58de70ac1400fc0001207546",104,4,"Global","B","band",NA,"S1",NA,NA,62,"Study","Slow","S1",2306,"",NA
"58de70ac1400fc0001207546",105,4,"Global","B","concert",NA,"S2",NA,NA,63,"Study","Slow","S2",1938,"",NA
"58de70ac1400fc0001207546",106,4,"Global","B","jazz",NA,"S3",NA,NA,64,"Study","Slow","S3",1627,"",NA
"58de70ac1400fc0001207546",107,4,"Global","B","symphony",NA,"S4",NA,NA,65,"Study","Slow","S4",1708,"",NA
"58de70ac1400fc0001207546",108,4,"Global","B","orchestra",NA,"S5",NA,NA,66,"Study","Slow","S5",1669,"",NA
"58de70ac1400fc0001207546",109,4,"Global","B","rhythm",NA,"S6",NA,NA,67,"Study","Slow","S6",1803,"",NA
"58de70ac1400fc0001207546",110,4,"Global","B","radio",NA,"S7",NA,NA,68,"Study","Slow","S7",1590,"",NA
"58de70ac1400fc0001207546",111,4,"Global","B","melody",NA,"S8",NA,NA,69,"Study","Slow","S8",1457,"",NA
"58de70ac1400fc0001207546",112,4,"Global","B","piano",NA,"S9",NA,NA,70,"Study","Slow","S9",1619,"",NA
"58de70ac1400fc0001207546",113,4,"Global","B","sound",NA,"S10",NA,NA,71,"Study","Slow","S10",1632,"",NA
"58de70ac1400fc0001207546",114,4,"Global","B","instrument",NA,"S11",NA,NA,72,"Study","Slow","S11",1692,"",NA
"58de70ac1400fc0001207546",115,4,"Global","B","note",NA,"S12",NA,NA,73,"Study","Slow","S12",1561,"",NA
"58de70ac1400fc0001207546",117,4,"Global","B","",NA,"",NA,NA,0,"JOL_GLOBAL","Related","JOL6",5005,"",50
"58de70ac1400fc0001207546",122,4,"Global","B","",NA,"",NA,NA,0,"FreeRecall","","RECALL_Test",60003,"Rhythm, sound, jazz, orchestra, symphhony, piano, jazz, performance, gig, note",NA
"58de70ac1400fc0001207546",124,4,"Global","B","foam",NA,"RR1",NA,NA,74,"Study","River","RR1",2517,"",NA
"58de70ac1400fc0001207546",125,4,"Global","B","latex",NA,"RR2",NA,NA,75,"Study","River","RR2",1841,"",NA
"58de70ac1400fc0001207546",126,4,"Global","B","galoshes",NA,"RR3",NA,NA,76,"Study","River","RR3",1812,"",NA
"58de70ac1400fc0001207546",127,4,"Global","B","tire",NA,"RR4",NA,NA,77,"Study","River","RR4",1672,"",NA
"58de70ac1400fc0001207546",128,4,"Global","B","flexible",NA,"RR5",NA,NA,78,"Study","River","RR5",1679,"",NA
"58de70ac1400fc0001207546",129,4,"Global","B","elastic",NA,"RR6",NA,NA,79,"Study","River","RR6",1629,"",NA
"58de70ac1400fc0001207546",130,4,"Global","B","gloves",NA,"RR7",NA,NA,80,"Study","River","RR7",1792,"",NA
"58de70ac1400fc0001207546",131,4,"Global","B","eraser",NA,"RR8",NA,NA,81,"Study","River","RR8",1642,"",NA
"58de70ac1400fc0001207546",132,4,"Global","B","bounce",NA,"RR9",NA,NA,82,"Study","River","RR9",1516,"",NA
"58de70ac1400fc0001207546",133,4,"Global","B","ball",NA,"RR10",NA,NA,83,"Study","River","RR10",1605,"",NA
"58de70ac1400fc0001207546",134,4,"Global","B","soles",NA,"RR11",NA,NA,84,"Study","River","RR11",1629,"",NA
"58de70ac1400fc0001207546",135,4,"Global","B","springy",NA,"RR12",NA,NA,85,"Study","River","RR12",1634,"",NA
"58de70ac1400fc0001207546",137,4,"Global","B","",NA,"",NA,NA,0,"JOL_GLOBAL","Related","JOL7",5002,"",5
"58de70ac1400fc0001207546",142,4,"Global","B","",NA,"",NA,NA,0,"FreeRecall","","RECALL_Test",60002,"eraser, latex, bounce, spring, gloves, foam, ",NA
"58de70ac1400fc0001207546",144,4,"Global","B","toe",NA,"B1",NA,NA,86,"Study","Bread","B1",1693,"",NA
"58de70ac1400fc0001207546",145,4,"Global","B","inch",NA,"B2",NA,NA,87,"Study","Bread","B2",1515,"",NA
"58de70ac1400fc0001207546",146,4,"Global","B","ankle",NA,"B3",NA,NA,88,"Study","Bread","B3",3002,"",NA
"58de70ac1400fc0001207546",147,4,"Global","B","shoe",NA,"B4",NA,NA,89,"Study","Bread","B4",2725,"",NA
"58de70ac1400fc0001207546",148,4,"Global","B","sandals",NA,"B5",NA,NA,90,"Study","Bread","B5",1554,"",NA
"58de70ac1400fc0001207546",149,4,"Global","B","sock",NA,"B6",NA,NA,91,"Study","Bread","B6",1602,"",NA
"58de70ac1400fc0001207546",150,4,"Global","B","hand",NA,"B7",NA,NA,92,"Study","Bread","B7",2249,"",NA
"58de70ac1400fc0001207546",151,4,"Global","B","boot",NA,"B8",NA,NA,93,"Study","Bread","B8",1566,"",NA
"58de70ac1400fc0001207546",152,4,"Global","B","yard",NA,"B9",NA,NA,94,"Study","Bread","B9",1571,"",NA
"58de70ac1400fc0001207546",153,4,"Global","B","kick",NA,"B10",NA,NA,95,"Study","Bread","B10",1539,"",NA
"58de70ac1400fc0001207546",154,4,"Global","B","knee",NA,"B11",NA,NA,96,"Study","Bread","B11",1363,"",NA
"58de70ac1400fc0001207546",155,4,"Global","B","walk",NA,"B12",NA,NA,97,"Study","Bread","B12",1466,"",NA
"58de70ac1400fc0001207546",157,4,"Global","B","",NA,"",NA,NA,0,"JOL_GLOBAL","Related","JOL8",5004,"",20
"58de70ac1400fc0001207546",162,4,"Global","B","",NA,"",NA,NA,0,"FreeRecall","","RECALL_Test",60003,"yard, toe, foot, kick, knee, leg, sock, sandal, shoe, ",NA
"58de70ac1400fc0001207546",164,4,"Global","B","boy",NA,"F1",NA,NA,98,"Study","Flag","F1",2313,"",NA
"58de70ac1400fc0001207546",165,4,"Global","B","dolls",NA,"F2",NA,NA,99,"Study","Flag","F2",1648,"",NA
"58de70ac1400fc0001207546",166,4,"Global","B","pretty",NA,"F3",NA,NA,100,"Study","Flag","F3",1666,"",NA
"58de70ac1400fc0001207546",167,4,"Global","B","female",NA,"F4",NA,NA,101,"Study","Flag","F4",1424,"",NA
"58de70ac1400fc0001207546",168,4,"Global","B","dress",NA,"F5",NA,NA,102,"Study","Flag","F5",1379,"",NA
"58de70ac1400fc0001207546",169,4,"Global","B","date",NA,"F6",NA,NA,103,"Study","Flag","F6",1536,"",NA
"58de70ac1400fc0001207546",170,4,"Global","B","beautiful",NA,"F7",NA,NA,104,"Study","Flag","F7",1557,"",NA
"58de70ac1400fc0001207546",171,4,"Global","B","daughter",NA,"F8",NA,NA,105,"Study","Flag","F8",1274,"",NA
"58de70ac1400fc0001207546",172,4,"Global","B","sister",NA,"F9",NA,NA,106,"Study","Flag","F9",1464,"",NA
"58de70ac1400fc0001207546",173,4,"Global","B","cute",NA,"F10",NA,NA,107,"Study","Flag","F10",1479,"",NA
"58de70ac1400fc0001207546",174,4,"Global","B","niece",NA,"F11",NA,NA,108,"Study","Flag","F11",1468,"",NA
"58de70ac1400fc0001207546",175,4,"Global","B","young",NA,"F12",NA,NA,109,"Study","Flag","F12",1406,"",NA
"58de70ac1400fc0001207546",177,4,"Global","B","",NA,"",NA,NA,0,"JOL_GLOBAL","Related","JOL9",5004,"",10
"58de70ac1400fc0001207546",182,4,"Global","B","",NA,"",NA,NA,0,"FreeRecall","","RECALL_Test",60002,"girl, boy, date, dress, niece, ",NA
"58de70ac1400fc0001207546",184,4,"Global","B","white",NA,"SS1",NA,NA,110,"Study","Shirt","SS1",2026,"",NA
"58de70ac1400fc0001207546",185,4,"Global","B","gray",NA,"SS2",NA,NA,111,"Study","Shirt","SS2",1626,"",NA
"58de70ac1400fc0001207546",186,4,"Global","B","brown",NA,"SS3",NA,NA,112,"Study","Shirt","SS3",1731,"",NA
"58de70ac1400fc0001207546",187,4,"Global","B","coal",NA,"SS4",NA,NA,113,"Study","Shirt","SS4",1532,"",NA
"58de70ac1400fc0001207546",188,4,"Global","B","dark",NA,"SS5",NA,NA,114,"Study","Shirt","SS5",1480,"",NA
"58de70ac1400fc0001207546",189,4,"Global","B","color",NA,"SS6",NA,NA,115,"Study","Shirt","SS6",1541,"",NA
"58de70ac1400fc0001207546",190,4,"Global","B","funeral",NA,"SS7",NA,NA,116,"Study","Shirt","SS7",1271,"",NA
"58de70ac1400fc0001207546",191,4,"Global","B","blue",NA,"SS8",NA,NA,117,"Study","Shirt","SS8",1483,"",NA
"58de70ac1400fc0001207546",192,4,"Global","B","charred",NA,"SS9",NA,NA,118,"Study","Shirt","SS9",1360,"",NA
"58de70ac1400fc0001207546",193,4,"Global","B","ink",NA,"SS10",NA,NA,119,"Study","Shirt","SS10",1590,"",NA
"58de70ac1400fc0001207546",194,4,"Global","B","death",NA,"SS11",NA,NA,120,"Study","Shirt","SS11",1830,"",NA
"58de70ac1400fc0001207546",195,4,"Global","B","cat",NA,"SS12",NA,NA,121,"Study","Shirt","SS12",1577,"",NA
"58de70ac1400fc0001207546",197,4,"Global","B","",NA,"",NA,NA,0,"JOL_GLOBAL","Related","JOL10",5003,"",50
"58de70ac1400fc0001207546",202,4,"Global","B","",NA,"",NA,NA,0,"FreeRecall","","RECALL_Test",60003,"white, black, coal, grey, funeral, death, cat, blue, colour",NA
"5abc11e6e1099600016a3097",4,4,"Global","B","aroma",NA,"Win_1",NA,NA,2,"Study","Window","Win_1",6776,"",NA
"5abc11e6e1099600016a3097",5,4,"Global","B","scent",NA,"Win_2",NA,NA,3,"Study","Window","Win_2",4421,"",NA
"5abc11e6e1099600016a3097",6,4,"Global","B","whiff",NA,"Win_3",NA,NA,4,"Study","Window","Win_3",1629,"",NA
"5abc11e6e1099600016a3097",7,4,"Global","B","stench",NA,"Win_4",NA,NA,5,"Study","Window","Win_4",1914,"",NA
"5abc11e6e1099600016a3097",8,4,"Global","B","reek",NA,"Win_5",NA,NA,6,"Study","Window","Win_5",2259,"",NA
"5abc11e6e1099600016a3097",9,4,"Global","B","sniff",NA,"Win_6",NA,NA,7,"Study","Window","Win_6",1712,"",NA
"5abc11e6e1099600016a3097",10,4,"Global","B","perfume",NA,"Win_7",NA,NA,8,"Study","Window","Win_7",1728,"",NA
"5abc11e6e1099600016a3097",11,4,"Global","B","fragrance",NA,"Win_8",NA,NA,9,"Study","Window","Win_8",1721,"",NA
"5abc11e6e1099600016a3097",12,4,"Global","B","nose",NA,"Win_9",NA,NA,10,"Study","Window","Win_9",1948,"",NA
"5abc11e6e1099600016a3097",13,4,"Global","B","rose",NA,"Win_10",NA,NA,11,"Study","Window","Win_10",2282,"",NA
"5abc11e6e1099600016a3097",14,4,"Global","B","salts",NA,"Win_11",NA,NA,12,"Study","Window","Win_11",2149,"",NA
"5abc11e6e1099600016a3097",15,4,"Global","B","breathe",NA,"Win_12",NA,NA,13,"Study","Window","Win_12",2167,"",NA
"5abc11e6e1099600016a3097",17,4,"Global","B","",NA,"",NA,NA,0,"JOL_GLOBAL","Related","JOL1",5005,"",70
"5abc11e6e1099600016a3097",22,4,"Global","B","",NA,"",NA,NA,0,"FreeRecall","","RECALL_Test",60002,"salts,breathe,reek,sniff,nose,rose ",NA
"5abc11e6e1099600016a3097",24,4,"Global","B","hard",NA,"R1",NA,NA,14,"Study","Rough","R1",18788,"",NA
"5abc11e6e1099600016a3097",25,4,"Global","B","loud",NA,"R2",NA,NA,15,"Study","Rough","R2",4782,"",NA
"5abc11e6e1099600016a3097",26,4,"Global","B","tender",NA,"R3",NA,NA,16,"Study","Rough","R3",1994,"",NA
"5abc11e6e1099600016a3097",27,4,"Global","B","fluffy",NA,"R4",NA,NA,17,"Study","Rough","R4",1728,"",NA
"5abc11e6e1099600016a3097",28,4,"Global","B","pillow",NA,"R5",NA,NA,18,"Study","Rough","R5",1899,"",NA
"5abc11e6e1099600016a3097",29,4,"Global","B","downy",NA,"R6",NA,NA,19,"Study","Rough","R6",1907,"",NA
"5abc11e6e1099600016a3097",30,4,"Global","B","plush",NA,"R7",NA,NA,20,"Study","Rough","R7",1954,"",NA
"5abc11e6e1099600016a3097",31,4,"Global","B","cotton",NA,"R8",NA,NA,21,"Study","Rough","R8",1894,"",NA
"5abc11e6e1099600016a3097",32,4,"Global","B","skin",NA,"R9",NA,NA,22,"Study","Rough","R9",2398,"",NA
"5abc11e6e1099600016a3097",33,4,"Global","B","fur",NA,"R10",NA,NA,23,"Study","Rough","R10",2096,"",NA
"5abc11e6e1099600016a3097",34,4,"Global","B","touch",NA,"R11",NA,NA,24,"Study","Rough","R11",1985,"",NA
"5abc11e6e1099600016a3097",35,4,"Global","B","furry",NA,"R12",NA,NA,25,"Study","Rough","R12",1957,"",NA
"5abc11e6e1099600016a3097",37,4,"Global","B","",NA,"",NA,NA,0,"JOL_GLOBAL","Unrelated","JOL2",5007,"",55
"5abc11e6e1099600016a3097",42,4,"Global","B","",NA,"",NA,NA,0,"FreeRecall","","RECALL_Test",60002,"skin,loud,fur,pillow,hard,cotton,touch",NA
"5abc11e6e1099600016a3097",44,4,"Global","B","honey",NA,"A1",NA,NA,26,"Study","Anger","A1",5574,"",NA
"5abc11e6e1099600016a3097",45,4,"Global","B","bitter",NA,"A2",NA,NA,27,"Study","Anger","A2",3097,"",NA
"5abc11e6e1099600016a3097",46,4,"Global","B","sugar",NA,"A3",NA,NA,28,"Study","Anger","A3",1722,"",NA
"5abc11e6e1099600016a3097",47,4,"Global","B","sour",NA,"A4",NA,NA,29,"Study","Anger","A4",1986,"",NA
"5abc11e6e1099600016a3097",48,4,"Global","B","candy",NA,"A5",NA,NA,30,"Study","Anger","A5",1739,"",NA
"5abc11e6e1099600016a3097",49,4,"Global","B","tart",NA,"A6",NA,NA,31,"Study","Anger","A6",1633,"",NA
"5abc11e6e1099600016a3097",50,4,"Global","B","chocolate",NA,"A7",NA,NA,32,"Study","Anger","A7",2391,"",NA
"5abc11e6e1099600016a3097",51,4,"Global","B","nice",NA,"A8",NA,NA,33,"Study","Anger","A8",1826,"",NA
"5abc11e6e1099600016a3097",52,4,"Global","B","taste",NA,"A9",NA,NA,34,"Study","Anger","A9",1706,"",NA
"5abc11e6e1099600016a3097",53,4,"Global","B","cake",NA,"A10",NA,NA,35,"Study","Anger","A10",1732,"",NA
"5abc11e6e1099600016a3097",54,4,"Global","B","good",NA,"A11",NA,NA,36,"Study","Anger","A11",1844,"",NA
"5abc11e6e1099600016a3097",55,4,"Global","B","tooth",NA,"A12",NA,NA,37,"Study","Anger","A12",1885,"",NA
"5abc11e6e1099600016a3097",57,4,"Global","B","",NA,"",NA,NA,0,"JOL_GLOBAL","Related","JOL3",5005,"",65
"5abc11e6e1099600016a3097",62,4,"Global","B","",NA,"",NA,NA,0,"FreeRecall","","RECALL_Test",60002,"tart,nice,good,tooth,candy,sour,taste,nice,chocolate",NA
"5abc11e6e1099600016a3097",64,4,"Global","B","table",NA,"T1",NA,NA,38,"Study","Trash","T1",6874,"",NA
"5abc11e6e1099600016a3097",65,4,"Global","B","swivel",NA,"T2",NA,NA,39,"Study","Trash","T2",1461,"",NA
"5abc11e6e1099600016a3097",66,4,"Global","B","rocking",NA,"T3",NA,NA,40,"Study","Trash","T3",1509,"",NA
"5abc11e6e1099600016a3097",67,4,"Global","B","recliner",NA,"T4",NA,NA,41,"Study","Trash","T4",1743,"",NA
"5abc11e6e1099600016a3097",68,4,"Global","B","seat",NA,"T5",NA,NA,42,"Study","Trash","T5",1551,"",NA
"5abc11e6e1099600016a3097",69,4,"Global","B","stool",NA,"T6",NA,NA,43,"Study","Trash","T6",1566,"",NA
"5abc11e6e1099600016a3097",70,4,"Global","B","desk",NA,"T7",NA,NA,44,"Study","Trash","T7",1648,"",NA
"5abc11e6e1099600016a3097",71,4,"Global","B","couch",NA,"T8",NA,NA,45,"Study","Trash","T8",1425,"",NA
"5abc11e6e1099600016a3097",72,4,"Global","B","sit",NA,"T9",NA,NA,46,"Study","Trash","T9",1917,"",NA
"5abc11e6e1099600016a3097",73,4,"Global","B","sofa",NA,"T10",NA,NA,47,"Study","Trash","T10",1522,"",NA
"5abc11e6e1099600016a3097",74,4,"Global","B","bench",NA,"T11",NA,NA,48,"Study","Trash","T11",1929,"",NA
"5abc11e6e1099600016a3097",75,4,"Global","B","sitting",NA,"T12",NA,NA,49,"Study","Trash","T12",1650,"",NA
"5abc11e6e1099600016a3097",77,4,"Global","B","",NA,"",NA,NA,0,"JOL_GLOBAL","Related","JOL4",5015,"",67
"5abc11e6e1099600016a3097",82,4,"Global","B","",NA,"",NA,NA,0,"FreeRecall","","RECALL_Test",60001,"sit,couch,sofa,desk,stool,bench,table,seat",NA
"5abc11e6e1099600016a3097",84,4,"Global","B","climber",NA,"D1",NA,NA,50,"Study","Doctor","D1",6819,"",NA
"5abc11e6e1099600016a3097",85,4,"Global","B","hill",NA,"D2",NA,NA,51,"Study","Doctor","D2",1831,"",NA
"5abc11e6e1099600016a3097",86,4,"Global","B","climb",NA,"D3",NA,NA,52,"Study","Doctor","D3",1425,"",NA
"5abc11e6e1099600016a3097",87,4,"Global","B","molehill",NA,"D4",NA,NA,53,"Study","Doctor","D4",1471,"",NA
"5abc11e6e1099600016a3097",88,4,"Global","B","peak",NA,"D5",NA,NA,54,"Study","Doctor","D5",1704,"",NA
"5abc11e6e1099600016a3097",89,4,"Global","B","valley",NA,"D6",NA,NA,55,"Study","Doctor","D6",1414,"",NA
"5abc11e6e1099600016a3097",90,4,"Global","B","summit",NA,"D7",NA,NA,56,"Study","Doctor","D7",1967,"",NA
"5abc11e6e1099600016a3097",91,4,"Global","B","steep",NA,"D8",NA,NA,57,"Study","Doctor","D8",1585,"",NA
"5abc11e6e1099600016a3097",92,4,"Global","B","ski",NA,"D9",NA,NA,58,"Study","Doctor","D9",1652,"",NA
"5abc11e6e1099600016a3097",93,4,"Global","B","bike",NA,"D10",NA,NA,59,"Study","Doctor","D10",1687,"",NA
"5abc11e6e1099600016a3097",94,4,"Global","B","goat",NA,"D11",NA,NA,60,"Study","Doctor","D11",1484,"",NA
"5abc11e6e1099600016a3097",95,4,"Global","B","glacier",NA,"D12",NA,NA,61,"Study","Doctor","D12",3091,"",NA
"5abc11e6e1099600016a3097",97,4,"Global","B","",NA,"",NA,NA,0,"JOL_GLOBAL","Related","JOL5",4301,"",72
"5abc11e6e1099600016a3097",102,4,"Global","B","",NA,"",NA,NA,0,"FreeRecall","","RECALL_Test",60004,"peak,hill,goat,bike,ski,steep,climb,climber,summit",NA
"5abc11e6e1099600016a3097",104,4,"Global","B","band",NA,"S1",NA,NA,62,"Study","Slow","S1",7273,"",NA
"5abc11e6e1099600016a3097",105,4,"Global","B","concert",NA,"S2",NA,NA,63,"Study","Slow","S2",1514,"",NA
"5abc11e6e1099600016a3097",106,4,"Global","B","jazz",NA,"S3",NA,NA,64,"Study","Slow","S3",1444,"",NA
"5abc11e6e1099600016a3097",107,4,"Global","B","symphony",NA,"S4",NA,NA,65,"Study","Slow","S4",1965,"",NA
"5abc11e6e1099600016a3097",108,4,"Global","B","orchestra",NA,"S5",NA,NA,66,"Study","Slow","S5",4485,"",NA
"5abc11e6e1099600016a3097",109,4,"Global","B","rhythm",NA,"S6",NA,NA,67,"Study","Slow","S6",1786,"",NA
"5abc11e6e1099600016a3097",110,4,"Global","B","radio",NA,"S7",NA,NA,68,"Study","Slow","S7",1559,"",NA
"5abc11e6e1099600016a3097",111,4,"Global","B","melody",NA,"S8",NA,NA,69,"Study","Slow","S8",1616,"",NA
"5abc11e6e1099600016a3097",112,4,"Global","B","piano",NA,"S9",NA,NA,70,"Study","Slow","S9",1592,"",NA
"5abc11e6e1099600016a3097",113,4,"Global","B","sound",NA,"S10",NA,NA,71,"Study","Slow","S10",2098,"",NA
"5abc11e6e1099600016a3097",114,4,"Global","B","instrument",NA,"S11",NA,NA,72,"Study","Slow","S11",2360,"",NA
"5abc11e6e1099600016a3097",115,4,"Global","B","note",NA,"S12",NA,NA,73,"Study","Slow","S12",1751,"",NA
"5abc11e6e1099600016a3097",117,4,"Global","B","",NA,"",NA,NA,0,"JOL_GLOBAL","Related","JOL6",5005,"",83
"5abc11e6e1099600016a3097",122,4,"Global","B","",NA,"",NA,NA,0,"FreeRecall","","RECALL_Test",60003,"jazz,concert,band,piano,sound,radio,note,rhythm,melody",NA
"5abc11e6e1099600016a3097",124,4,"Global","B","foam",NA,"RR1",NA,NA,74,"Study","River","RR1",9629,"",NA
"5abc11e6e1099600016a3097",125,4,"Global","B","latex",NA,"RR2",NA,NA,75,"Study","River","RR2",2993,"",NA
"5abc11e6e1099600016a3097",126,4,"Global","B","galoshes",NA,"RR3",NA,NA,76,"Study","River","RR3",1486,"",NA
"5abc11e6e1099600016a3097",127,4,"Global","B","tire",NA,"RR4",NA,NA,77,"Study","River","RR4",1577,"",NA
"5abc11e6e1099600016a3097",128,4,"Global","B","flexible",NA,"RR5",NA,NA,78,"Study","River","RR5",1407,"",NA
"5abc11e6e1099600016a3097",129,4,"Global","B","elastic",NA,"RR6",NA,NA,79,"Study","River","RR6",1481,"",NA
"5abc11e6e1099600016a3097",130,4,"Global","B","gloves",NA,"RR7",NA,NA,80,"Study","River","RR7",1478,"",NA
"5abc11e6e1099600016a3097",131,4,"Global","B","eraser",NA,"RR8",NA,NA,81,"Study","River","RR8",1571,"",NA
"5abc11e6e1099600016a3097",132,4,"Global","B","bounce",NA,"RR9",NA,NA,82,"Study","River","RR9",1771,"",NA
"5abc11e6e1099600016a3097",133,4,"Global","B","ball",NA,"RR10",NA,NA,83,"Study","River","RR10",1352,"",NA
"5abc11e6e1099600016a3097",134,4,"Global","B","soles",NA,"RR11",NA,NA,84,"Study","River","RR11",1462,"",NA
"5abc11e6e1099600016a3097",135,4,"Global","B","springy",NA,"RR12",NA,NA,85,"Study","River","RR12",1511,"",NA
"5abc11e6e1099600016a3097",137,4,"Global","B","",NA,"",NA,NA,0,"JOL_GLOBAL","Related","JOL7",5003,"",75
"5abc11e6e1099600016a3097",142,4,"Global","B","",NA,"",NA,NA,0,"FreeRecall","","RECALL_Test",60029,"soles,ball,tire,gloves,foam,latex,elastic,bounce,flexible",NA
"5abc11e6e1099600016a3097",144,4,"Global","B","toe",NA,"B1",NA,NA,86,"Study","Bread","B1",3235,"",NA
"5abc11e6e1099600016a3097",145,4,"Global","B","inch",NA,"B2",NA,NA,87,"Study","Bread","B2",1682,"",NA
"5abc11e6e1099600016a3097",146,4,"Global","B","ankle",NA,"B3",NA,NA,88,"Study","Bread","B3",2185,"",NA
"5abc11e6e1099600016a3097",147,4,"Global","B","shoe",NA,"B4",NA,NA,89,"Study","Bread","B4",1580,"",NA
"5abc11e6e1099600016a3097",148,4,"Global","B","sandals",NA,"B5",NA,NA,90,"Study","Bread","B5",1526,"",NA
"5abc11e6e1099600016a3097",149,4,"Global","B","sock",NA,"B6",NA,NA,91,"Study","Bread","B6",1625,"",NA
"5abc11e6e1099600016a3097",150,4,"Global","B","hand",NA,"B7",NA,NA,92,"Study","Bread","B7",1494,"",NA
"5abc11e6e1099600016a3097",151,4,"Global","B","boot",NA,"B8",NA,NA,93,"Study","Bread","B8",1593,"",NA
"5abc11e6e1099600016a3097",152,4,"Global","B","yard",NA,"B9",NA,NA,94,"Study","Bread","B9",1532,"",NA
"5abc11e6e1099600016a3097",153,4,"Global","B","kick",NA,"B10",NA,NA,95,"Study","Bread","B10",1673,"",NA
"5abc11e6e1099600016a3097",154,4,"Global","B","knee",NA,"B11",NA,NA,96,"Study","Bread","B11",1556,"",NA
"5abc11e6e1099600016a3097",155,4,"Global","B","walk",NA,"B12",NA,NA,97,"Study","Bread","B12",1674,"",NA
"5abc11e6e1099600016a3097",157,4,"Global","B","",NA,"",NA,NA,0,"JOL_GLOBAL","Related","JOL8",5002,"",85
"5abc11e6e1099600016a3097",162,4,"Global","B","",NA,"",NA,NA,0,"FreeRecall","","RECALL_Test",60001,"knee,kick,boot,sock,hand,ball,shoe,sole,ankle,toe,hand,foot",NA
"5abc11e6e1099600016a3097",164,4,"Global","B","boy",NA,"F1",NA,NA,98,"Study","Flag","F1",5623,"",NA
"5abc11e6e1099600016a3097",165,4,"Global","B","dolls",NA,"F2",NA,NA,99,"Study","Flag","F2",1479,"",NA
"5abc11e6e1099600016a3097",166,4,"Global","B","pretty",NA,"F3",NA,NA,100,"Study","Flag","F3",1499,"",NA
"5abc11e6e1099600016a3097",167,4,"Global","B","female",NA,"F4",NA,NA,101,"Study","Flag","F4",1517,"",NA
"5abc11e6e1099600016a3097",168,4,"Global","B","dress",NA,"F5",NA,NA,102,"Study","Flag","F5",1374,"",NA
"5abc11e6e1099600016a3097",169,4,"Global","B","date",NA,"F6",NA,NA,103,"Study","Flag","F6",1420,"",NA
"5abc11e6e1099600016a3097",170,4,"Global","B","beautiful",NA,"F7",NA,NA,104,"Study","Flag","F7",1716,"",NA
"5abc11e6e1099600016a3097",171,4,"Global","B","daughter",NA,"F8",NA,NA,105,"Study","Flag","F8",1419,"",NA
"5abc11e6e1099600016a3097",172,4,"Global","B","sister",NA,"F9",NA,NA,106,"Study","Flag","F9",1520,"",NA
"5abc11e6e1099600016a3097",173,4,"Global","B","cute",NA,"F10",NA,NA,107,"Study","Flag","F10",1818,"",NA
"5abc11e6e1099600016a3097",174,4,"Global","B","niece",NA,"F11",NA,NA,108,"Study","Flag","F11",1456,"",NA
"5abc11e6e1099600016a3097",175,4,"Global","B","young",NA,"F12",NA,NA,109,"Study","Flag","F12",1575,"",NA
"5abc11e6e1099600016a3097",177,4,"Global","B","",NA,"",NA,NA,0,"JOL_GLOBAL","Related","JOL9",5002,"",68
"5abc11e6e1099600016a3097",182,4,"Global","B","",NA,"",NA,NA,0,"FreeRecall","","RECALL_Test",60001,"boy,girl,male,female,brother,sister,dress,doll,date",NA
"5abc11e6e1099600016a3097",184,4,"Global","B","white",NA,"SS1",NA,NA,110,"Study","Shirt","SS1",4899,"",NA
"5abc11e6e1099600016a3097",185,4,"Global","B","gray",NA,"SS2",NA,NA,111,"Study","Shirt","SS2",1518,"",NA
"5abc11e6e1099600016a3097",186,4,"Global","B","brown",NA,"SS3",NA,NA,112,"Study","Shirt","SS3",2106,"",NA
"5abc11e6e1099600016a3097",187,4,"Global","B","coal",NA,"SS4",NA,NA,113,"Study","Shirt","SS4",1423,"",NA
"5abc11e6e1099600016a3097",188,4,"Global","B","dark",NA,"SS5",NA,NA,114,"Study","Shirt","SS5",1376,"",NA
"5abc11e6e1099600016a3097",189,4,"Global","B","color",NA,"SS6",NA,NA,115,"Study","Shirt","SS6",1382,"",NA
"5abc11e6e1099600016a3097",190,4,"Global","B","funeral",NA,"SS7",NA,NA,116,"Study","Shirt","SS7",1363,"",NA
"5abc11e6e1099600016a3097",191,4,"Global","B","blue",NA,"SS8",NA,NA,117,"Study","Shirt","SS8",1415,"",NA
"5abc11e6e1099600016a3097",192,4,"Global","B","charred",NA,"SS9",NA,NA,118,"Study","Shirt","SS9",1353,"",NA
"5abc11e6e1099600016a3097",193,4,"Global","B","ink",NA,"SS10",NA,NA,119,"Study","Shirt","SS10",1452,"",NA
"5abc11e6e1099600016a3097",194,4,"Global","B","death",NA,"SS11",NA,NA,120,"Study","Shirt","SS11",2087,"",NA
"5abc11e6e1099600016a3097",195,4,"Global","B","cat",NA,"SS12",NA,NA,121,"Study","Shirt","SS12",1582,"",NA
"5abc11e6e1099600016a3097",197,4,"Global","B","",NA,"",NA,NA,0,"JOL_GLOBAL","Related","JOL10",5002,"",68
"5abc11e6e1099600016a3097",202,4,"Global","B","",NA,"",NA,NA,0,"FreeRecall","","RECALL_Test",60001,"dark,grey,gray,ink,coal,brown,color,blue,white",NA
"5c0d8bca22f3eb000116c33d",4,4,"Global","B","aroma",NA,"Win_1",NA,NA,2,"Study","Window","Win_1",2228,"",NA
"5c0d8bca22f3eb000116c33d",5,4,"Global","B","scent",NA,"Win_2",NA,NA,3,"Study","Window","Win_2",2114,"",NA
"5c0d8bca22f3eb000116c33d",6,4,"Global","B","whiff",NA,"Win_3",NA,NA,4,"Study","Window","Win_3",1733,"",NA
"5c0d8bca22f3eb000116c33d",7,4,"Global","B","stench",NA,"Win_4",NA,NA,5,"Study","Window","Win_4",1865,"",NA
"5c0d8bca22f3eb000116c33d",8,4,"Global","B","reek",NA,"Win_5",NA,NA,6,"Study","Window","Win_5",1561,"",NA
"5c0d8bca22f3eb000116c33d",9,4,"Global","B","sniff",NA,"Win_6",NA,NA,7,"Study","Window","Win_6",1446,"",NA
"5c0d8bca22f3eb000116c33d",10,4,"Global","B","perfume",NA,"Win_7",NA,NA,8,"Study","Window","Win_7",2109,"",NA
"5c0d8bca22f3eb000116c33d",11,4,"Global","B","fragrance",NA,"Win_8",NA,NA,9,"Study","Window","Win_8",1666,"",NA
"5c0d8bca22f3eb000116c33d",12,4,"Global","B","nose",NA,"Win_9",NA,NA,10,"Study","Window","Win_9",1560,"",NA
"5c0d8bca22f3eb000116c33d",13,4,"Global","B","rose",NA,"Win_10",NA,NA,11,"Study","Window","Win_10",1728,"",NA
"5c0d8bca22f3eb000116c33d",14,4,"Global","B","salts",NA,"Win_11",NA,NA,12,"Study","Window","Win_11",1797,"",NA
"5c0d8bca22f3eb000116c33d",15,4,"Global","B","breathe",NA,"Win_12",NA,NA,13,"Study","Window","Win_12",1861,"",NA
"5c0d8bca22f3eb000116c33d",17,4,"Global","B","",NA,"",NA,NA,0,"JOL_GLOBAL","Related","JOL1",5010,"",80
"5c0d8bca22f3eb000116c33d",22,4,"Global","B","",NA,"",NA,NA,0,"FreeRecall","","RECALL_Test",60000,"perfume, nose, rose, whiff, scent, aroma, sniff, salts, ",NA
"5c0d8bca22f3eb000116c33d",24,4,"Global","B","hard",NA,"R1",NA,NA,14,"Study","Rough","R1",6701,"",NA
"5c0d8bca22f3eb000116c33d",25,4,"Global","B","loud",NA,"R2",NA,NA,15,"Study","Rough","R2",3881,"",NA
"5c0d8bca22f3eb000116c33d",26,4,"Global","B","tender",NA,"R3",NA,NA,16,"Study","Rough","R3",3341,"",NA
"5c0d8bca22f3eb000116c33d",27,4,"Global","B","fluffy",NA,"R4",NA,NA,17,"Study","Rough","R4",2399,"",NA
"5c0d8bca22f3eb000116c33d",28,4,"Global","B","pillow",NA,"R5",NA,NA,18,"Study","Rough","R5",2258,"",NA
"5c0d8bca22f3eb000116c33d",29,4,"Global","B","downy",NA,"R6",NA,NA,19,"Study","Rough","R6",1790,"",NA
"5c0d8bca22f3eb000116c33d",30,4,"Global","B","plush",NA,"R7",NA,NA,20,"Study","Rough","R7",2411,"",NA
"5c0d8bca22f3eb000116c33d",31,4,"Global","B","cotton",NA,"R8",NA,NA,21,"Study","Rough","R8",1867,"",NA
"5c0d8bca22f3eb000116c33d",32,4,"Global","B","skin",NA,"R9",NA,NA,22,"Study","Rough","R9",2252,"",NA
"5c0d8bca22f3eb000116c33d",33,4,"Global","B","fur",NA,"R10",NA,NA,23,"Study","Rough","R10",2337,"",NA
"5c0d8bca22f3eb000116c33d",34,4,"Global","B","touch",NA,"R11",NA,NA,24,"Study","Rough","R11",1859,"",NA
"5c0d8bca22f3eb000116c33d",35,4,"Global","B","furry",NA,"R12",NA,NA,25,"Study","Rough","R12",1670,"",NA
"5c0d8bca22f3eb000116c33d",37,4,"Global","B","",NA,"",NA,NA,0,"JOL_GLOBAL","Unrelated","JOL2",5004,"",70
"5c0d8bca22f3eb000116c33d",42,4,"Global","B","",NA,"",NA,NA,0,"FreeRecall","","RECALL_Test",60004,"cotton, pillow, cotton, skin, fluffy, touch, loud, tender, soft, ",NA
"5c0d8bca22f3eb000116c33d",44,4,"Global","B","honey",NA,"A1",NA,NA,26,"Study","Anger","A1",2019,"",NA
"5c0d8bca22f3eb000116c33d",45,4,"Global","B","bitter",NA,"A2",NA,NA,27,"Study","Anger","A2",1873,"",NA
"5c0d8bca22f3eb000116c33d",46,4,"Global","B","sugar",NA,"A3",NA,NA,28,"Study","Anger","A3",3964,"",NA
"5c0d8bca22f3eb000116c33d",47,4,"Global","B","sour",NA,"A4",NA,NA,29,"Study","Anger","A4",3032,"",NA
"5c0d8bca22f3eb000116c33d",48,4,"Global","B","candy",NA,"A5",NA,NA,30,"Study","Anger","A5",3856,"",NA
"5c0d8bca22f3eb000116c33d",49,4,"Global","B","tart",NA,"A6",NA,NA,31,"Study","Anger","A6",2348,"",NA
"5c0d8bca22f3eb000116c33d",50,4,"Global","B","chocolate",NA,"A7",NA,NA,32,"Study","Anger","A7",2969,"",NA
"5c0d8bca22f3eb000116c33d",51,4,"Global","B","nice",NA,"A8",NA,NA,33,"Study","Anger","A8",2431,"",NA
"5c0d8bca22f3eb000116c33d",52,4,"Global","B","taste",NA,"A9",NA,NA,34,"Study","Anger","A9",2239,"",NA
"5c0d8bca22f3eb000116c33d",53,4,"Global","B","cake",NA,"A10",NA,NA,35,"Study","Anger","A10",1727,"",NA
"5c0d8bca22f3eb000116c33d",54,4,"Global","B","good",NA,"A11",NA,NA,36,"Study","Anger","A11",2100,"",NA
"5c0d8bca22f3eb000116c33d",55,4,"Global","B","tooth",NA,"A12",NA,NA,37,"Study","Anger","A12",2468,"",NA
"5c0d8bca22f3eb000116c33d",57,4,"Global","B","",NA,"",NA,NA,0,"JOL_GLOBAL","Related","JOL3",5004,"",75
"5c0d8bca22f3eb000116c33d",62,4,"Global","B","",NA,"",NA,NA,0,"FreeRecall","","RECALL_Test",60070,"sugar, candy, chocolate, tooth, cake, sour, tart, honey, ",NA
"5c0d8bca22f3eb000116c33d",64,4,"Global","B","table",NA,"T1",NA,NA,38,"Study","Trash","T1",1837,"",NA
"5c0d8bca22f3eb000116c33d",65,4,"Global","B","swivel",NA,"T2",NA,NA,39,"Study","Trash","T2",3060,"",NA
"5c0d8bca22f3eb000116c33d",66,4,"Global","B","rocking",NA,"T3",NA,NA,40,"Study","Trash","T3",2289,"",NA
"5c0d8bca22f3eb000116c33d",67,4,"Global","B","recliner",NA,"T4",NA,NA,41,"Study","Trash","T4",2460,"",NA
"5c0d8bca22f3eb000116c33d",68,4,"Global","B","seat",NA,"T5",NA,NA,42,"Study","Trash","T5",1955,"",NA
"5c0d8bca22f3eb000116c33d",69,4,"Global","B","stool",NA,"T6",NA,NA,43,"Study","Trash","T6",3271,"",NA
"5c0d8bca22f3eb000116c33d",70,4,"Global","B","desk",NA,"T7",NA,NA,44,"Study","Trash","T7",2652,"",NA
"5c0d8bca22f3eb000116c33d",71,4,"Global","B","couch",NA,"T8",NA,NA,45,"Study","Trash","T8",1741,"",NA
"5c0d8bca22f3eb000116c33d",72,4,"Global","B","sit",NA,"T9",NA,NA,46,"Study","Trash","T9",2001,"",NA
"5c0d8bca22f3eb000116c33d",73,4,"Global","B","sofa",NA,"T10",NA,NA,47,"Study","Trash","T10",1879,"",NA
"5c0d8bca22f3eb000116c33d",74,4,"Global","B","bench",NA,"T11",NA,NA,48,"Study","Trash","T11",2468,"",NA
"5c0d8bca22f3eb000116c33d",75,4,"Global","B","sitting",NA,"T12",NA,NA,49,"Study","Trash","T12",2158,"",NA
"5c0d8bca22f3eb000116c33d",77,4,"Global","B","",NA,"",NA,NA,0,"JOL_GLOBAL","Related","JOL4",5017,"",50
"5c0d8bca22f3eb000116c33d",82,4,"Global","B","",NA,"",NA,NA,0,"FreeRecall","","RECALL_Test",60207,"chair, sit, sitting, table, bench, chair, sofa, couch, desk, ",NA
"5c0d8bca22f3eb000116c33d",84,4,"Global","B","climber",NA,"D1",NA,NA,50,"Study","Doctor","D1",3330,"",NA
"5c0d8bca22f3eb000116c33d",85,4,"Global","B","hill",NA,"D2",NA,NA,51,"Study","Doctor","D2",3425,"",NA
"5c0d8bca22f3eb000116c33d",86,4,"Global","B","climb",NA,"D3",NA,NA,52,"Study","Doctor","D3",2870,"",NA
"5c0d8bca22f3eb000116c33d",87,4,"Global","B","molehill",NA,"D4",NA,NA,53,"Study","Doctor","D4",2026,"",NA
"5c0d8bca22f3eb000116c33d",88,4,"Global","B","peak",NA,"D5",NA,NA,54,"Study","Doctor","D5",1665,"",NA
"5c0d8bca22f3eb000116c33d",89,4,"Global","B","valley",NA,"D6",NA,NA,55,"Study","Doctor","D6",1760,"",NA
"5c0d8bca22f3eb000116c33d",90,4,"Global","B","summit",NA,"D7",NA,NA,56,"Study","Doctor","D7",2067,"",NA
"5c0d8bca22f3eb000116c33d",91,4,"Global","B","steep",NA,"D8",NA,NA,57,"Study","Doctor","D8",1786,"",NA
"5c0d8bca22f3eb000116c33d",92,4,"Global","B","ski",NA,"D9",NA,NA,58,"Study","Doctor","D9",1712,"",NA
"5c0d8bca22f3eb000116c33d",93,4,"Global","B","bike",NA,"D10",NA,NA,59,"Study","Doctor","D10",1864,"",NA
"5c0d8bca22f3eb000116c33d",94,4,"Global","B","goat",NA,"D11",NA,NA,60,"Study","Doctor","D11",1649,"",NA
"5c0d8bca22f3eb000116c33d",95,4,"Global","B","glacier",NA,"D12",NA,NA,61,"Study","Doctor","D12",1853,"",NA
"5c0d8bca22f3eb000116c33d",97,4,"Global","B","",NA,"",NA,NA,0,"JOL_GLOBAL","Related","JOL5",5001,"",30
"5c0d8bca22f3eb000116c33d",102,4,"Global","B","",NA,"",NA,NA,0,"FreeRecall","","RECALL_Test",60450,"climb, climber, valley, peak, summit, bike, ",NA
"5c0d8bca22f3eb000116c33d",104,4,"Global","B","band",NA,"S1",NA,NA,62,"Study","Slow","S1",2301,"",NA
"5c0d8bca22f3eb000116c33d",105,4,"Global","B","concert",NA,"S2",NA,NA,63,"Study","Slow","S2",2326,"",NA
"5c0d8bca22f3eb000116c33d",106,4,"Global","B","jazz",NA,"S3",NA,NA,64,"Study","Slow","S3",3680,"",NA
"5c0d8bca22f3eb000116c33d",107,4,"Global","B","symphony",NA,"S4",NA,NA,65,"Study","Slow","S4",1340,"",NA
"5c0d8bca22f3eb000116c33d",108,4,"Global","B","orchestra",NA,"S5",NA,NA,66,"Study","Slow","S5",2475,"",NA
"5c0d8bca22f3eb000116c33d",109,4,"Global","B","rhythm",NA,"S6",NA,NA,67,"Study","Slow","S6",2205,"",NA
"5c0d8bca22f3eb000116c33d",110,4,"Global","B","radio",NA,"S7",NA,NA,68,"Study","Slow","S7",1265,"",NA
"5c0d8bca22f3eb000116c33d",111,4,"Global","B","melody",NA,"S8",NA,NA,69,"Study","Slow","S8",2352,"",NA
"5c0d8bca22f3eb000116c33d",112,4,"Global","B","piano",NA,"S9",NA,NA,70,"Study","Slow","S9",2757,"",NA
"5c0d8bca22f3eb000116c33d",113,4,"Global","B","sound",NA,"S10",NA,NA,71,"Study","Slow","S10",1999,"",NA
"5c0d8bca22f3eb000116c33d",114,4,"Global","B","instrument",NA,"S11",NA,NA,72,"Study","Slow","S11",3039,"",NA
"5c0d8bca22f3eb000116c33d",115,4,"Global","B","note",NA,"S12",NA,NA,73,"Study","Slow","S12",1904,"",NA
"5c0d8bca22f3eb000116c33d",117,4,"Global","B","",NA,"",NA,NA,0,"JOL_GLOBAL","Related","JOL6",5014,"",50
"5c0d8bca22f3eb000116c33d",122,4,"Global","B","",NA,"",NA,NA,0,"FreeRecall","","RECALL_Test",60006,"melody, note, piano, jazz, orchestra, music, band, rhythm",NA
"5c0d8bca22f3eb000116c33d",124,4,"Global","B","foam",NA,"RR1",NA,NA,74,"Study","River","RR1",2023,"",NA
"5c0d8bca22f3eb000116c33d",125,4,"Global","B","latex",NA,"RR2",NA,NA,75,"Study","River","RR2",2990,"",NA
"5c0d8bca22f3eb000116c33d",126,4,"Global","B","galoshes",NA,"RR3",NA,NA,76,"Study","River","RR3",3182,"",NA
"5c0d8bca22f3eb000116c33d",127,4,"Global","B","tire",NA,"RR4",NA,NA,77,"Study","River","RR4",1796,"",NA
"5c0d8bca22f3eb000116c33d",128,4,"Global","B","flexible",NA,"RR5",NA,NA,78,"Study","River","RR5",2211,"",NA
"5c0d8bca22f3eb000116c33d",129,4,"Global","B","elastic",NA,"RR6",NA,NA,79,"Study","River","RR6",1951,"",NA
"5c0d8bca22f3eb000116c33d",130,4,"Global","B","gloves",NA,"RR7",NA,NA,80,"Study","River","RR7",2474,"",NA
"5c0d8bca22f3eb000116c33d",131,4,"Global","B","eraser",NA,"RR8",NA,NA,81,"Study","River","RR8",2179,"",NA
"5c0d8bca22f3eb000116c33d",132,4,"Global","B","bounce",NA,"RR9",NA,NA,82,"Study","River","RR9",1951,"",NA
"5c0d8bca22f3eb000116c33d",133,4,"Global","B","ball",NA,"RR10",NA,NA,83,"Study","River","RR10",1623,"",NA
"5c0d8bca22f3eb000116c33d",134,4,"Global","B","soles",NA,"RR11",NA,NA,84,"Study","River","RR11",1856,"",NA
"5c0d8bca22f3eb000116c33d",135,4,"Global","B","springy",NA,"RR12",NA,NA,85,"Study","River","RR12",2585,"",NA
"5c0d8bca22f3eb000116c33d",137,4,"Global","B","",NA,"",NA,NA,0,"JOL_GLOBAL","Related","JOL7",5002,"",30
"5c0d8bca22f3eb000116c33d",142,4,"Global","B","",NA,"",NA,NA,0,"FreeRecall","","RECALL_Test",60072,"latex, gloves, ball, bouncy, ",NA
"5c0d8bca22f3eb000116c33d",144,4,"Global","B","toe",NA,"B1",NA,NA,86,"Study","Bread","B1",2445,"",NA
"5c0d8bca22f3eb000116c33d",145,4,"Global","B","inch",NA,"B2",NA,NA,87,"Study","Bread","B2",3152,"",NA
"5c0d8bca22f3eb000116c33d",146,4,"Global","B","ankle",NA,"B3",NA,NA,88,"Study","Bread","B3",3495,"",NA
"5c0d8bca22f3eb000116c33d",147,4,"Global","B","shoe",NA,"B4",NA,NA,89,"Study","Bread","B4",1699,"",NA
"5c0d8bca22f3eb000116c33d",148,4,"Global","B","sandals",NA,"B5",NA,NA,90,"Study","Bread","B5",1947,"",NA
"5c0d8bca22f3eb000116c33d",149,4,"Global","B","sock",NA,"B6",NA,NA,91,"Study","Bread","B6",1695,"",NA
"5c0d8bca22f3eb000116c33d",150,4,"Global","B","hand",NA,"B7",NA,NA,92,"Study","Bread","B7",1633,"",NA
"5c0d8bca22f3eb000116c33d",151,4,"Global","B","boot",NA,"B8",NA,NA,93,"Study","Bread","B8",2628,"",NA
"5c0d8bca22f3eb000116c33d",152,4,"Global","B","yard",NA,"B9",NA,NA,94,"Study","Bread","B9",1894,"",NA
"5c0d8bca22f3eb000116c33d",153,4,"Global","B","kick",NA,"B10",NA,NA,95,"Study","Bread","B10",1563,"",NA
"5c0d8bca22f3eb000116c33d",154,4,"Global","B","knee",NA,"B11",NA,NA,96,"Study","Bread","B11",1619,"",NA
"5c0d8bca22f3eb000116c33d",155,4,"Global","B","walk",NA,"B12",NA,NA,97,"Study","Bread","B12",1781,"",NA
"5c0d8bca22f3eb000116c33d",157,4,"Global","B","",NA,"",NA,NA,0,"JOL_GLOBAL","Related","JOL8",5005,"",40
"5c0d8bca22f3eb000116c33d",162,4,"Global","B","",NA,"",NA,NA,0,"FreeRecall","","RECALL_Test",60567,"toe, shoe, sandals, boot, inch",NA
"5c0d8bca22f3eb000116c33d",164,4,"Global","B","boy",NA,"F1",NA,NA,98,"Study","Flag","F1",1663,"",NA
"5c0d8bca22f3eb000116c33d",165,4,"Global","B","dolls",NA,"F2",NA,NA,99,"Study","Flag","F2",1958,"",NA
"5c0d8bca22f3eb000116c33d",166,4,"Global","B","pretty",NA,"F3",NA,NA,100,"Study","Flag","F3",3725,"",NA
"5c0d8bca22f3eb000116c33d",167,4,"Global","B","female",NA,"F4",NA,NA,101,"Study","Flag","F4",2423,"",NA
"5c0d8bca22f3eb000116c33d",168,4,"Global","B","dress",NA,"F5",NA,NA,102,"Study","Flag","F5",1940,"",NA
"5c0d8bca22f3eb000116c33d",169,4,"Global","B","date",NA,"F6",NA,NA,103,"Study","Flag","F6",1595,"",NA
"5c0d8bca22f3eb000116c33d",170,4,"Global","B","beautiful",NA,"F7",NA,NA,104,"Study","Flag","F7",1892,"",NA
"5c0d8bca22f3eb000116c33d",171,4,"Global","B","daughter",NA,"F8",NA,NA,105,"Study","Flag","F8",1834,"",NA
"5c0d8bca22f3eb000116c33d",172,4,"Global","B","sister",NA,"F9",NA,NA,106,"Study","Flag","F9",2611,"",NA
"5c0d8bca22f3eb000116c33d",173,4,"Global","B","cute",NA,"F10",NA,NA,107,"Study","Flag","F10",1676,"",NA
"5c0d8bca22f3eb000116c33d",174,4,"Global","B","niece",NA,"F11",NA,NA,108,"Study","Flag","F11",2948,"",NA
"5c0d8bca22f3eb000116c33d",175,4,"Global","B","young",NA,"F12",NA,NA,109,"Study","Flag","F12",2064,"",NA
"5c0d8bca22f3eb000116c33d",177,4,"Global","B","",NA,"",NA,NA,0,"JOL_GLOBAL","Related","JOL9",5003,"",60
"5c0d8bca22f3eb000116c33d",182,4,"Global","B","",NA,"",NA,NA,0,"FreeRecall","","RECALL_Test",60598,"female, dolls, date, boy, pretty, dress, daughter",NA
"5c0d8bca22f3eb000116c33d",184,4,"Global","B","white",NA,"SS1",NA,NA,110,"Study","Shirt","SS1",2475,"",NA
"5c0d8bca22f3eb000116c33d",185,4,"Global","B","gray",NA,"SS2",NA,NA,111,"Study","Shirt","SS2",2520,"",NA
"5c0d8bca22f3eb000116c33d",186,4,"Global","B","brown",NA,"SS3",NA,NA,112,"Study","Shirt","SS3",3744,"",NA
"5c0d8bca22f3eb000116c33d",187,4,"Global","B","coal",NA,"SS4",NA,NA,113,"Study","Shirt","SS4",1693,"",NA
"5c0d8bca22f3eb000116c33d",188,4,"Global","B","dark",NA,"SS5",NA,NA,114,"Study","Shirt","SS5",1670,"",NA
"5c0d8bca22f3eb000116c33d",189,4,"Global","B","color",NA,"SS6",NA,NA,115,"Study","Shirt","SS6",1665,"",NA
"5c0d8bca22f3eb000116c33d",190,4,"Global","B","funeral",NA,"SS7",NA,NA,116,"Study","Shirt","SS7",1876,"",NA
"5c0d8bca22f3eb000116c33d",191,4,"Global","B","blue",NA,"SS8",NA,NA,117,"Study","Shirt","SS8",1898,"",NA
"5c0d8bca22f3eb000116c33d",192,4,"Global","B","charred",NA,"SS9",NA,NA,118,"Study","Shirt","SS9",2124,"",NA
"5c0d8bca22f3eb000116c33d",193,4,"Global","B","ink",NA,"SS10",NA,NA,119,"Study","Shirt","SS10",1571,"",NA
"5c0d8bca22f3eb000116c33d",194,4,"Global","B","death",NA,"SS11",NA,NA,120,"Study","Shirt","SS11",2321,"",NA
"5c0d8bca22f3eb000116c33d",195,4,"Global","B","cat",NA,"SS12",NA,NA,121,"Study","Shirt","SS12",1810,"",NA
"5c0d8bca22f3eb000116c33d",197,4,"Global","B","",NA,"",NA,NA,0,"JOL_GLOBAL","Related","JOL10",5002,"",30
"5c0d8bca22f3eb000116c33d",202,4,"Global","B","",NA,"",NA,NA,0,"FreeRecall","","RECALL_Test",60483,"death, funeral, cat, brown, gray, ",NA
"5c7eb22a78402100172fb02c",4,3,"Global","A","pane",NA,"Win_1",NA,NA,2,"Study","Window","Win_1",8093,"",NA
"5c7eb22a78402100172fb02c",5,3,"Global","A","sill",NA,"Win_2",NA,NA,3,"Study","Window","Win_2",5049,"",NA
"5c7eb22a78402100172fb02c",6,3,"Global","A","shutter",NA,"Win_3",NA,NA,4,"Study","Window","Win_3",7465,"",NA
"5c7eb22a78402100172fb02c",7,3,"Global","A","curtain",NA,"Win_4",NA,NA,5,"Study","Window","Win_4",7545,"",NA
"5c7eb22a78402100172fb02c",8,3,"Global","A","door",NA,"Win_5",NA,NA,6,"Study","Window","Win_5",8251,"",NA
"5c7eb22a78402100172fb02c",9,3,"Global","A","ledge",NA,"Win_6",NA,NA,7,"Study","Window","Win_6",6338,"",NA
"5c7eb22a78402100172fb02c",10,3,"Global","A","glass",NA,"Win_7",NA,NA,8,"Study","Window","Win_7",5838,"",NA
"5c7eb22a78402100172fb02c",11,3,"Global","A","view",NA,"Win_8",NA,NA,9,"Study","Window","Win_8",5244,"",NA
"5c7eb22a78402100172fb02c",12,3,"Global","A","screen",NA,"Win_9",NA,NA,10,"Study","Window","Win_9",6918,"",NA
"5c7eb22a78402100172fb02c",13,3,"Global","A","shade",NA,"Win_10",NA,NA,11,"Study","Window","Win_10",6859,"",NA
"5c7eb22a78402100172fb02c",14,3,"Global","A","open",NA,"Win_11",NA,NA,12,"Study","Window","Win_11",4662,"",NA
"5c7eb22a78402100172fb02c",15,3,"Global","A","frame",NA,"Win_12",NA,NA,13,"Study","Window","Win_12",5243,"",NA
"5c7eb22a78402100172fb02c",17,3,"Global","A","",NA,"",NA,NA,0,"JOL_GLOBAL","Related","JOL1",5005,"",NA
"5c7eb22a78402100172fb02c",22,3,"Global","A","",NA,"",NA,NA,0,"FreeRecall","","RECALL_Test",60010,"curtain, door, ledge, sill, glass, view, screen, shade, open, frame",NA
"5c7eb22a78402100172fb02c",24,3,"Global","A","sandpaper",NA,"R1",NA,NA,14,"Study","Rough","R1",35756,"",NA
"5c7eb22a78402100172fb02c",25,3,"Global","A","smooth",NA,"R2",NA,NA,15,"Study","Rough","R2",6197,"",NA
"5c7eb22a78402100172fb02c",26,3,"Global","A","coarse",NA,"R3",NA,NA,16,"Study","Rough","R3",5326,"",NA
"5c7eb22a78402100172fb02c",27,3,"Global","A","tough",NA,"R4",NA,NA,17,"Study","Rough","R4",4929,"",NA
"5c7eb22a78402100172fb02c",28,3,"Global","A","rugged",NA,"R5",NA,NA,18,"Study","Rough","R5",5329,"",NA
"5c7eb22a78402100172fb02c",29,3,"Global","A","bumpy",NA,"R6",NA,NA,19,"Study","Rough","R6",5766,"",NA
"5c7eb22a78402100172fb02c",30,3,"Global","A","jagged",NA,"R7",NA,NA,20,"Study","Rough","R7",6020,"",NA
"5c7eb22a78402100172fb02c",31,3,"Global","A","riders",NA,"R8",NA,NA,21,"Study","Rough","R8",5831,"",NA
"5c7eb22a78402100172fb02c",32,3,"Global","A","uneven",NA,"R9",NA,NA,22,"Study","Rough","R9",6105,"",NA
"5c7eb22a78402100172fb02c",33,3,"Global","A","road",NA,"R10",NA,NA,23,"Study","Rough","R10",4565,"",NA
"5c7eb22a78402100172fb02c",34,3,"Global","A","ready",NA,"R11",NA,NA,24,"Study","Rough","R11",5263,"",NA
"5c7eb22a78402100172fb02c",35,3,"Global","A","sand",NA,"R12",NA,NA,25,"Study","Rough","R12",4149,"",NA
"5c7eb22a78402100172fb02c",37,3,"Global","A","",NA,"",NA,NA,0,"JOL_GLOBAL","Unrelated","JOL2",5002,"",0
"5c7eb22a78402100172fb02c",42,3,"Global","A","",NA,"",NA,NA,0,"FreeRecall","","RECALL_Test",60007,"smooth, tough, bumpy, riders, road, sand, sandpaper, ready",NA
"5c7eb22a78402100172fb02c",44,3,"Global","A","rage",NA,"A1",NA,NA,26,"Study","Anger","A1",16201,"",NA
"5c7eb22a78402100172fb02c",45,3,"Global","A","mad",NA,"A2",NA,NA,27,"Study","Anger","A2",7196,"",NA
"5c7eb22a78402100172fb02c",46,3,"Global","A","enrage",NA,"A3",NA,NA,28,"Study","Anger","A3",5642,"",NA
"5c7eb22a78402100172fb02c",47,3,"Global","A","fury",NA,"A4",NA,NA,29,"Study","Anger","A4",4931,"",NA
"5c7eb22a78402100172fb02c",48,3,"Global","A","temper",NA,"A5",NA,NA,30,"Study","Anger","A5",5599,"",NA
"5c7eb22a78402100172fb02c",49,3,"Global","A","ire",NA,"A6",NA,NA,31,"Study","Anger","A6",3612,"",NA
"5c7eb22a78402100172fb02c",50,3,"Global","A","wrath",NA,"A7",NA,NA,32,"Study","Anger","A7",4744,"",NA
"5c7eb22a78402100172fb02c",51,3,"Global","A","mean",NA,"A8",NA,NA,33,"Study","Anger","A8",3911,"",NA
"5c7eb22a78402100172fb02c",52,3,"Global","A","hatred",NA,"A9",NA,NA,34,"Study","Anger","A9",4912,"",NA
"5c7eb22a78402100172fb02c",53,3,"Global","A","fight",NA,"A10",NA,NA,35,"Study","Anger","A10",4800,"",NA
"5c7eb22a78402100172fb02c",54,3,"Global","A","hate",NA,"A11",NA,NA,36,"Study","Anger","A11",4196,"",NA
"5c7eb22a78402100172fb02c",55,3,"Global","A","fear",NA,"A12",NA,NA,37,"Study","Anger","A12",3812,"",NA
"5c7eb22a78402100172fb02c",57,3,"Global","A","",NA,"",NA,NA,0,"JOL_GLOBAL","Related","JOL3",5003,"",3
"5c7eb22a78402100172fb02c",62,3,"Global","A","",NA,"",NA,NA,0,"FreeRecall","","RECALL_Test",60006,"mean, hatred, hate, fight, mad, range, temper, mean, fury",NA
"5c7eb22a78402100172fb02c",64,3,"Global","A","garbage",NA,"T1",NA,NA,38,"Study","Trash","T1",10420,"",NA
"5c7eb22a78402100172fb02c",65,3,"Global","A","rubbish",NA,"T2",NA,NA,39,"Study","Trash","T2",12514,"",NA
"5c7eb22a78402100172fb02c",66,3,"Global","A","debris",NA,"T3",NA,NA,40,"Study","Trash","T3",22231,"",NA
"5c7eb22a78402100172fb02c",67,3,"Global","A","dump",NA,"T4",NA,NA,41,"Study","Trash","T4",13043,"",NA
"5c7eb22a78402100172fb02c",68,3,"Global","A","litter",NA,"T5",NA,NA,42,"Study","Trash","T5",7073,"",NA
"5c7eb22a78402100172fb02c",69,3,"Global","A","landfill",NA,"T6",NA,NA,43,"Study","Trash","T6",7790,"",NA
"5c7eb22a78402100172fb02c",70,3,"Global","A","junk",NA,"T7",NA,NA,44,"Study","Trash","T7",5653,"",NA
"5c7eb22a78402100172fb02c",71,3,"Global","A","waste",NA,"T8",NA,NA,45,"Study","Trash","T8",5998,"",NA
"5c7eb22a78402100172fb02c",72,3,"Global","A","sewage",NA,"T9",NA,NA,46,"Study","Trash","T9",2387,"",NA
"5c7eb22a78402100172fb02c",73,3,"Global","A","pile",NA,"T10",NA,NA,47,"Study","Trash","T10",8113,"",NA
"5c7eb22a78402100172fb02c",74,3,"Global","A","scraps",NA,"T11",NA,NA,48,"Study","Trash","T11",7768,"",NA
"5c7eb22a78402100172fb02c",75,3,"Global","A","refuse",NA,"T12",NA,NA,49,"Study","Trash","T12",9397,"",NA
"5c7eb22a78402100172fb02c",77,3,"Global","A","",NA,"",NA,NA,0,"JOL_GLOBAL","Related","JOL4",5003,"",2
"5c7eb22a78402100172fb02c",82,3,"Global","A","",NA,"",NA,NA,0,"FreeRecall","","RECALL_Test",60006,"rubbish, landfill, litter, dump, refuse, junk, waste, scraps, pile, garbage",NA
"5c7eb22a78402100172fb02c",84,3,"Global","A","physician",NA,"D1",NA,NA,50,"Study","Doctor","D1",4656,"",NA
"5c7eb22a78402100172fb02c",85,3,"Global","A","nurse",NA,"D2",NA,NA,51,"Study","Doctor","D2",9448,"",NA
"5c7eb22a78402100172fb02c",86,3,"Global","A","stethoscope",NA,"D3",NA,NA,52,"Study","Doctor","D3",4084,"",NA
"5c7eb22a78402100172fb02c",87,3,"Global","A","surgeon",NA,"D4",NA,NA,53,"Study","Doctor","D4",10811,"",NA
"5c7eb22a78402100172fb02c",88,3,"Global","A","patient",NA,"D5",NA,NA,54,"Study","Doctor","D5",4979,"",NA
"5c7eb22a78402100172fb02c",89,3,"Global","A","clinic",NA,"D6",NA,NA,55,"Study","Doctor","D6",4366,"",NA
"5c7eb22a78402100172fb02c",90,3,"Global","A","dentist",NA,"D7",NA,NA,56,"Study","Doctor","D7",2421,"",NA
"5c7eb22a78402100172fb02c",91,3,"Global","A","medicine",NA,"D8",NA,NA,57,"Study","Doctor","D8",12368,"",NA
"5c7eb22a78402100172fb02c",92,3,"Global","A","lawyer",NA,"D9",NA,NA,58,"Study","Doctor","D9",4896,"",NA
"5c7eb22a78402100172fb02c",93,3,"Global","A","health",NA,"D10",NA,NA,59,"Study","Doctor","D10",11881,"",NA
"5c7eb22a78402100172fb02c",94,3,"Global","A","sick",NA,"D11",NA,NA,60,"Study","Doctor","D11",8256,"",NA
"5c7eb22a78402100172fb02c",95,3,"Global","A","cure",NA,"D12",NA,NA,61,"Study","Doctor","D12",3610,"",NA
"5c7eb22a78402100172fb02c",97,3,"Global","A","",NA,"",NA,NA,0,"JOL_GLOBAL","Related","JOL5",3272,"",5
"5c7eb22a78402100172fb02c",102,3,"Global","A","",NA,"",NA,NA,0,"FreeRecall","","RECALL_Test",51563,"patient, nurse, sick, cure, dentist, medicine, health, clinic, surgeon",NA
"5c7eb22a78402100172fb02c",104,3,"Global","A","fast",NA,"S1",NA,NA,62,"Study","Slow","S1",15752,"",NA
"5c7eb22a78402100172fb02c",105,3,"Global","A","snail",NA,"S2",NA,NA,63,"Study","Slow","S2",2625,"",NA
"5c7eb22a78402100172fb02c",106,3,"Global","A","turtle",NA,"S3",NA,NA,64,"Study","Slow","S3",4859,"",NA
"5c7eb22a78402100172fb02c",107,3,"Global","A","sluggish",NA,"S4",NA,NA,65,"Study","Slow","S4",2544,"",NA
"5c7eb22a78402100172fb02c",108,3,"Global","A","quick",NA,"S5",NA,NA,66,"Study","Slow","S5",8321,"",NA
"5c7eb22a78402100172fb02c",109,3,"Global","A","molasses",NA,"S6",NA,NA,67,"Study","Slow","S6",3184,"",NA
"5c7eb22a78402100172fb02c",110,3,"Global","A","lethargic",NA,"S7",NA,NA,68,"Study","Slow","S7",12004,"",NA
"5c7eb22a78402100172fb02c",111,3,"Global","A","speed",NA,"S8",NA,NA,69,"Study","Slow","S8",4198,"",NA
"5c7eb22a78402100172fb02c",112,3,"Global","A","delay",NA,"S9",NA,NA,70,"Study","Slow","S9",3604,"",NA
"5c7eb22a78402100172fb02c",113,3,"Global","A","hesitant",NA,"S10",NA,NA,71,"Study","Slow","S10",7683,"",NA
"5c7eb22a78402100172fb02c",114,3,"Global","A","cautious",NA,"S11",NA,NA,72,"Study","Slow","S11",4824,"",NA
"5c7eb22a78402100172fb02c",115,3,"Global","A","traffic",NA,"S12",NA,NA,73,"Study","Slow","S12",4793,"",NA
"5c7eb22a78402100172fb02c",117,3,"Global","A","",NA,"",NA,NA,0,"JOL_GLOBAL","Related","JOL6",5006,"",4
"5c7eb22a78402100172fb02c",122,3,"Global","A","",NA,"",NA,NA,0,"FreeRecall","","RECALL_Test",60003,"sluggish, snail, turtle, fast, speed, traffic, lethargic, quick, delay, hesitant, cautios ",NA
"5c7eb22a78402100172fb02c",124,3,"Global","A","mississippi",NA,"RR1",NA,NA,74,"Study","River","RR1",1809,"",NA
"5c7eb22a78402100172fb02c",125,3,"Global","A","creek",NA,"RR2",NA,NA,75,"Study","River","RR2",2888,"",NA
"5c7eb22a78402100172fb02c",126,3,"Global","A","stream",NA,"RR3",NA,NA,76,"Study","River","RR3",3252,"",NA
"5c7eb22a78402100172fb02c",127,3,"Global","A","flow",NA,"RR4",NA,NA,77,"Study","River","RR4",5418,"",NA
"5c7eb22a78402100172fb02c",128,3,"Global","A","bridge",NA,"RR5",NA,NA,78,"Study","River","RR5",7085,"",NA
"5c7eb22a78402100172fb02c",129,3,"Global","A","brook",NA,"RR6",NA,NA,79,"Study","River","RR6",2420,"",NA
"5c7eb22a78402100172fb02c",130,3,"Global","A","lake",NA,"RR7",NA,NA,80,"Study","River","RR7",3344,"",NA
"5c7eb22a78402100172fb02c",131,3,"Global","A","barge",NA,"RR8",NA,NA,81,"Study","River","RR8",4300,"",NA
"5c7eb22a78402100172fb02c",132,3,"Global","A","water",NA,"RR9",NA,NA,82,"Study","River","RR9",5200,"",NA
"5c7eb22a78402100172fb02c",133,3,"Global","A","boat",NA,"RR10",NA,NA,83,"Study","River","RR10",2236,"",NA
"5c7eb22a78402100172fb02c",134,3,"Global","A","tide",NA,"RR11",NA,NA,84,"Study","River","RR11",3915,"",NA
"5c7eb22a78402100172fb02c",135,3,"Global","A","swim",NA,"RR12",NA,NA,85,"Study","River","RR12",3325,"",NA
"5c7eb22a78402100172fb02c",137,3,"Global","A","",NA,"",NA,NA,0,"JOL_GLOBAL","Related","JOL7",5005,"",4
"5c7eb22a78402100172fb02c",142,3,"Global","A","",NA,"",NA,NA,0,"FreeRecall","","RECALL_Test",60002,"stream, flow, bridge, water, boat, barge, brook, tide, creek, lake, swim",NA
"5c7eb22a78402100172fb02c",144,3,"Global","A","rye",NA,"B1",NA,NA,86,"Study","Bread","B1",9607,"",NA
"5c7eb22a78402100172fb02c",145,3,"Global","A","loaf",NA,"B2",NA,NA,87,"Study","Bread","B2",4630,"",NA
"5c7eb22a78402100172fb02c",146,3,"Global","A","butter",NA,"B3",NA,NA,88,"Study","Bread","B3",4398,"",NA
"5c7eb22a78402100172fb02c",147,3,"Global","A","toast",NA,"B4",NA,NA,89,"Study","Bread","B4",2959,"",NA
"5c7eb22a78402100172fb02c",148,3,"Global","A","dough",NA,"B5",NA,NA,90,"Study","Bread","B5",2657,"",NA
"5c7eb22a78402100172fb02c",149,3,"Global","A","crust",NA,"B6",NA,NA,91,"Study","Bread","B6",7214,"",NA
"5c7eb22a78402100172fb02c",150,3,"Global","A","flour",NA,"B7",NA,NA,92,"Study","Bread","B7",2149,"",NA
"5c7eb22a78402100172fb02c",151,3,"Global","A","sandwich",NA,"B8",NA,NA,93,"Study","Bread","B8",2790,"",NA
"5c7eb22a78402100172fb02c",152,3,"Global","A","jam",NA,"B9",NA,NA,94,"Study","Bread","B9",1713,"",NA
"5c7eb22a78402100172fb02c",153,3,"Global","A","jelly",NA,"B10",NA,NA,95,"Study","Bread","B10",6767,"",NA
"5c7eb22a78402100172fb02c",154,3,"Global","A","slice",NA,"B11",NA,NA,96,"Study","Bread","B11",2481,"",NA
"5c7eb22a78402100172fb02c",155,3,"Global","A","milk",NA,"B12",NA,NA,97,"Study","Bread","B12",4202,"",NA
"5c7eb22a78402100172fb02c",157,3,"Global","A","",NA,"",NA,NA,0,"JOL_GLOBAL","Related","JOL8",5002,"",3
"5c7eb22a78402100172fb02c",162,3,"Global","A","",NA,"",NA,NA,0,"FreeRecall","","RECALL_Test",60002,"rye, slice, dough, jam, jelly, milk, crust, loaf, butter, toast, sandwich, flour ",NA
"5c7eb22a78402100172fb02c",164,3,"Global","A","banner",NA,"F1",NA,NA,98,"Study","Flag","F1",11034,"",NA
"5c7eb22a78402100172fb02c",165,3,"Global","A","checkered",NA,"F2",NA,NA,99,"Study","Flag","F2",6067,"",NA
"5c7eb22a78402100172fb02c",166,3,"Global","A","american",NA,"F3",NA,NA,100,"Study","Flag","F3",5105,"",NA
"5c7eb22a78402100172fb02c",167,3,"Global","A","stripes",NA,"F4",NA,NA,101,"Study","Flag","F4",4767,"",NA
"5c7eb22a78402100172fb02c",168,3,"Global","A","pole",NA,"F5",NA,NA,102,"Study","Flag","F5",3000,"",NA
"5c7eb22a78402100172fb02c",169,3,"Global","A","anthem",NA,"F6",NA,NA,103,"Study","Flag","F6",4308,"",NA
"5c7eb22a78402100172fb02c",170,3,"Global","A","emblem",NA,"F7",NA,NA,104,"Study","Flag","F7",5127,"",NA
"5c7eb22a78402100172fb02c",171,3,"Global","A","national",NA,"F8",NA,NA,105,"Study","Flag","F8",5410,"",NA
"5c7eb22a78402100172fb02c",172,3,"Global","A","freedom",NA,"F9",NA,NA,106,"Study","Flag","F9",4974,"",NA
"5c7eb22a78402100172fb02c",173,3,"Global","A","symbol",NA,"F10",NA,NA,107,"Study","Flag","F10",4927,"",NA
"5c7eb22a78402100172fb02c",174,3,"Global","A","wave",NA,"F11",NA,NA,108,"Study","Flag","F11",3042,"",NA
"5c7eb22a78402100172fb02c",175,3,"Global","A","stars",NA,"F12",NA,NA,109,"Study","Flag","F12",3659,"",NA
"5c7eb22a78402100172fb02c",177,3,"Global","A","",NA,"",NA,NA,0,"JOL_GLOBAL","Related","JOL9",5002,"",5
"5c7eb22a78402100172fb02c",182,3,"Global","A","",NA,"",NA,NA,0,"FreeRecall","","RECALL_Test",60004,"anthem, pole, stripes, banner, america, symbol, freedom, national, wave, stars, checkered, ",NA
"5c7eb22a78402100172fb02c",184,3,"Global","A","blouse",NA,"SS1",NA,NA,110,"Study","Shirt","SS1",9916,"",NA
"5c7eb22a78402100172fb02c",185,3,"Global","A","sleeves",NA,"SS2",NA,NA,111,"Study","Shirt","SS2",1960,"",NA
"5c7eb22a78402100172fb02c",186,3,"Global","A","collar",NA,"SS3",NA,NA,112,"Study","Shirt","SS3",2927,"",NA
"5c7eb22a78402100172fb02c",187,3,"Global","A","shorts",NA,"SS4",NA,NA,113,"Study","Shirt","SS4",6406,"",NA
"5c7eb22a78402100172fb02c",188,3,"Global","A","button",NA,"SS5",NA,NA,114,"Study","Shirt","SS5",13914,"",NA
"5c7eb22a78402100172fb02c",189,3,"Global","A","pants",NA,"SS6",NA,NA,115,"Study","Shirt","SS6",3231,"",NA
"5c7eb22a78402100172fb02c",190,3,"Global","A","polo",NA,"SS7",NA,NA,116,"Study","Shirt","SS7",2746,"",NA
"5c7eb22a78402100172fb02c",191,3,"Global","A","jersey",NA,"SS8",NA,NA,117,"Study","Shirt","SS8",3780,"",NA
"5c7eb22a78402100172fb02c",192,3,"Global","A","vest",NA,"SS9",NA,NA,118,"Study","Shirt","SS9",7023,"",NA
"5c7eb22a78402100172fb02c",193,3,"Global","A","cuffs",NA,"SS10",NA,NA,119,"Study","Shirt","SS10",4115,"",NA
"5c7eb22a78402100172fb02c",194,3,"Global","A","tie",NA,"SS11",NA,NA,120,"Study","Shirt","SS11",3949,"",NA
"5c7eb22a78402100172fb02c",195,3,"Global","A","pocket",NA,"SS12",NA,NA,121,"Study","Shirt","SS12",5794,"",NA
"5c7eb22a78402100172fb02c",197,3,"Global","A","",NA,"",NA,NA,0,"JOL_GLOBAL","Related","JOL10",5002,"",2
"5c7eb22a78402100172fb02c",202,3,"Global","A","",NA,"",NA,NA,0,"FreeRecall","","RECALL_Test",60002,"vest, collar, polo, shorts, pants, jersey, tie, pockets, sleeves, buttons ",NA
"5d7a87d2403e9d0001421932",4,3,"Global","A","pane",NA,"Win_1",NA,NA,2,"Study","Window","Win_1",6149,"",NA
"5d7a87d2403e9d0001421932",5,3,"Global","A","sill",NA,"Win_2",NA,NA,3,"Study","Window","Win_2",4894,"",NA
"5d7a87d2403e9d0001421932",6,3,"Global","A","shutter",NA,"Win_3",NA,NA,4,"Study","Window","Win_3",7193,"",NA
"5d7a87d2403e9d0001421932",7,3,"Global","A","curtain",NA,"Win_4",NA,NA,5,"Study","Window","Win_4",6851,"",NA
"5d7a87d2403e9d0001421932",8,3,"Global","A","door",NA,"Win_5",NA,NA,6,"Study","Window","Win_5",8213,"",NA
"5d7a87d2403e9d0001421932",9,3,"Global","A","ledge",NA,"Win_6",NA,NA,7,"Study","Window","Win_6",3300,"",NA
"5d7a87d2403e9d0001421932",10,3,"Global","A","glass",NA,"Win_7",NA,NA,8,"Study","Window","Win_7",5741,"",NA
"5d7a87d2403e9d0001421932",11,3,"Global","A","view",NA,"Win_8",NA,NA,9,"Study","Window","Win_8",2886,"",NA
"5d7a87d2403e9d0001421932",12,3,"Global","A","screen",NA,"Win_9",NA,NA,10,"Study","Window","Win_9",3119,"",NA
"5d7a87d2403e9d0001421932",13,3,"Global","A","shade",NA,"Win_10",NA,NA,11,"Study","Window","Win_10",3517,"",NA
"5d7a87d2403e9d0001421932",14,3,"Global","A","open",NA,"Win_11",NA,NA,12,"Study","Window","Win_11",4197,"",NA
"5d7a87d2403e9d0001421932",15,3,"Global","A","frame",NA,"Win_12",NA,NA,13,"Study","Window","Win_12",3366,"",NA
"5d7a87d2403e9d0001421932",17,3,"Global","A","",NA,"",NA,NA,0,"JOL_GLOBAL","Related","JOL1",5003,"",7
"5d7a87d2403e9d0001421932",22,3,"Global","A","",NA,"",NA,NA,0,"FreeRecall","","RECALL_Test",60003,"sill, shutter, glass, door, curtain, pane, ",NA
"5d7a87d2403e9d0001421932",24,3,"Global","A","sandpaper",NA,"R1",NA,NA,14,"Study","Rough","R1",5561,"",NA
"5d7a87d2403e9d0001421932",25,3,"Global","A","smooth",NA,"R2",NA,NA,15,"Study","Rough","R2",2889,"",NA
"5d7a87d2403e9d0001421932",26,3,"Global","A","coarse",NA,"R3",NA,NA,16,"Study","Rough","R3",2375,"",NA
"5d7a87d2403e9d0001421932",27,3,"Global","A","tough",NA,"R4",NA,NA,17,"Study","Rough","R4",2992,"",NA
"5d7a87d2403e9d0001421932",28,3,"Global","A","rugged",NA,"R5",NA,NA,18,"Study","Rough","R5",2704,"",NA
"5d7a87d2403e9d0001421932",29,3,"Global","A","bumpy",NA,"R6",NA,NA,19,"Study","Rough","R6",2583,"",NA
"5d7a87d2403e9d0001421932",30,3,"Global","A","jagged",NA,"R7",NA,NA,20,"Study","Rough","R7",2471,"",NA
"5d7a87d2403e9d0001421932",31,3,"Global","A","riders",NA,"R8",NA,NA,21,"Study","Rough","R8",2304,"",NA
"5d7a87d2403e9d0001421932",32,3,"Global","A","uneven",NA,"R9",NA,NA,22,"Study","Rough","R9",6405,"",NA
"5d7a87d2403e9d0001421932",33,3,"Global","A","road",NA,"R10",NA,NA,23,"Study","Rough","R10",2762,"",NA
"5d7a87d2403e9d0001421932",34,3,"Global","A","ready",NA,"R11",NA,NA,24,"Study","Rough","R11",2241,"",NA
"5d7a87d2403e9d0001421932",35,3,"Global","A","sand",NA,"R12",NA,NA,25,"Study","Rough","R12",3192,"",NA
"5d7a87d2403e9d0001421932",37,3,"Global","A","",NA,"",NA,NA,0,"JOL_GLOBAL","Unrelated","JOL2",5001,"",30
"5d7a87d2403e9d0001421932",42,3,"Global","A","",NA,"",NA,NA,0,"FreeRecall","","RECALL_Test",60003,"sand, sandpaper, rugged, jagged, rough, coarse, ready, rider, road, smooth, horse, ",NA
"5d7a87d2403e9d0001421932",44,3,"Global","A","rage",NA,"A1",NA,NA,26,"Study","Anger","A1",2071,"",NA
"5d7a87d2403e9d0001421932",45,3,"Global","A","mad",NA,"A2",NA,NA,27,"Study","Anger","A2",1925,"",NA
"5d7a87d2403e9d0001421932",46,3,"Global","A","enrage",NA,"A3",NA,NA,28,"Study","Anger","A3",2002,"",NA
"5d7a87d2403e9d0001421932",47,3,"Global","A","fury",NA,"A4",NA,NA,29,"Study","Anger","A4",2195,"",NA
"5d7a87d2403e9d0001421932",48,3,"Global","A","temper",NA,"A5",NA,NA,30,"Study","Anger","A5",2178,"",NA
"5d7a87d2403e9d0001421932",49,3,"Global","A","ire",NA,"A6",NA,NA,31,"Study","Anger","A6",2312,"",NA
"5d7a87d2403e9d0001421932",50,3,"Global","A","wrath",NA,"A7",NA,NA,32,"Study","Anger","A7",2509,"",NA
"5d7a87d2403e9d0001421932",51,3,"Global","A","mean",NA,"A8",NA,NA,33,"Study","Anger","A8",2525,"",NA
"5d7a87d2403e9d0001421932",52,3,"Global","A","hatred",NA,"A9",NA,NA,34,"Study","Anger","A9",2030,"",NA
"5d7a87d2403e9d0001421932",53,3,"Global","A","fight",NA,"A10",NA,NA,35,"Study","Anger","A10",2496,"",NA
"5d7a87d2403e9d0001421932",54,3,"Global","A","hate",NA,"A11",NA,NA,36,"Study","Anger","A11",2327,"",NA
"5d7a87d2403e9d0001421932",55,3,"Global","A","fear",NA,"A12",NA,NA,37,"Study","Anger","A12",2499,"",NA
"5d7a87d2403e9d0001421932",57,3,"Global","A","",NA,"",NA,NA,0,"JOL_GLOBAL","Related","JOL3",5004,"",30
"5d7a87d2403e9d0001421932",62,3,"Global","A","",NA,"",NA,NA,0,"FreeRecall","","RECALL_Test",60002,"rage, ire, fury, enrage, battle, fight, ",NA
"5d7a87d2403e9d0001421932",64,3,"Global","A","garbage",NA,"T1",NA,NA,38,"Study","Trash","T1",2236,"",NA
"5d7a87d2403e9d0001421932",65,3,"Global","A","rubbish",NA,"T2",NA,NA,39,"Study","Trash","T2",2389,"",NA
"5d7a87d2403e9d0001421932",66,3,"Global","A","debris",NA,"T3",NA,NA,40,"Study","Trash","T3",2181,"",NA
"5d7a87d2403e9d0001421932",67,3,"Global","A","dump",NA,"T4",NA,NA,41,"Study","Trash","T4",4055,"",NA
"5d7a87d2403e9d0001421932",68,3,"Global","A","litter",NA,"T5",NA,NA,42,"Study","Trash","T5",6326,"",NA
"5d7a87d2403e9d0001421932",69,3,"Global","A","landfill",NA,"T6",NA,NA,43,"Study","Trash","T6",7415,"",NA
"5d7a87d2403e9d0001421932",70,3,"Global","A","junk",NA,"T7",NA,NA,44,"Study","Trash","T7",4524,"",NA
"5d7a87d2403e9d0001421932",71,3,"Global","A","waste",NA,"T8",NA,NA,45,"Study","Trash","T8",4854,"",NA
"5d7a87d2403e9d0001421932",72,3,"Global","A","sewage",NA,"T9",NA,NA,46,"Study","Trash","T9",2961,"",NA
"5d7a87d2403e9d0001421932",73,3,"Global","A","pile",NA,"T10",NA,NA,47,"Study","Trash","T10",3089,"",NA
"5d7a87d2403e9d0001421932",74,3,"Global","A","scraps",NA,"T11",NA,NA,48,"Study","Trash","T11",3789,"",NA
"5d7a87d2403e9d0001421932",75,3,"Global","A","refuse",NA,"T12",NA,NA,49,"Study","Trash","T12",2790,"",NA
"5d7a87d2403e9d0001421932",77,3,"Global","A","",NA,"",NA,NA,0,"JOL_GLOBAL","Related","JOL4",5006,"",40
"5d7a87d2403e9d0001421932",82,3,"Global","A","",NA,"",NA,NA,0,"FreeRecall","","RECALL_Test",60002,"debris, landfill, garbage, litter, refuse, trash, dump, pile, ",NA
"5d7a87d2403e9d0001421932",84,3,"Global","A","physician",NA,"D1",NA,NA,50,"Study","Doctor","D1",2224,"",NA
"5d7a87d2403e9d0001421932",85,3,"Global","A","nurse",NA,"D2",NA,NA,51,"Study","Doctor","D2",2342,"",NA
"5d7a87d2403e9d0001421932",86,3,"Global","A","stethoscope",NA,"D3",NA,NA,52,"Study","Doctor","D3",2349,"",NA
"5d7a87d2403e9d0001421932",87,3,"Global","A","surgeon",NA,"D4",NA,NA,53,"Study","Doctor","D4",2240,"",NA
"5d7a87d2403e9d0001421932",88,3,"Global","A","patient",NA,"D5",NA,NA,54,"Study","Doctor","D5",4880,"",NA
"5d7a87d2403e9d0001421932",89,3,"Global","A","clinic",NA,"D6",NA,NA,55,"Study","Doctor","D6",1903,"",NA
"5d7a87d2403e9d0001421932",90,3,"Global","A","dentist",NA,"D7",NA,NA,56,"Study","Doctor","D7",2422,"",NA
"5d7a87d2403e9d0001421932",91,3,"Global","A","medicine",NA,"D8",NA,NA,57,"Study","Doctor","D8",2646,"",NA
"5d7a87d2403e9d0001421932",92,3,"Global","A","lawyer",NA,"D9",NA,NA,58,"Study","Doctor","D9",2496,"",NA
"5d7a87d2403e9d0001421932",93,3,"Global","A","health",NA,"D10",NA,NA,59,"Study","Doctor","D10",2013,"",NA
"5d7a87d2403e9d0001421932",94,3,"Global","A","sick",NA,"D11",NA,NA,60,"Study","Doctor","D11",2238,"",NA
"5d7a87d2403e9d0001421932",95,3,"Global","A","cure",NA,"D12",NA,NA,61,"Study","Doctor","D12",2289,"",NA
"5d7a87d2403e9d0001421932",97,3,"Global","A","",NA,"",NA,NA,0,"JOL_GLOBAL","Related","JOL5",3560,"",20
"5d7a87d2403e9d0001421932",102,3,"Global","A","",NA,"",NA,NA,0,"FreeRecall","","RECALL_Test",60003,"nurse, stepheoscope, physician, clinic, patient, heal, surgeon, health, ",NA
"5d7a87d2403e9d0001421932",104,3,"Global","A","fast",NA,"S1",NA,NA,62,"Study","Slow","S1",2303,"",NA
"5d7a87d2403e9d0001421932",105,3,"Global","A","snail",NA,"S2",NA,NA,63,"Study","Slow","S2",2519,"",NA
"5d7a87d2403e9d0001421932",106,3,"Global","A","turtle",NA,"S3",NA,NA,64,"Study","Slow","S3",2670,"",NA
"5d7a87d2403e9d0001421932",107,3,"Global","A","sluggish",NA,"S4",NA,NA,65,"Study","Slow","S4",6877,"",NA
"5d7a87d2403e9d0001421932",108,3,"Global","A","quick",NA,"S5",NA,NA,66,"Study","Slow","S5",2346,"",NA
"5d7a87d2403e9d0001421932",109,3,"Global","A","molasses",NA,"S6",NA,NA,67,"Study","Slow","S6",2471,"",NA
"5d7a87d2403e9d0001421932",110,3,"Global","A","lethargic",NA,"S7",NA,NA,68,"Study","Slow","S7",2430,"",NA
"5d7a87d2403e9d0001421932",111,3,"Global","A","speed",NA,"S8",NA,NA,69,"Study","Slow","S8",1913,"",NA
"5d7a87d2403e9d0001421932",112,3,"Global","A","delay",NA,"S9",NA,NA,70,"Study","Slow","S9",2074,"",NA
"5d7a87d2403e9d0001421932",113,3,"Global","A","hesitant",NA,"S10",NA,NA,71,"Study","Slow","S10",2032,"",NA
"5d7a87d2403e9d0001421932",114,3,"Global","A","cautious",NA,"S11",NA,NA,72,"Study","Slow","S11",1985,"",NA
"5d7a87d2403e9d0001421932",115,3,"Global","A","traffic",NA,"S12",NA,NA,73,"Study","Slow","S12",2465,"",NA
"5d7a87d2403e9d0001421932",117,3,"Global","A","",NA,"",NA,NA,0,"JOL_GLOBAL","Related","JOL6",5003,"",10
"5d7a87d2403e9d0001421932",122,3,"Global","A","",NA,"",NA,NA,0,"FreeRecall","","RECALL_Test",60004,"lethargic, fast, turtle, snail, sluggish,",NA
"5d7a87d2403e9d0001421932",124,3,"Global","A","mississippi",NA,"RR1",NA,NA,74,"Study","River","RR1",3501,"",NA
"5d7a87d2403e9d0001421932",125,3,"Global","A","creek",NA,"RR2",NA,NA,75,"Study","River","RR2",3215,"",NA
"5d7a87d2403e9d0001421932",126,3,"Global","A","stream",NA,"RR3",NA,NA,76,"Study","River","RR3",3632,"",NA
"5d7a87d2403e9d0001421932",127,3,"Global","A","flow",NA,"RR4",NA,NA,77,"Study","River","RR4",5066,"",NA
"5d7a87d2403e9d0001421932",128,3,"Global","A","bridge",NA,"RR5",NA,NA,78,"Study","River","RR5",4366,"",NA
"5d7a87d2403e9d0001421932",129,3,"Global","A","brook",NA,"RR6",NA,NA,79,"Study","River","RR6",2181,"",NA
"5d7a87d2403e9d0001421932",130,3,"Global","A","lake",NA,"RR7",NA,NA,80,"Study","River","RR7",3333,"",NA
"5d7a87d2403e9d0001421932",131,3,"Global","A","barge",NA,"RR8",NA,NA,81,"Study","River","RR8",4749,"",NA
"5d7a87d2403e9d0001421932",132,3,"Global","A","water",NA,"RR9",NA,NA,82,"Study","River","RR9",3188,"",NA
"5d7a87d2403e9d0001421932",133,3,"Global","A","boat",NA,"RR10",NA,NA,83,"Study","River","RR10",2617,"",NA
"5d7a87d2403e9d0001421932",134,3,"Global","A","tide",NA,"RR11",NA,NA,84,"Study","River","RR11",2158,"",NA
"5d7a87d2403e9d0001421932",135,3,"Global","A","swim",NA,"RR12",NA,NA,85,"Study","River","RR12",1595,"",NA
"5d7a87d2403e9d0001421932",137,3,"Global","A","",NA,"",NA,NA,0,"JOL_GLOBAL","Related","JOL7",5002,"",40
"5d7a87d2403e9d0001421932",142,3,"Global","A","",NA,"",NA,NA,0,"FreeRecall","","RECALL_Test",60002,"creek, brook, stream, flow, lake, bridge, swim, barge, boat, water, current",NA
"5d7a87d2403e9d0001421932",144,3,"Global","A","rye",NA,"B1",NA,NA,86,"Study","Bread","B1",1816,"",NA
"5d7a87d2403e9d0001421932",145,3,"Global","A","loaf",NA,"B2",NA,NA,87,"Study","Bread","B2",2289,"",NA
"5d7a87d2403e9d0001421932",146,3,"Global","A","butter",NA,"B3",NA,NA,88,"Study","Bread","B3",2247,"",NA
"5d7a87d2403e9d0001421932",147,3,"Global","A","toast",NA,"B4",NA,NA,89,"Study","Bread","B4",3000,"",NA
"5d7a87d2403e9d0001421932",148,3,"Global","A","dough",NA,"B5",NA,NA,90,"Study","Bread","B5",2748,"",NA
"5d7a87d2403e9d0001421932",149,3,"Global","A","crust",NA,"B6",NA,NA,91,"Study","Bread","B6",3512,"",NA
"5d7a87d2403e9d0001421932",150,3,"Global","A","flour",NA,"B7",NA,NA,92,"Study","Bread","B7",2340,"",NA
"5d7a87d2403e9d0001421932",151,3,"Global","A","sandwich",NA,"B8",NA,NA,93,"Study","Bread","B8",2981,"",NA
"5d7a87d2403e9d0001421932",152,3,"Global","A","jam",NA,"B9",NA,NA,94,"Study","Bread","B9",6092,"",NA
"5d7a87d2403e9d0001421932",153,3,"Global","A","jelly",NA,"B10",NA,NA,95,"Study","Bread","B10",2432,"",NA
"5d7a87d2403e9d0001421932",154,3,"Global","A","slice",NA,"B11",NA,NA,96,"Study","Bread","B11",2519,"",NA
"5d7a87d2403e9d0001421932",155,3,"Global","A","milk",NA,"B12",NA,NA,97,"Study","Bread","B12",3484,"",NA
"5d7a87d2403e9d0001421932",157,3,"Global","A","",NA,"",NA,NA,0,"JOL_GLOBAL","Related","JOL8",5004,"",30
"5d7a87d2403e9d0001421932",162,3,"Global","A","",NA,"",NA,NA,0,"FreeRecall","","RECALL_Test",60002,"dough, flour, slice, crust, butter, sandwich, jam, jelly, rye, loaf, ",NA
"5d7a87d2403e9d0001421932",164,3,"Global","A","banner",NA,"F1",NA,NA,98,"Study","Flag","F1",2376,"",NA
"5d7a87d2403e9d0001421932",165,3,"Global","A","checkered",NA,"F2",NA,NA,99,"Study","Flag","F2",2510,"",NA
"5d7a87d2403e9d0001421932",166,3,"Global","A","american",NA,"F3",NA,NA,100,"Study","Flag","F3",2314,"",NA
"5d7a87d2403e9d0001421932",167,3,"Global","A","stripes",NA,"F4",NA,NA,101,"Study","Flag","F4",2623,"",NA
"5d7a87d2403e9d0001421932",168,3,"Global","A","pole",NA,"F5",NA,NA,102,"Study","Flag","F5",4133,"",NA
"5d7a87d2403e9d0001421932",169,3,"Global","A","anthem",NA,"F6",NA,NA,103,"Study","Flag","F6",4584,"",NA
"5d7a87d2403e9d0001421932",170,3,"Global","A","emblem",NA,"F7",NA,NA,104,"Study","Flag","F7",9522,"",NA
"5d7a87d2403e9d0001421932",171,3,"Global","A","national",NA,"F8",NA,NA,105,"Study","Flag","F8",2380,"",NA
"5d7a87d2403e9d0001421932",172,3,"Global","A","freedom",NA,"F9",NA,NA,106,"Study","Flag","F9",2534,"",NA
"5d7a87d2403e9d0001421932",173,3,"Global","A","symbol",NA,"F10",NA,NA,107,"Study","Flag","F10",2638,"",NA
"5d7a87d2403e9d0001421932",174,3,"Global","A","wave",NA,"F11",NA,NA,108,"Study","Flag","F11",4111,"",NA
"5d7a87d2403e9d0001421932",175,3,"Global","A","stars",NA,"F12",NA,NA,109,"Study","Flag","F12",4009,"",NA
"5d7a87d2403e9d0001421932",177,3,"Global","A","",NA,"",NA,NA,0,"JOL_GLOBAL","Related","JOL9",5003,"",30
"5d7a87d2403e9d0001421932",182,3,"Global","A","",NA,"",NA,NA,0,"FreeRecall","","RECALL_Test",60005,"banner, checkered, stripes, stars, american, freedom, pole, emblem, flag, ",NA
"5d7a87d2403e9d0001421932",184,3,"Global","A","blouse",NA,"SS1",NA,NA,110,"Study","Shirt","SS1",2766,"",NA
"5d7a87d2403e9d0001421932",185,3,"Global","A","sleeves",NA,"SS2",NA,NA,111,"Study","Shirt","SS2",2176,"",NA
"5d7a87d2403e9d0001421932",186,3,"Global","A","collar",NA,"SS3",NA,NA,112,"Study","Shirt","SS3",1940,"",NA
"5d7a87d2403e9d0001421932",187,3,"Global","A","shorts",NA,"SS4",NA,NA,113,"Study","Shirt","SS4",2562,"",NA
"5d7a87d2403e9d0001421932",188,3,"Global","A","button",NA,"SS5",NA,NA,114,"Study","Shirt","SS5",2491,"",NA
"5d7a87d2403e9d0001421932",189,3,"Global","A","pants",NA,"SS6",NA,NA,115,"Study","Shirt","SS6",2846,"",NA
"5d7a87d2403e9d0001421932",190,3,"Global","A","polo",NA,"SS7",NA,NA,116,"Study","Shirt","SS7",2194,"",NA
"5d7a87d2403e9d0001421932",191,3,"Global","A","jersey",NA,"SS8",NA,NA,117,"Study","Shirt","SS8",2127,"",NA
"5d7a87d2403e9d0001421932",192,3,"Global","A","vest",NA,"SS9",NA,NA,118,"Study","Shirt","SS9",1842,"",NA
"5d7a87d2403e9d0001421932",193,3,"Global","A","cuffs",NA,"SS10",NA,NA,119,"Study","Shirt","SS10",5073,"",NA
"5d7a87d2403e9d0001421932",194,3,"Global","A","tie",NA,"SS11",NA,NA,120,"Study","Shirt","SS11",2670,"",NA
"5d7a87d2403e9d0001421932",195,3,"Global","A","pocket",NA,"SS12",NA,NA,121,"Study","Shirt","SS12",2167,"",NA
"5d7a87d2403e9d0001421932",197,3,"Global","A","",NA,"",NA,NA,0,"JOL_GLOBAL","Related","JOL10",5002,"",3
"5d7a87d2403e9d0001421932",202,3,"Global","A","",NA,"",NA,NA,0,"FreeRecall","","RECALL_Test",60002,"blouse, button, pants, shorts, sleeves, tie, polo, jersey, collar, pockets",NA
"5d95fe287f664d0016591f9b",4,3,"Global","A","pane",NA,"Win_1",NA,NA,2,"Study","Window","Win_1",1797,"",NA
"5d95fe287f664d0016591f9b",5,3,"Global","A","sill",NA,"Win_2",NA,NA,3,"Study","Window","Win_2",1476,"",NA
"5d95fe287f664d0016591f9b",6,3,"Global","A","shutter",NA,"Win_3",NA,NA,4,"Study","Window","Win_3",1805,"",NA
"5d95fe287f664d0016591f9b",7,3,"Global","A","curtain",NA,"Win_4",NA,NA,5,"Study","Window","Win_4",2264,"",NA
"5d95fe287f664d0016591f9b",8,3,"Global","A","door",NA,"Win_5",NA,NA,6,"Study","Window","Win_5",1521,"",NA
"5d95fe287f664d0016591f9b",9,3,"Global","A","ledge",NA,"Win_6",NA,NA,7,"Study","Window","Win_6",6635,"",NA
"5d95fe287f664d0016591f9b",10,3,"Global","A","glass",NA,"Win_7",NA,NA,8,"Study","Window","Win_7",1292,"",NA
"5d95fe287f664d0016591f9b",11,3,"Global","A","view",NA,"Win_8",NA,NA,9,"Study","Window","Win_8",1315,"",NA
"5d95fe287f664d0016591f9b",12,3,"Global","A","screen",NA,"Win_9",NA,NA,10,"Study","Window","Win_9",12387,"",NA
"5d95fe287f664d0016591f9b",13,3,"Global","A","shade",NA,"Win_10",NA,NA,11,"Study","Window","Win_10",1628,"",NA
"5d95fe287f664d0016591f9b",14,3,"Global","A","open",NA,"Win_11",NA,NA,12,"Study","Window","Win_11",1696,"",NA
"5d95fe287f664d0016591f9b",15,3,"Global","A","frame",NA,"Win_12",NA,NA,13,"Study","Window","Win_12",1340,"",NA
"5d95fe287f664d0016591f9b",17,3,"Global","A","",NA,"",NA,NA,0,"JOL_GLOBAL","Related","JOL1",5002,"",NA
"5d95fe287f664d0016591f9b",22,3,"Global","A","",NA,"",NA,NA,0,"FreeRecall","","RECALL_Test",60005,"pane, shutter, door, ledge, screen, view, open, sill",NA
"5d95fe287f664d0016591f9b",24,3,"Global","A","sandpaper",NA,"R1",NA,NA,14,"Study","Rough","R1",1779,"",NA
"5d95fe287f664d0016591f9b",25,3,"Global","A","smooth",NA,"R2",NA,NA,15,"Study","Rough","R2",1662,"",NA
"5d95fe287f664d0016591f9b",26,3,"Global","A","coarse",NA,"R3",NA,NA,16,"Study","Rough","R3",1334,"",NA
"5d95fe287f664d0016591f9b",27,3,"Global","A","tough",NA,"R4",NA,NA,17,"Study","Rough","R4",1375,"",NA
"5d95fe287f664d0016591f9b",28,3,"Global","A","rugged",NA,"R5",NA,NA,18,"Study","Rough","R5",4286,"",NA
"5d95fe287f664d0016591f9b",29,3,"Global","A","bumpy",NA,"R6",NA,NA,19,"Study","Rough","R6",1284,"",NA
"5d95fe287f664d0016591f9b",30,3,"Global","A","jagged",NA,"R7",NA,NA,20,"Study","Rough","R7",1670,"",NA
"5d95fe287f664d0016591f9b",31,3,"Global","A","riders",NA,"R8",NA,NA,21,"Study","Rough","R8",7598,"",NA
"5d95fe287f664d0016591f9b",32,3,"Global","A","uneven",NA,"R9",NA,NA,22,"Study","Rough","R9",1269,"",NA
"5d95fe287f664d0016591f9b",33,3,"Global","A","road",NA,"R10",NA,NA,23,"Study","Rough","R10",1262,"",NA
"5d95fe287f664d0016591f9b",34,3,"Global","A","ready",NA,"R11",NA,NA,24,"Study","Rough","R11",1778,"",NA
"5d95fe287f664d0016591f9b",35,3,"Global","A","sand",NA,"R12",NA,NA,25,"Study","Rough","R12",1873,"",NA
"5d95fe287f664d0016591f9b",37,3,"Global","A","",NA,"",NA,NA,0,"JOL_GLOBAL","Unrelated","JOL2",5003,"",75
"5d95fe287f664d0016591f9b",42,3,"Global","A","",NA,"",NA,NA,0,"FreeRecall","","RECALL_Test",32293,"sandpaper, sand, riders, road, tough, bumpy, jagged, ragged, coarse",NA
"5d95fe287f664d0016591f9b",44,3,"Global","A","rage",NA,"A1",NA,NA,26,"Study","Anger","A1",1785,"",NA
"5d95fe287f664d0016591f9b",45,3,"Global","A","mad",NA,"A2",NA,NA,27,"Study","Anger","A2",1359,"",NA
"5d95fe287f664d0016591f9b",46,3,"Global","A","enrage",NA,"A3",NA,NA,28,"Study","Anger","A3",1496,"",NA
"5d95fe287f664d0016591f9b",47,3,"Global","A","fury",NA,"A4",NA,NA,29,"Study","Anger","A4",1569,"",NA
"5d95fe287f664d0016591f9b",48,3,"Global","A","temper",NA,"A5",NA,NA,30,"Study","Anger","A5",1473,"",NA
"5d95fe287f664d0016591f9b",49,3,"Global","A","ire",NA,"A6",NA,NA,31,"Study","Anger","A6",5369,"",NA
"5d95fe287f664d0016591f9b",50,3,"Global","A","wrath",NA,"A7",NA,NA,32,"Study","Anger","A7",1379,"",NA
"5d95fe287f664d0016591f9b",51,3,"Global","A","mean",NA,"A8",NA,NA,33,"Study","Anger","A8",1632,"",NA
"5d95fe287f664d0016591f9b",52,3,"Global","A","hatred",NA,"A9",NA,NA,34,"Study","Anger","A9",1351,"",NA
"5d95fe287f664d0016591f9b",53,3,"Global","A","fight",NA,"A10",NA,NA,35,"Study","Anger","A10",1333,"",NA
"5d95fe287f664d0016591f9b",54,3,"Global","A","hate",NA,"A11",NA,NA,36,"Study","Anger","A11",1520,"",NA
"5d95fe287f664d0016591f9b",55,3,"Global","A","fear",NA,"A12",NA,NA,37,"Study","Anger","A12",1273,"",NA
"5d95fe287f664d0016591f9b",57,3,"Global","A","",NA,"",NA,NA,0,"JOL_GLOBAL","Related","JOL3",5002,"",80
"5d95fe287f664d0016591f9b",62,3,"Global","A","",NA,"",NA,NA,0,"FreeRecall","","RECALL_Test",60006,"rage, enrage, fury, wrath, temper, ire, fear, fight, ",NA
"5d95fe287f664d0016591f9b",64,3,"Global","A","garbage",NA,"T1",NA,NA,38,"Study","Trash","T1",1615,"",NA
"5d95fe287f664d0016591f9b",65,3,"Global","A","rubbish",NA,"T2",NA,NA,39,"Study","Trash","T2",1558,"",NA
"5d95fe287f664d0016591f9b",66,3,"Global","A","debris",NA,"T3",NA,NA,40,"Study","Trash","T3",1289,"",NA
"5d95fe287f664d0016591f9b",67,3,"Global","A","dump",NA,"T4",NA,NA,41,"Study","Trash","T4",1490,"",NA
"5d95fe287f664d0016591f9b",68,3,"Global","A","litter",NA,"T5",NA,NA,42,"Study","Trash","T5",3211,"",NA
"5d95fe287f664d0016591f9b",69,3,"Global","A","landfill",NA,"T6",NA,NA,43,"Study","Trash","T6",4187,"",NA
"5d95fe287f664d0016591f9b",70,3,"Global","A","junk",NA,"T7",NA,NA,44,"Study","Trash","T7",1845,"",NA
"5d95fe287f664d0016591f9b",71,3,"Global","A","waste",NA,"T8",NA,NA,45,"Study","Trash","T8",1310,"",NA
"5d95fe287f664d0016591f9b",72,3,"Global","A","sewage",NA,"T9",NA,NA,46,"Study","Trash","T9",1449,"",NA
"5d95fe287f664d0016591f9b",73,3,"Global","A","pile",NA,"T10",NA,NA,47,"Study","Trash","T10",1295,"",NA
"5d95fe287f664d0016591f9b",74,3,"Global","A","scraps",NA,"T11",NA,NA,48,"Study","Trash","T11",1368,"",NA
"5d95fe287f664d0016591f9b",75,3,"Global","A","refuse",NA,"T12",NA,NA,49,"Study","Trash","T12",1437,"",NA
"5d95fe287f664d0016591f9b",77,3,"Global","A","",NA,"",NA,NA,0,"JOL_GLOBAL","Related","JOL4",5002,"",80
"5d95fe287f664d0016591f9b",82,3,"Global","A","",NA,"",NA,NA,0,"FreeRecall","","RECALL_Test",60007,"rubbish, trash, waste, debris, pile, scraps, sewage, landfill, ",NA
"5d95fe287f664d0016591f9b",84,3,"Global","A","physician",NA,"D1",NA,NA,50,"Study","Doctor","D1",1533,"",NA
"5d95fe287f664d0016591f9b",85,3,"Global","A","nurse",NA,"D2",NA,NA,51,"Study","Doctor","D2",1467,"",NA
"5d95fe287f664d0016591f9b",86,3,"Global","A","stethoscope",NA,"D3",NA,NA,52,"Study","Doctor","D3",5695,"",NA
"5d95fe287f664d0016591f9b",87,3,"Global","A","surgeon",NA,"D4",NA,NA,53,"Study","Doctor","D4",2572,"",NA
"5d95fe287f664d0016591f9b",88,3,"Global","A","patient",NA,"D5",NA,NA,54,"Study","Doctor","D5",2531,"",NA
"5d95fe287f664d0016591f9b",89,3,"Global","A","clinic",NA,"D6",NA,NA,55,"Study","Doctor","D6",3042,"",NA
"5d95fe287f664d0016591f9b",90,3,"Global","A","dentist",NA,"D7",NA,NA,56,"Study","Doctor","D7",3385,"",NA
"5d95fe287f664d0016591f9b",91,3,"Global","A","medicine",NA,"D8",NA,NA,57,"Study","Doctor","D8",2308,"",NA
"5d95fe287f664d0016591f9b",92,3,"Global","A","lawyer",NA,"D9",NA,NA,58,"Study","Doctor","D9",1989,"",NA
"5d95fe287f664d0016591f9b",93,3,"Global","A","health",NA,"D10",NA,NA,59,"Study","Doctor","D10",1693,"",NA
"5d95fe287f664d0016591f9b",94,3,"Global","A","sick",NA,"D11",NA,NA,60,"Study","Doctor","D11",1380,"",NA
"5d95fe287f664d0016591f9b",95,3,"Global","A","cure",NA,"D12",NA,NA,61,"Study","Doctor","D12",1314,"",NA
"5d95fe287f664d0016591f9b",97,3,"Global","A","",NA,"",NA,NA,0,"JOL_GLOBAL","Related","JOL5",2983,"",88
"5d95fe287f664d0016591f9b",102,3,"Global","A","",NA,"",NA,NA,0,"FreeRecall","","RECALL_Test",60002,"psychian, dentist, clinic, lawyer, health, patient, stethoscope, sick, ",NA
"5d95fe287f664d0016591f9b",104,3,"Global","A","fast",NA,"S1",NA,NA,62,"Study","Slow","S1",2202,"",NA
"5d95fe287f664d0016591f9b",105,3,"Global","A","snail",NA,"S2",NA,NA,63,"Study","Slow","S2",1266,"",NA
"5d95fe287f664d0016591f9b",106,3,"Global","A","turtle",NA,"S3",NA,NA,64,"Study","Slow","S3",1470,"",NA
"5d95fe287f664d0016591f9b",107,3,"Global","A","sluggish",NA,"S4",NA,NA,65,"Study","Slow","S4",1448,"",NA
"5d95fe287f664d0016591f9b",108,3,"Global","A","quick",NA,"S5",NA,NA,66,"Study","Slow","S5",1479,"",NA
"5d95fe287f664d0016591f9b",109,3,"Global","A","molasses",NA,"S6",NA,NA,67,"Study","Slow","S6",1280,"",NA
"5d95fe287f664d0016591f9b",110,3,"Global","A","lethargic",NA,"S7",NA,NA,68,"Study","Slow","S7",3618,"",NA
"5d95fe287f664d0016591f9b",111,3,"Global","A","speed",NA,"S8",NA,NA,69,"Study","Slow","S8",1436,"",NA
"5d95fe287f664d0016591f9b",112,3,"Global","A","delay",NA,"S9",NA,NA,70,"Study","Slow","S9",1498,"",NA
"5d95fe287f664d0016591f9b",113,3,"Global","A","hesitant",NA,"S10",NA,NA,71,"Study","Slow","S10",1287,"",NA
"5d95fe287f664d0016591f9b",114,3,"Global","A","cautious",NA,"S11",NA,NA,72,"Study","Slow","S11",1593,"",NA
"5d95fe287f664d0016591f9b",115,3,"Global","A","traffic",NA,"S12",NA,NA,73,"Study","Slow","S12",1394,"",NA
"5d95fe287f664d0016591f9b",117,3,"Global","A","",NA,"",NA,NA,0,"JOL_GLOBAL","Related","JOL6",5004,"",85
"5d95fe287f664d0016591f9b",122,3,"Global","A","",NA,"",NA,NA,0,"FreeRecall","","RECALL_Test",60007,"snail, sluggish, fast, turtle, molasses, traffic, hesistant, delay, quick, lethargic, cautious, ",NA
"5d95fe287f664d0016591f9b",124,3,"Global","A","mississippi",NA,"RR1",NA,NA,74,"Study","River","RR1",1712,"",NA
"5d95fe287f664d0016591f9b",125,3,"Global","A","creek",NA,"RR2",NA,NA,75,"Study","River","RR2",1441,"",NA
"5d95fe287f664d0016591f9b",126,3,"Global","A","stream",NA,"RR3",NA,NA,76,"Study","River","RR3",1664,"",NA
"5d95fe287f664d0016591f9b",127,3,"Global","A","flow",NA,"RR4",NA,NA,77,"Study","River","RR4",1816,"",NA
"5d95fe287f664d0016591f9b",128,3,"Global","A","bridge",NA,"RR5",NA,NA,78,"Study","River","RR5",1940,"",NA
"5d95fe287f664d0016591f9b",129,3,"Global","A","brook",NA,"RR6",NA,NA,79,"Study","River","RR6",1503,"",NA
"5d95fe287f664d0016591f9b",130,3,"Global","A","lake",NA,"RR7",NA,NA,80,"Study","River","RR7",1393,"",NA
"5d95fe287f664d0016591f9b",131,3,"Global","A","barge",NA,"RR8",NA,NA,81,"Study","River","RR8",1336,"",NA
"5d95fe287f664d0016591f9b",132,3,"Global","A","water",NA,"RR9",NA,NA,82,"Study","River","RR9",1428,"",NA
"5d95fe287f664d0016591f9b",133,3,"Global","A","boat",NA,"RR10",NA,NA,83,"Study","River","RR10",1282,"",NA
"5d95fe287f664d0016591f9b",134,3,"Global","A","tide",NA,"RR11",NA,NA,84,"Study","River","RR11",1422,"",NA
"5d95fe287f664d0016591f9b",135,3,"Global","A","swim",NA,"RR12",NA,NA,85,"Study","River","RR12",1282,"",NA
"5d95fe287f664d0016591f9b",137,3,"Global","A","",NA,"",NA,NA,0,"JOL_GLOBAL","Related","JOL7",5002,"",86
"5d95fe287f664d0016591f9b",142,3,"Global","A","",NA,"",NA,NA,0,"FreeRecall","","RECALL_Test",60004,"creek, missisippi, bridge, river, boat, barge, lake, ",NA
"5d95fe287f664d0016591f9b",144,3,"Global","A","rye",NA,"B1",NA,NA,86,"Study","Bread","B1",1420,"",NA
"5d95fe287f664d0016591f9b",145,3,"Global","A","loaf",NA,"B2",NA,NA,87,"Study","Bread","B2",1410,"",NA
"5d95fe287f664d0016591f9b",146,3,"Global","A","butter",NA,"B3",NA,NA,88,"Study","Bread","B3",1293,"",NA
"5d95fe287f664d0016591f9b",147,3,"Global","A","toast",NA,"B4",NA,NA,89,"Study","Bread","B4",1407,"",NA
"5d95fe287f664d0016591f9b",148,3,"Global","A","dough",NA,"B5",NA,NA,90,"Study","Bread","B5",5559,"",NA
"5d95fe287f664d0016591f9b",149,3,"Global","A","crust",NA,"B6",NA,NA,91,"Study","Bread","B6",1336,"",NA
"5d95fe287f664d0016591f9b",150,3,"Global","A","flour",NA,"B7",NA,NA,92,"Study","Bread","B7",1416,"",NA
"5d95fe287f664d0016591f9b",151,3,"Global","A","sandwich",NA,"B8",NA,NA,93,"Study","Bread","B8",1441,"",NA
"5d95fe287f664d0016591f9b",152,3,"Global","A","jam",NA,"B9",NA,NA,94,"Study","Bread","B9",1279,"",NA
"5d95fe287f664d0016591f9b",153,3,"Global","A","jelly",NA,"B10",NA,NA,95,"Study","Bread","B10",1437,"",NA
"5d95fe287f664d0016591f9b",154,3,"Global","A","slice",NA,"B11",NA,NA,96,"Study","Bread","B11",1437,"",NA
"5d95fe287f664d0016591f9b",155,3,"Global","A","milk",NA,"B12",NA,NA,97,"Study","Bread","B12",1297,"",NA
"5d95fe287f664d0016591f9b",157,3,"Global","A","",NA,"",NA,NA,0,"JOL_GLOBAL","Related","JOL8",5003,"",90
"5d95fe287f664d0016591f9b",162,3,"Global","A","",NA,"",NA,NA,0,"FreeRecall","","RECALL_Test",60003,"rye, bread, butter, jam, jelly, milk, loaf, dough, sandwich, toast, crust, flo",NA
"5d95fe287f664d0016591f9b",164,3,"Global","A","banner",NA,"F1",NA,NA,98,"Study","Flag","F1",1958,"",NA
"5d95fe287f664d0016591f9b",165,3,"Global","A","checkered",NA,"F2",NA,NA,99,"Study","Flag","F2",1373,"",NA
"5d95fe287f664d0016591f9b",166,3,"Global","A","american",NA,"F3",NA,NA,100,"Study","Flag","F3",1352,"",NA
"5d95fe287f664d0016591f9b",167,3,"Global","A","stripes",NA,"F4",NA,NA,101,"Study","Flag","F4",1546,"",NA
"5d95fe287f664d0016591f9b",168,3,"Global","A","pole",NA,"F5",NA,NA,102,"Study","Flag","F5",1316,"",NA
"5d95fe287f664d0016591f9b",169,3,"Global","A","anthem",NA,"F6",NA,NA,103,"Study","Flag","F6",1387,"",NA
"5d95fe287f664d0016591f9b",170,3,"Global","A","emblem",NA,"F7",NA,NA,104,"Study","Flag","F7",1298,"",NA
"5d95fe287f664d0016591f9b",171,3,"Global","A","national",NA,"F8",NA,NA,105,"Study","Flag","F8",1307,"",NA
"5d95fe287f664d0016591f9b",172,3,"Global","A","freedom",NA,"F9",NA,NA,106,"Study","Flag","F9",1448,"",NA
"5d95fe287f664d0016591f9b",173,3,"Global","A","symbol",NA,"F10",NA,NA,107,"Study","Flag","F10",4205,"",NA
"5d95fe287f664d0016591f9b",174,3,"Global","A","wave",NA,"F11",NA,NA,108,"Study","Flag","F11",2907,"",NA
"5d95fe287f664d0016591f9b",175,3,"Global","A","stars",NA,"F12",NA,NA,109,"Study","Flag","F12",1399,"",NA
"5d95fe287f664d0016591f9b",177,3,"Global","A","",NA,"",NA,NA,0,"JOL_GLOBAL","Related","JOL9",5007,"",74
"5d95fe287f664d0016591f9b",182,3,"Global","A","",NA,"",NA,NA,0,"FreeRecall","","RECALL_Test",60386,"american, checkered, banner, stripes, pole, anthem, wave, symbol, stars, freedom",NA
"5d95fe287f664d0016591f9b",184,3,"Global","A","blouse",NA,"SS1",NA,NA,110,"Study","Shirt","SS1",1777,"",NA
"5d95fe287f664d0016591f9b",185,3,"Global","A","sleeves",NA,"SS2",NA,NA,111,"Study","Shirt","SS2",1331,"",NA
"5d95fe287f664d0016591f9b",186,3,"Global","A","collar",NA,"SS3",NA,NA,112,"Study","Shirt","SS3",1651,"",NA
"5d95fe287f664d0016591f9b",187,3,"Global","A","shorts",NA,"SS4",NA,NA,113,"Study","Shirt","SS4",3096,"",NA
"5d95fe287f664d0016591f9b",188,3,"Global","A","button",NA,"SS5",NA,NA,114,"Study","Shirt","SS5",3625,"",NA
"5d95fe287f664d0016591f9b",189,3,"Global","A","pants",NA,"SS6",NA,NA,115,"Study","Shirt","SS6",1767,"",NA
"5d95fe287f664d0016591f9b",190,3,"Global","A","polo",NA,"SS7",NA,NA,116,"Study","Shirt","SS7",2605,"",NA
"5d95fe287f664d0016591f9b",191,3,"Global","A","jersey",NA,"SS8",NA,NA,117,"Study","Shirt","SS8",2244,"",NA
"5d95fe287f664d0016591f9b",192,3,"Global","A","vest",NA,"SS9",NA,NA,118,"Study","Shirt","SS9",1304,"",NA
"5d95fe287f664d0016591f9b",193,3,"Global","A","cuffs",NA,"SS10",NA,NA,119,"Study","Shirt","SS10",1749,"",NA
"5d95fe287f664d0016591f9b",194,3,"Global","A","tie",NA,"SS11",NA,NA,120,"Study","Shirt","SS11",1339,"",NA
"5d95fe287f664d0016591f9b",195,3,"Global","A","pocket",NA,"SS12",NA,NA,121,"Study","Shirt","SS12",2812,"",NA
"5d95fe287f664d0016591f9b",197,3,"Global","A","",NA,"",NA,NA,0,"JOL_GLOBAL","Related","JOL10",5002,"",77
"5d95fe287f664d0016591f9b",202,3,"Global","A","",NA,"",NA,NA,0,"FreeRecall","","RECALL_Test",60002,"button, sleeves, blouse, tie, vest, cuffs, pocket, jersey, polo, pants, collar, sh",NA
"5de12fbfe4f42a1842172d7a",4,3,"Global","A","pane",NA,"Win_1",NA,NA,2,"Study","Window","Win_1",2522,"",NA
"5de12fbfe4f42a1842172d7a",5,3,"Global","A","sill",NA,"Win_2",NA,NA,3,"Study","Window","Win_2",2062,"",NA
"5de12fbfe4f42a1842172d7a",6,3,"Global","A","shutter",NA,"Win_3",NA,NA,4,"Study","Window","Win_3",3417,"",NA
"5de12fbfe4f42a1842172d7a",7,3,"Global","A","curtain",NA,"Win_4",NA,NA,5,"Study","Window","Win_4",1801,"",NA
"5de12fbfe4f42a1842172d7a",8,3,"Global","A","door",NA,"Win_5",NA,NA,6,"Study","Window","Win_5",1318,"",NA
"5de12fbfe4f42a1842172d7a",9,3,"Global","A","ledge",NA,"Win_6",NA,NA,7,"Study","Window","Win_6",1355,"",NA
"5de12fbfe4f42a1842172d7a",10,3,"Global","A","glass",NA,"Win_7",NA,NA,8,"Study","Window","Win_7",2632,"",NA
"5de12fbfe4f42a1842172d7a",11,3,"Global","A","view",NA,"Win_8",NA,NA,9,"Study","Window","Win_8",1740,"",NA
"5de12fbfe4f42a1842172d7a",12,3,"Global","A","screen",NA,"Win_9",NA,NA,10,"Study","Window","Win_9",1823,"",NA
"5de12fbfe4f42a1842172d7a",13,3,"Global","A","shade",NA,"Win_10",NA,NA,11,"Study","Window","Win_10",1800,"",NA
"5de12fbfe4f42a1842172d7a",14,3,"Global","A","open",NA,"Win_11",NA,NA,12,"Study","Window","Win_11",2399,"",NA
"5de12fbfe4f42a1842172d7a",15,3,"Global","A","frame",NA,"Win_12",NA,NA,13,"Study","Window","Win_12",1733,"",NA
"5de12fbfe4f42a1842172d7a",17,3,"Global","A","",NA,"",NA,NA,0,"JOL_GLOBAL","Related","JOL1",5007,"",NA
"5de12fbfe4f42a1842172d7a",22,3,"Global","A","",NA,"",NA,NA,0,"FreeRecall","","RECALL_Test",18818,"pane, shutter, sill, view, frame, ",NA
"5de12fbfe4f42a1842172d7a",24,3,"Global","A","sandpaper",NA,"R1",NA,NA,14,"Study","Rough","R1",2251,"",NA
"5de12fbfe4f42a1842172d7a",25,3,"Global","A","smooth",NA,"R2",NA,NA,15,"Study","Rough","R2",1653,"",NA
"5de12fbfe4f42a1842172d7a",26,3,"Global","A","coarse",NA,"R3",NA,NA,16,"Study","Rough","R3",2127,"",NA
"5de12fbfe4f42a1842172d7a",27,3,"Global","A","tough",NA,"R4",NA,NA,17,"Study","Rough","R4",1672,"",NA
"5de12fbfe4f42a1842172d7a",28,3,"Global","A","rugged",NA,"R5",NA,NA,18,"Study","Rough","R5",1937,"",NA
"5de12fbfe4f42a1842172d7a",29,3,"Global","A","bumpy",NA,"R6",NA,NA,19,"Study","Rough","R6",1730,"",NA
"5de12fbfe4f42a1842172d7a",30,3,"Global","A","jagged",NA,"R7",NA,NA,20,"Study","Rough","R7",1661,"",NA
"5de12fbfe4f42a1842172d7a",31,3,"Global","A","riders",NA,"R8",NA,NA,21,"Study","Rough","R8",1465,"",NA
"5de12fbfe4f42a1842172d7a",32,3,"Global","A","uneven",NA,"R9",NA,NA,22,"Study","Rough","R9",1691,"",NA
"5de12fbfe4f42a1842172d7a",33,3,"Global","A","road",NA,"R10",NA,NA,23,"Study","Rough","R10",2813,"",NA
"5de12fbfe4f42a1842172d7a",34,3,"Global","A","ready",NA,"R11",NA,NA,24,"Study","Rough","R11",1754,"",NA
"5de12fbfe4f42a1842172d7a",35,3,"Global","A","sand",NA,"R12",NA,NA,25,"Study","Rough","R12",1879,"",NA
"5de12fbfe4f42a1842172d7a",37,3,"Global","A","",NA,"",NA,NA,0,"JOL_GLOBAL","Unrelated","JOL2",5002,"",30
"5de12fbfe4f42a1842172d7a",42,3,"Global","A","",NA,"",NA,NA,0,"FreeRecall","","RECALL_Test",60001,"sandpaper, sand, rugged, jagged, ready, smooth, bumpy, coarse",NA
"5de12fbfe4f42a1842172d7a",44,3,"Global","A","rage",NA,"A1",NA,NA,26,"Study","Anger","A1",1990,"",NA
"5de12fbfe4f42a1842172d7a",45,3,"Global","A","mad",NA,"A2",NA,NA,27,"Study","Anger","A2",1623,"",NA
"5de12fbfe4f42a1842172d7a",46,3,"Global","A","enrage",NA,"A3",NA,NA,28,"Study","Anger","A3",2318,"",NA
"5de12fbfe4f42a1842172d7a",47,3,"Global","A","fury",NA,"A4",NA,NA,29,"Study","Anger","A4",1404,"",NA
"5de12fbfe4f42a1842172d7a",48,3,"Global","A","temper",NA,"A5",NA,NA,30,"Study","Anger","A5",1728,"",NA
"5de12fbfe4f42a1842172d7a",49,3,"Global","A","ire",NA,"A6",NA,NA,31,"Study","Anger","A6",1371,"",NA
"5de12fbfe4f42a1842172d7a",50,3,"Global","A","wrath",NA,"A7",NA,NA,32,"Study","Anger","A7",1730,"",NA
"5de12fbfe4f42a1842172d7a",51,3,"Global","A","mean",NA,"A8",NA,NA,33,"Study","Anger","A8",2796,"",NA
"5de12fbfe4f42a1842172d7a",52,3,"Global","A","hatred",NA,"A9",NA,NA,34,"Study","Anger","A9",1965,"",NA
"5de12fbfe4f42a1842172d7a",53,3,"Global","A","fight",NA,"A10",NA,NA,35,"Study","Anger","A10",1885,"",NA
"5de12fbfe4f42a1842172d7a",54,3,"Global","A","hate",NA,"A11",NA,NA,36,"Study","Anger","A11",1320,"",NA
"5de12fbfe4f42a1842172d7a",55,3,"Global","A","fear",NA,"A12",NA,NA,37,"Study","Anger","A12",1557,"",NA
"5de12fbfe4f42a1842172d7a",57,3,"Global","A","",NA,"",NA,NA,0,"JOL_GLOBAL","Related","JOL3",5002,"",35
"5de12fbfe4f42a1842172d7a",62,3,"Global","A","",NA,"",NA,NA,0,"FreeRecall","","RECALL_Test",60004,"wrath, rage, enrage, fear, hate, hatred, ire, mean, mad",NA
"5de12fbfe4f42a1842172d7a",64,3,"Global","A","garbage",NA,"T1",NA,NA,38,"Study","Trash","T1",1623,"",NA
"5de12fbfe4f42a1842172d7a",65,3,"Global","A","rubbish",NA,"T2",NA,NA,39,"Study","Trash","T2",1776,"",NA
"5de12fbfe4f42a1842172d7a",66,3,"Global","A","debris",NA,"T3",NA,NA,40,"Study","Trash","T3",1763,"",NA
"5de12fbfe4f42a1842172d7a",67,3,"Global","A","dump",NA,"T4",NA,NA,41,"Study","Trash","T4",1789,"",NA
"5de12fbfe4f42a1842172d7a",68,3,"Global","A","litter",NA,"T5",NA,NA,42,"Study","Trash","T5",1676,"",NA
"5de12fbfe4f42a1842172d7a",69,3,"Global","A","landfill",NA,"T6",NA,NA,43,"Study","Trash","T6",1261,"",NA
"5de12fbfe4f42a1842172d7a",70,3,"Global","A","junk",NA,"T7",NA,NA,44,"Study","Trash","T7",1687,"",NA
"5de12fbfe4f42a1842172d7a",71,3,"Global","A","waste",NA,"T8",NA,NA,45,"Study","Trash","T8",1624,"",NA
"5de12fbfe4f42a1842172d7a",72,3,"Global","A","sewage",NA,"T9",NA,NA,46,"Study","Trash","T9",1698,"",NA
"5de12fbfe4f42a1842172d7a",73,3,"Global","A","pile",NA,"T10",NA,NA,47,"Study","Trash","T10",1810,"",NA
"5de12fbfe4f42a1842172d7a",74,3,"Global","A","scraps",NA,"T11",NA,NA,48,"Study","Trash","T11",1727,"",NA
"5de12fbfe4f42a1842172d7a",75,3,"Global","A","refuse",NA,"T12",NA,NA,49,"Study","Trash","T12",1441,"",NA
"5de12fbfe4f42a1842172d7a",77,3,"Global","A","",NA,"",NA,NA,0,"JOL_GLOBAL","Related","JOL4",5004,"",40
"5de12fbfe4f42a1842172d7a",82,3,"Global","A","",NA,"",NA,NA,0,"FreeRecall","","RECALL_Test",60007,"garbage, rubbish, debris, landfill, litter, sewage, waste, pile ",NA
"5de12fbfe4f42a1842172d7a",84,3,"Global","A","physician",NA,"D1",NA,NA,50,"Study","Doctor","D1",1744,"",NA
"5de12fbfe4f42a1842172d7a",85,3,"Global","A","nurse",NA,"D2",NA,NA,51,"Study","Doctor","D2",1606,"",NA
"5de12fbfe4f42a1842172d7a",86,3,"Global","A","stethoscope",NA,"D3",NA,NA,52,"Study","Doctor","D3",1764,"",NA
"5de12fbfe4f42a1842172d7a",87,3,"Global","A","surgeon",NA,"D4",NA,NA,53,"Study","Doctor","D4",1585,"",NA
"5de12fbfe4f42a1842172d7a",88,3,"Global","A","patient",NA,"D5",NA,NA,54,"Study","Doctor","D5",1668,"",NA
"5de12fbfe4f42a1842172d7a",89,3,"Global","A","clinic",NA,"D6",NA,NA,55,"Study","Doctor","D6",1819,"",NA
"5de12fbfe4f42a1842172d7a",90,3,"Global","A","dentist",NA,"D7",NA,NA,56,"Study","Doctor","D7",1760,"",NA
"5de12fbfe4f42a1842172d7a",91,3,"Global","A","medicine",NA,"D8",NA,NA,57,"Study","Doctor","D8",1779,"",NA
"5de12fbfe4f42a1842172d7a",92,3,"Global","A","lawyer",NA,"D9",NA,NA,58,"Study","Doctor","D9",1813,"",NA
"5de12fbfe4f42a1842172d7a",93,3,"Global","A","health",NA,"D10",NA,NA,59,"Study","Doctor","D10",1665,"",NA
"5de12fbfe4f42a1842172d7a",94,3,"Global","A","sick",NA,"D11",NA,NA,60,"Study","Doctor","D11",1456,"",NA
"5de12fbfe4f42a1842172d7a",95,3,"Global","A","cure",NA,"D12",NA,NA,61,"Study","Doctor","D12",1774,"",NA
"5de12fbfe4f42a1842172d7a",97,3,"Global","A","",NA,"",NA,NA,0,"JOL_GLOBAL","Related","JOL5",4247,"",25
"5de12fbfe4f42a1842172d7a",102,3,"Global","A","",NA,"",NA,NA,0,"FreeRecall","","RECALL_Test",60007,"dentist, physician, stethoscope, sick, lawyer, cure, doctor, nurse ,medicin",NA
"5de12fbfe4f42a1842172d7a",104,3,"Global","A","fast",NA,"S1",NA,NA,62,"Study","Slow","S1",2385,"",NA
"5de12fbfe4f42a1842172d7a",105,3,"Global","A","snail",NA,"S2",NA,NA,63,"Study","Slow","S2",1688,"",NA
"5de12fbfe4f42a1842172d7a",106,3,"Global","A","turtle",NA,"S3",NA,NA,64,"Study","Slow","S3",1861,"",NA
"5de12fbfe4f42a1842172d7a",107,3,"Global","A","sluggish",NA,"S4",NA,NA,65,"Study","Slow","S4",1851,"",NA
"5de12fbfe4f42a1842172d7a",108,3,"Global","A","quick",NA,"S5",NA,NA,66,"Study","Slow","S5",1510,"",NA
"5de12fbfe4f42a1842172d7a",109,3,"Global","A","molasses",NA,"S6",NA,NA,67,"Study","Slow","S6",2347,"",NA
"5de12fbfe4f42a1842172d7a",110,3,"Global","A","lethargic",NA,"S7",NA,NA,68,"Study","Slow","S7",1673,"",NA
