"Username","Trial","Condition.Number","Condition.Description","Condition.Notes","Stimuli.Cue","Stimuli.Answer","Stimuli.Shuffle","Stimuli.Stimuli.Notes","Stimuli.Value","Procedure.Item","Procedure.Trial.Type","Procedure.Procedure.Notes","Procedure.Shuffle","Response.RT","Response.Response","Response.JOL"
"5b4038c63d066d0001608c1a",5,6,"Item","B","aroma",NA,"Win_1",NA,NA,"2","JOL","Window","Win_1",14249,"",100
"5b4038c63d066d0001608c1a",6,6,"Item","B","scent",NA,"Win_2",NA,NA,"3","JOL","Window","Win_2",5862,"",95
"5b4038c63d066d0001608c1a",7,6,"Item","B","whiff",NA,"Win_3",NA,NA,"4","JOL","Window","Win_3",7104,"",95
"5b4038c63d066d0001608c1a",8,6,"Item","B","stench",NA,"Win_4",NA,NA,"5","JOL","Window","Win_4",4900,"",96
"5b4038c63d066d0001608c1a",9,6,"Item","B","reek",NA,"Win_5",NA,NA,"6","JOL","Window","Win_5",6202,"",95
"5b4038c63d066d0001608c1a",10,6,"Item","B","sniff",NA,"Win_6",NA,NA,"7","JOL","Window","Win_6",5039,"",90
"5b4038c63d066d0001608c1a",11,6,"Item","B","perfume",NA,"Win_7",NA,NA,"8","JOL","Window","Win_7",8884,"",80
"5b4038c63d066d0001608c1a",12,6,"Item","B","fragrance",NA,"Win_8",NA,NA,"9","JOL","Window","Win_8",3017,"",85
"5b4038c63d066d0001608c1a",13,6,"Item","B","nose",NA,"Win_9",NA,NA,"10","JOL","Window","Win_9",3678,"",65
"5b4038c63d066d0001608c1a",14,6,"Item","B","rose",NA,"Win_10",NA,NA,"11","JOL","Window","Win_10",5589,"",65
"5b4038c63d066d0001608c1a",15,6,"Item","B","salts",NA,"Win_11",NA,NA,"12","JOL","Window","Win_11",8791,"",19
"5b4038c63d066d0001608c1a",16,6,"Item","B","breathe",NA,"Win_12",NA,NA,"13","JOL","Window","Win_12",3461,"",65
"5b4038c63d066d0001608c1a",21,6,"Item","B","",NA,"",NA,NA,"0","FreeRecall","","RECALL_Test",60001,"SCENT, WHIFF, REEK, ROSE, NOSE, SALTS. AROMA, ",NA
"5b4038c63d066d0001608c1a",23,6,"Item","B","hard",NA,"R1",NA,NA,"14","JOL","Rough","R1",7671,"",60
"5b4038c63d066d0001608c1a",24,6,"Item","B","loud",NA,"R2",NA,NA,"15","JOL","Rough","R2",2685,"",65
"5b4038c63d066d0001608c1a",25,6,"Item","B","tender",NA,"R3",NA,NA,"16","JOL","Rough","R3",3634,"",52
"5b4038c63d066d0001608c1a",26,6,"Item","B","fluffy",NA,"R4",NA,NA,"17","JOL","Rough","R4",2310,"",50
"5b4038c63d066d0001608c1a",27,6,"Item","B","pillow",NA,"R5",NA,NA,"18","JOL","Rough","R5",2743,"",45
"5b4038c63d066d0001608c1a",28,6,"Item","B","downy",NA,"R6",NA,NA,"19","JOL","Rough","R6",2290,"",45
"5b4038c63d066d0001608c1a",29,6,"Item","B","plush",NA,"R7",NA,NA,"20","JOL","Rough","R7",4592,"",60
"5b4038c63d066d0001608c1a",30,6,"Item","B","cotton",NA,"R8",NA,NA,"21","JOL","Rough","R8",2885,"",40
"5b4038c63d066d0001608c1a",31,6,"Item","B","skin",NA,"R9",NA,NA,"22","JOL","Rough","R9",2119,"",50
"5b4038c63d066d0001608c1a",32,6,"Item","B","fur",NA,"R10",NA,NA,"23","JOL","Rough","R10",4358,"",60
"5b4038c63d066d0001608c1a",33,6,"Item","B","touch",NA,"R11",NA,NA,"24","JOL","Rough","R11",2183,"",45
"5b4038c63d066d0001608c1a",34,6,"Item","B","furry",NA,"R12",NA,NA,"25","JOL","Rough","R12",2553,"",30
"5b4038c63d066d0001608c1a",39,6,"Item","B","",NA,"",NA,NA,"0","FreeRecall","","RECALL_Test",60002,"FLUFFY, PILLOW, DOWNY, HARD, NECK, SOFT, SKIN, PERFUME",NA
"5b4038c63d066d0001608c1a",41,6,"Item","B","honey",NA,"A1",NA,NA,"26","JOL","Anger","A1",3829,"",90
"5b4038c63d066d0001608c1a",42,6,"Item","B","bitter",NA,"A2",NA,NA,"27","JOL","Anger","A2",2633,"",50
"5b4038c63d066d0001608c1a",43,6,"Item","B","sugar",NA,"A3",NA,NA,"28","JOL","Anger","A3",4716,"",90
"5b4038c63d066d0001608c1a",44,6,"Item","B","sour",NA,"A4",NA,NA,"29","JOL","Anger","A4",1965,"",50
"5b4038c63d066d0001608c1a",45,6,"Item","B","candy",NA,"A5",NA,NA,"30","JOL","Anger","A5",2486,"",95
"5b4038c63d066d0001608c1a",46,6,"Item","B","tart",NA,"A6",NA,NA,"31","JOL","Anger","A6",2760,"",65
"5b4038c63d066d0001608c1a",47,6,"Item","B","chocolate",NA,"A7",NA,NA,"32","JOL","Anger","A7",4082,"",90
"5b4038c63d066d0001608c1a",48,6,"Item","B","nice",NA,"A8",NA,NA,"33","JOL","Anger","A8",1820,"",50
"5b4038c63d066d0001608c1a",49,6,"Item","B","taste",NA,"A9",NA,NA,"34","JOL","Anger","A9",3509,"",95
"5b4038c63d066d0001608c1a",50,6,"Item","B","cake",NA,"A10",NA,NA,"35","JOL","Anger","A10",1517,"",50
"5b4038c63d066d0001608c1a",51,6,"Item","B","good",NA,"A11",NA,NA,"36","JOL","Anger","A11",1496,"",50
"5b4038c63d066d0001608c1a",52,6,"Item","B","tooth",NA,"A12",NA,NA,"37","JOL","Anger","A12",2198,"",50
"5b4038c63d066d0001608c1a",57,6,"Item","B","",NA,"",NA,NA,"0","FreeRecall","","RECALL_Test",60001,"HONEY, SUGAR, NICE, TASTE, GOOD, CHOCLATE, SOUR, BITTER, CANDY, ",NA
"5b4038c63d066d0001608c1a",59,6,"Item","B","table",NA,"T1",NA,NA,"38","JOL","Trash","T1",3282,"",50
"5b4038c63d066d0001608c1a",60,6,"Item","B","swivel",NA,"T2",NA,NA,"39","JOL","Trash","T2",3516,"",55
"5b4038c63d066d0001608c1a",61,6,"Item","B","rocking",NA,"T3",NA,NA,"40","JOL","Trash","T3",1807,"",45
"5b4038c63d066d0001608c1a",62,6,"Item","B","recliner",NA,"T4",NA,NA,"41","JOL","Trash","T4",1982,"",46
"5b4038c63d066d0001608c1a",63,6,"Item","B","seat",NA,"T5",NA,NA,"42","JOL","Trash","T5",2746,"",50
"5b4038c63d066d0001608c1a",64,6,"Item","B","stool",NA,"T6",NA,NA,"43","JOL","Trash","T6",4186,"",5
"5b4038c63d066d0001608c1a",65,6,"Item","B","desk",NA,"T7",NA,NA,"44","JOL","Trash","T7",2153,"",15
"5b4038c63d066d0001608c1a",66,6,"Item","B","couch",NA,"T8",NA,NA,"45","JOL","Trash","T8",4622,"",50
"5b4038c63d066d0001608c1a",67,6,"Item","B","sit",NA,"T9",NA,NA,"46","JOL","Trash","T9",1940,"",55
"5b4038c63d066d0001608c1a",68,6,"Item","B","sofa",NA,"T10",NA,NA,"47","JOL","Trash","T10",2802,"",55
"5b4038c63d066d0001608c1a",69,6,"Item","B","bench",NA,"T11",NA,NA,"48","JOL","Trash","T11",2853,"",45
"5b4038c63d066d0001608c1a",70,6,"Item","B","sitting",NA,"T12",NA,NA,"49","JOL","Trash","T12",3810,"",75
"5b4038c63d066d0001608c1a",75,6,"Item","B","",NA,"",NA,NA,"0","FreeRecall","","RECALL_Test",60003,"TABLE, SWIVEL, SITTING, SOFA, SWIVEL, RECLINER, STOOL, ",NA
"5b4038c63d066d0001608c1a",77,6,"Item","B","climber",NA,"D1",NA,NA,"50","JOL","Doctor","D1",4160,"",51
"5b4038c63d066d0001608c1a",78,6,"Item","B","hill",NA,"D2",NA,NA,"51","JOL","Doctor","D2",2621,"",60
"5b4038c63d066d0001608c1a",79,6,"Item","B","climb",NA,"D3",NA,NA,"52","JOL","Doctor","D3",1676,"",65
"5b4038c63d066d0001608c1a",80,6,"Item","B","molehill",NA,"D4",NA,NA,"53","JOL","Doctor","D4",4420,"",5
"5b4038c63d066d0001608c1a",81,6,"Item","B","peak",NA,"D5",NA,NA,"54","JOL","Doctor","D5",3880,"",45
"5b4038c63d066d0001608c1a",82,6,"Item","B","valley",NA,"D6",NA,NA,"55","JOL","Doctor","D6",3021,"",50
"5b4038c63d066d0001608c1a",83,6,"Item","B","summit",NA,"D7",NA,NA,"56","JOL","Doctor","D7",3123,"",75
"5b4038c63d066d0001608c1a",84,6,"Item","B","steep",NA,"D8",NA,NA,"57","JOL","Doctor","D8",1528,"",85
"5b4038c63d066d0001608c1a",85,6,"Item","B","ski",NA,"D9",NA,NA,"58","JOL","Doctor","D9",2594,"",99
"5b4038c63d066d0001608c1a",86,6,"Item","B","bike",NA,"D10",NA,NA,"59","JOL","Doctor","D10",2957,"",15
"5b4038c63d066d0001608c1a",87,6,"Item","B","goat",NA,"D11",NA,NA,"60","JOL","Doctor","D11",2551,"",0
"5b4038c63d066d0001608c1a",88,6,"Item","B","glacier",NA,"D12",NA,NA,"61","JOL","Doctor","D12",2282,"",50
"5b4038c63d066d0001608c1a",93,6,"Item","B","",NA,"",NA,NA,"0","FreeRecall","","RECALL_Test",60001,"HILL, CLIMB, CLIMBER, SKI, MOLEHILL, PEAK, GLACIER, ",NA
"5b4038c63d066d0001608c1a",95,6,"Item","B","band",NA,"S1",NA,NA,"62","JOL","Slow","S1",4063,"",60
"5b4038c63d066d0001608c1a",96,6,"Item","B","concert",NA,"S2",NA,NA,"63","JOL","Slow","S2",1803,"",65
"5b4038c63d066d0001608c1a",97,6,"Item","B","jazz",NA,"S3",NA,NA,"64","JOL","Slow","S3",3151,"",40
"5b4038c63d066d0001608c1a",98,6,"Item","B","symphony",NA,"S4",NA,NA,"65","JOL","Slow","S4",1435,"",50
"5b4038c63d066d0001608c1a",99,6,"Item","B","orchestra",NA,"S5",NA,NA,"66","JOL","Slow","S5",1555,"",55
"5b4038c63d066d0001608c1a",100,6,"Item","B","rhythm",NA,"S6",NA,NA,"67","JOL","Slow","S6",4519,"",20
"5b4038c63d066d0001608c1a",101,6,"Item","B","radio",NA,"S7",NA,NA,"68","JOL","Slow","S7",1882,"",25
"5b4038c63d066d0001608c1a",102,6,"Item","B","melody",NA,"S8",NA,NA,"69","JOL","Slow","S8",2512,"",50
"5b4038c63d066d0001608c1a",103,6,"Item","B","piano",NA,"S9",NA,NA,"70","JOL","Slow","S9",1648,"",55
"5b4038c63d066d0001608c1a",104,6,"Item","B","sound",NA,"S10",NA,NA,"71","JOL","Slow","S10",5204,"",100
"5b4038c63d066d0001608c1a",105,6,"Item","B","instrument",NA,"S11",NA,NA,"72","JOL","Slow","S11",3009,"",90
"5b4038c63d066d0001608c1a",106,6,"Item","B","note",NA,"S12",NA,NA,"73","JOL","Slow","S12",2852,"",50
"5b4038c63d066d0001608c1a",111,6,"Item","B","",NA,"",NA,NA,"0","FreeRecall","","RECALL_Test",60001,"INSTURMENT, JAZZ, NOTE, SOUND, RHYTHM, ",NA
"5b4038c63d066d0001608c1a",113,6,"Item","B","foam",NA,"RR1",NA,NA,"74","JOL","River","RR1",7192,"",95
"5b4038c63d066d0001608c1a",114,6,"Item","B","latex",NA,"RR2",NA,NA,"75","JOL","River","RR2",2679,"",45
"5b4038c63d066d0001608c1a",115,6,"Item","B","galoshes",NA,"RR3",NA,NA,"76","JOL","River","RR3",1885,"",0
"5b4038c63d066d0001608c1a",116,6,"Item","B","tire",NA,"RR4",NA,NA,"77","JOL","River","RR4",2674,"",60
"5b4038c63d066d0001608c1a",117,6,"Item","B","flexible",NA,"RR5",NA,NA,"78","JOL","River","RR5",1801,"",50
"5b4038c63d066d0001608c1a",118,6,"Item","B","elastic",NA,"RR6",NA,NA,"79","JOL","River","RR6",3306,"",52
"5b4038c63d066d0001608c1a",119,6,"Item","B","gloves",NA,"RR7",NA,NA,"80","JOL","River","RR7",2279,"",30
"5b4038c63d066d0001608c1a",120,6,"Item","B","eraser",NA,"RR8",NA,NA,"81","JOL","River","RR8",2111,"",25
"5b4038c63d066d0001608c1a",121,6,"Item","B","bounce",NA,"RR9",NA,NA,"82","JOL","River","RR9",1718,"",45
"5b4038c63d066d0001608c1a",122,6,"Item","B","ball",NA,"RR10",NA,NA,"83","JOL","River","RR10",2397,"",95
"5b4038c63d066d0001608c1a",123,6,"Item","B","soles",NA,"RR11",NA,NA,"84","JOL","River","RR11",2030,"",45
"5b4038c63d066d0001608c1a",124,6,"Item","B","springy",NA,"RR12",NA,NA,"85","JOL","River","RR12",1729,"",65
"5b4038c63d066d0001608c1a",129,6,"Item","B","",NA,"",NA,NA,"0","FreeRecall","","RECALL_Test",60002,"BOUNCE, BALL, GALOSHES, SPRING, ",NA
"5b4038c63d066d0001608c1a",131,6,"Item","B","toe",NA,"B1",NA,NA,"86","JOL","Bread","B1",3590,"",60
"5b4038c63d066d0001608c1a",132,6,"Item","B","inch",NA,"B2",NA,NA,"87","JOL","Bread","B2",2602,"",65
"5b4038c63d066d0001608c1a",133,6,"Item","B","ankle",NA,"B3",NA,NA,"88","JOL","Bread","B3",3138,"",75
"5b4038c63d066d0001608c1a",134,6,"Item","B","shoe",NA,"B4",NA,NA,"89","JOL","Bread","B4",1509,"",45
"5b4038c63d066d0001608c1a",135,6,"Item","B","sandals",NA,"B5",NA,NA,"90","JOL","Bread","B5",2344,"",25
"5b4038c63d066d0001608c1a",136,6,"Item","B","sock",NA,"B6",NA,NA,"91","JOL","Bread","B6",2197,"",30
"5b4038c63d066d0001608c1a",137,6,"Item","B","hand",NA,"B7",NA,NA,"92","JOL","Bread","B7",1417,"",35
"5b4038c63d066d0001608c1a",138,6,"Item","B","boot",NA,"B8",NA,NA,"93","JOL","Bread","B8",1437,"",45
"5b4038c63d066d0001608c1a",139,6,"Item","B","yard",NA,"B9",NA,NA,"94","JOL","Bread","B9",1851,"",60
"5b4038c63d066d0001608c1a",140,6,"Item","B","kick",NA,"B10",NA,NA,"95","JOL","Bread","B10",1616,"",50
"5b4038c63d066d0001608c1a",141,6,"Item","B","knee",NA,"B11",NA,NA,"96","JOL","Bread","B11",1549,"",75
"5b4038c63d066d0001608c1a",142,6,"Item","B","walk",NA,"B12",NA,NA,"97","JOL","Bread","B12",2700,"",20
"5b4038c63d066d0001608c1a",147,6,"Item","B","",NA,"",NA,NA,"0","FreeRecall","","RECALL_Test",60001,"TOE, ANKLE, SHOE, SOCK, SANDAL, KNEE, WALK",NA
"5b4038c63d066d0001608c1a",149,6,"Item","B","boy",NA,"F1",NA,NA,"98","JOL","Flag","F1",2977,"",100
"5b4038c63d066d0001608c1a",150,6,"Item","B","dolls",NA,"F2",NA,NA,"99","JOL","Flag","F2",3092,"",45
"5b4038c63d066d0001608c1a",151,6,"Item","B","pretty",NA,"F3",NA,NA,"100","JOL","Flag","F3",2251,"",65
"5b4038c63d066d0001608c1a",152,6,"Item","B","female",NA,"F4",NA,NA,"101","JOL","Flag","F4",2193,"",100
"5b4038c63d066d0001608c1a",153,6,"Item","B","dress",NA,"F5",NA,NA,"102","JOL","Flag","F5",1524,"",45
"5b4038c63d066d0001608c1a",154,6,"Item","B","date",NA,"F6",NA,NA,"103","JOL","Flag","F6",1667,"",65
"5b4038c63d066d0001608c1a",155,6,"Item","B","beautiful",NA,"F7",NA,NA,"104","JOL","Flag","F7",1491,"",50
"5b4038c63d066d0001608c1a",156,6,"Item","B","daughter",NA,"F8",NA,NA,"105","JOL","Flag","F8",1713,"",95
"5b4038c63d066d0001608c1a",157,6,"Item","B","sister",NA,"F9",NA,NA,"106","JOL","Flag","F9",1751,"",95
"5b4038c63d066d0001608c1a",158,6,"Item","B","cute",NA,"F10",NA,NA,"107","JOL","Flag","F10",2085,"",100
"5b4038c63d066d0001608c1a",159,6,"Item","B","niece",NA,"F11",NA,NA,"108","JOL","Flag","F11",2556,"",65
"5b4038c63d066d0001608c1a",160,6,"Item","B","young",NA,"F12",NA,NA,"109","JOL","Flag","F12",2190,"",45
"5b4038c63d066d0001608c1a",165,6,"Item","B","",NA,"",NA,NA,"0","FreeRecall","","RECALL_Test",60001,"BOY, FEMALE, DRESS, PRETTY, YOUNG, NIECE, ",NA
"5b4038c63d066d0001608c1a",167,6,"Item","B","white",NA,"SS1",NA,NA,"110","JOL","Shirt","SS1",2925,"",60
"5b4038c63d066d0001608c1a",168,6,"Item","B","gray",NA,"SS2",NA,NA,"111","JOL","Shirt","SS2",3825,"",65
"5b4038c63d066d0001608c1a",169,6,"Item","B","brown",NA,"SS3",NA,NA,"112","JOL","Shirt","SS3",2324,"",100
"5b4038c63d066d0001608c1a",170,6,"Item","B","coal",NA,"SS4",NA,NA,"113","JOL","Shirt","SS4",2264,"",30
"5b4038c63d066d0001608c1a",171,6,"Item","B","dark",NA,"SS5",NA,NA,"114","JOL","Shirt","SS5",2405,"",35
"5b4038c63d066d0001608c1a",172,6,"Item","B","color",NA,"SS6",NA,NA,"115","JOL","Shirt","SS6",1450,"",45
"5b4038c63d066d0001608c1a",173,6,"Item","B","funeral",NA,"SS7",NA,NA,"116","JOL","Shirt","SS7",5304,"",60
"5b4038c63d066d0001608c1a",174,6,"Item","B","blue",NA,"SS8",NA,NA,"117","JOL","Shirt","SS8",1796,"",100
"5b4038c63d066d0001608c1a",175,6,"Item","B","charred",NA,"SS9",NA,NA,"118","JOL","Shirt","SS9",2041,"",45
"5b4038c63d066d0001608c1a",176,6,"Item","B","ink",NA,"SS10",NA,NA,"119","JOL","Shirt","SS10",3939,"",60
"5b4038c63d066d0001608c1a",177,6,"Item","B","death",NA,"SS11",NA,NA,"120","JOL","Shirt","SS11",2257,"",0
"5b4038c63d066d0001608c1a",178,6,"Item","B","cat",NA,"SS12",NA,NA,"121","JOL","Shirt","SS12",2388,"",10
"5b4038c63d066d0001608c1a",183,6,"Item","B","",NA,"",NA,NA,"0","FreeRecall","","RECALL_Test",60001,"BROWN, BLUE, COLOUR, CHARRED, COAL. WHITE, DARK, ",NA
"5b52f4933234ab00014ca442",5,6,"Item","B","aroma",NA,"Win_1",NA,NA,"2","JOL","Window","Win_1",17162,"",50
"5b52f4933234ab00014ca442",6,6,"Item","B","scent",NA,"Win_2",NA,NA,"3","JOL","Window","Win_2",18777,"",56
"5b52f4933234ab00014ca442",7,6,"Item","B","whiff",NA,"Win_3",NA,NA,"4","JOL","Window","Win_3",9901,"",42
"5b52f4933234ab00014ca442",8,6,"Item","B","stench",NA,"Win_4",NA,NA,"5","JOL","Window","Win_4",8669,"",48
"5b52f4933234ab00014ca442",9,6,"Item","B","reek",NA,"Win_5",NA,NA,"6","JOL","Window","Win_5",9561,"",67
"5b52f4933234ab00014ca442",10,6,"Item","B","sniff",NA,"Win_6",NA,NA,"7","JOL","Window","Win_6",10898,"",70
"5b52f4933234ab00014ca442",11,6,"Item","B","perfume",NA,"Win_7",NA,NA,"8","JOL","Window","Win_7",12459,"",68
"5b52f4933234ab00014ca442",12,6,"Item","B","fragrance",NA,"Win_8",NA,NA,"9","JOL","Window","Win_8",8510,"",62
"5b52f4933234ab00014ca442",13,6,"Item","B","nose",NA,"Win_9",NA,NA,"10","JOL","Window","Win_9",7852,"",65
"5b52f4933234ab00014ca442",14,6,"Item","B","rose",NA,"Win_10",NA,NA,"11","JOL","Window","Win_10",9038,"",50
"5b52f4933234ab00014ca442",15,6,"Item","B","salts",NA,"Win_11",NA,NA,"12","JOL","Window","Win_11",8845,"",45
"5b52f4933234ab00014ca442",16,6,"Item","B","breathe",NA,"Win_12",NA,NA,"13","JOL","Window","Win_12",10850,"",70
"5b52f4933234ab00014ca442",21,6,"Item","B","",NA,"",NA,NA,"0","FreeRecall","","RECALL_Test",60003,"whiff, sniff, breathe, perfume, salts, stench, rose, fragrance, nose, reek, ",NA
"5b52f4933234ab00014ca442",23,6,"Item","B","hard",NA,"R1",NA,NA,"14","JOL","Rough","R1",9689,"",72
"5b52f4933234ab00014ca442",24,6,"Item","B","loud",NA,"R2",NA,NA,"15","JOL","Rough","R2",7864,"",65
"5b52f4933234ab00014ca442",25,6,"Item","B","tender",NA,"R3",NA,NA,"16","JOL","Rough","R3",5984,"",60
"5b52f4933234ab00014ca442",26,6,"Item","B","fluffy",NA,"R4",NA,NA,"17","JOL","Rough","R4",7186,"",50
"5b52f4933234ab00014ca442",27,6,"Item","B","pillow",NA,"R5",NA,NA,"18","JOL","Rough","R5",9260,"",67
"5b52f4933234ab00014ca442",28,6,"Item","B","downy",NA,"R6",NA,NA,"19","JOL","Rough","R6",5477,"",78
"5b52f4933234ab00014ca442",29,6,"Item","B","plush",NA,"R7",NA,NA,"20","JOL","Rough","R7",6929,"",58
"5b52f4933234ab00014ca442",30,6,"Item","B","cotton",NA,"R8",NA,NA,"21","JOL","Rough","R8",5756,"",52
"5b52f4933234ab00014ca442",31,6,"Item","B","skin",NA,"R9",NA,NA,"22","JOL","Rough","R9",7501,"",40
"5b52f4933234ab00014ca442",32,6,"Item","B","fur",NA,"R10",NA,NA,"23","JOL","Rough","R10",8864,"",39
"5b52f4933234ab00014ca442",33,6,"Item","B","touch",NA,"R11",NA,NA,"24","JOL","Rough","R11",6756,"",70
"5b52f4933234ab00014ca442",34,6,"Item","B","furry",NA,"R12",NA,NA,"25","JOL","Rough","R12",7380,"",75
"5b52f4933234ab00014ca442",39,6,"Item","B","",NA,"",NA,NA,"0","FreeRecall","","RECALL_Test",60002,"hard, touch, downy, cotton, pillow, furry, fur, ",NA
"5b52f4933234ab00014ca442",41,6,"Item","B","honey",NA,"A1",NA,NA,"26","JOL","Anger","A1",10050,"",62
"5b52f4933234ab00014ca442",42,6,"Item","B","bitter",NA,"A2",NA,NA,"27","JOL","Anger","A2",10816,"",62
"5b52f4933234ab00014ca442",43,6,"Item","B","sugar",NA,"A3",NA,NA,"28","JOL","Anger","A3",8743,"",40
"5b52f4933234ab00014ca442",44,6,"Item","B","sour",NA,"A4",NA,NA,"29","JOL","Anger","A4",8283,"",55
"5b52f4933234ab00014ca442",45,6,"Item","B","candy",NA,"A5",NA,NA,"30","JOL","Anger","A5",7532,"",68
"5b52f4933234ab00014ca442",46,6,"Item","B","tart",NA,"A6",NA,NA,"31","JOL","Anger","A6",7853,"",38
"5b52f4933234ab00014ca442",47,6,"Item","B","chocolate",NA,"A7",NA,NA,"32","JOL","Anger","A7",5433,"",70
"5b52f4933234ab00014ca442",48,6,"Item","B","nice",NA,"A8",NA,NA,"33","JOL","Anger","A8",10274,"",30
"5b52f4933234ab00014ca442",49,6,"Item","B","taste",NA,"A9",NA,NA,"34","JOL","Anger","A9",9863,"",42
"5b52f4933234ab00014ca442",50,6,"Item","B","cake",NA,"A10",NA,NA,"35","JOL","Anger","A10",7728,"",72
"5b52f4933234ab00014ca442",51,6,"Item","B","good",NA,"A11",NA,NA,"36","JOL","Anger","A11",10617,"",30
"5b52f4933234ab00014ca442",52,6,"Item","B","tooth",NA,"A12",NA,NA,"37","JOL","Anger","A12",6415,"",55
"5b52f4933234ab00014ca442",57,6,"Item","B","",NA,"",NA,NA,"0","FreeRecall","","RECALL_Test",60002,"sour, bitter, tart, candy, sugar, taste, nice, good, cake, chocolate, honey",NA
"5b52f4933234ab00014ca442",59,6,"Item","B","table",NA,"T1",NA,NA,"38","JOL","Trash","T1",11100,"",38
"5b52f4933234ab00014ca442",60,6,"Item","B","swivel",NA,"T2",NA,NA,"39","JOL","Trash","T2",8482,"",42
"5b52f4933234ab00014ca442",61,6,"Item","B","rocking",NA,"T3",NA,NA,"40","JOL","Trash","T3",9264,"",62
"5b52f4933234ab00014ca442",62,6,"Item","B","recliner",NA,"T4",NA,NA,"41","JOL","Trash","T4",7925,"",64
"5b52f4933234ab00014ca442",63,6,"Item","B","seat",NA,"T5",NA,NA,"42","JOL","Trash","T5",9094,"",40
"5b52f4933234ab00014ca442",64,6,"Item","B","stool",NA,"T6",NA,NA,"43","JOL","Trash","T6",7617,"",70
"5b52f4933234ab00014ca442",65,6,"Item","B","desk",NA,"T7",NA,NA,"44","JOL","Trash","T7",8431,"",55
"5b52f4933234ab00014ca442",66,6,"Item","B","couch",NA,"T8",NA,NA,"45","JOL","Trash","T8",5157,"",80
"5b52f4933234ab00014ca442",67,6,"Item","B","sit",NA,"T9",NA,NA,"46","JOL","Trash","T9",6320,"",62
"5b52f4933234ab00014ca442",68,6,"Item","B","sofa",NA,"T10",NA,NA,"47","JOL","Trash","T10",4999,"",80
"5b52f4933234ab00014ca442",69,6,"Item","B","bench",NA,"T11",NA,NA,"48","JOL","Trash","T11",6671,"",72
"5b52f4933234ab00014ca442",70,6,"Item","B","sitting",NA,"T12",NA,NA,"49","JOL","Trash","T12",9715,"",50
"5b52f4933234ab00014ca442",75,6,"Item","B","",NA,"",NA,NA,"0","FreeRecall","","RECALL_Test",60002,"table, swivel, stool, desk, sofa, couch, rocking, seat, sitting, recliner, bench",NA
"5b52f4933234ab00014ca442",77,6,"Item","B","climber",NA,"D1",NA,NA,"50","JOL","Doctor","D1",8010,"",60
"5b52f4933234ab00014ca442",78,6,"Item","B","hill",NA,"D2",NA,NA,"51","JOL","Doctor","D2",9296,"",70
"5b52f4933234ab00014ca442",79,6,"Item","B","climb",NA,"D3",NA,NA,"52","JOL","Doctor","D3",9448,"",64
"5b52f4933234ab00014ca442",80,6,"Item","B","molehill",NA,"D4",NA,NA,"53","JOL","Doctor","D4",9394,"",68
"5b52f4933234ab00014ca442",81,6,"Item","B","peak",NA,"D5",NA,NA,"54","JOL","Doctor","D5",6232,"",50
"5b52f4933234ab00014ca442",82,6,"Item","B","valley",NA,"D6",NA,NA,"55","JOL","Doctor","D6",8671,"",42
"5b52f4933234ab00014ca442",83,6,"Item","B","summit",NA,"D7",NA,NA,"56","JOL","Doctor","D7",7835,"",50
"5b52f4933234ab00014ca442",84,6,"Item","B","steep",NA,"D8",NA,NA,"57","JOL","Doctor","D8",8284,"",64
"5b52f4933234ab00014ca442",85,6,"Item","B","ski",NA,"D9",NA,NA,"58","JOL","Doctor","D9",8853,"",70
"5b52f4933234ab00014ca442",86,6,"Item","B","bike",NA,"D10",NA,NA,"59","JOL","Doctor","D10",7720,"",65
"5b52f4933234ab00014ca442",87,6,"Item","B","goat",NA,"D11",NA,NA,"60","JOL","Doctor","D11",5286,"",72
"5b52f4933234ab00014ca442",88,6,"Item","B","glacier",NA,"D12",NA,NA,"61","JOL","Doctor","D12",9688,"",38
"5b52f4933234ab00014ca442",93,6,"Item","B","",NA,"",NA,NA,"0","FreeRecall","","RECALL_Test",60011,"goat, summit, glacier, peak, climber, climb, ski, bike, steep, hill, valley, moleh",NA
"5b52f4933234ab00014ca442",95,6,"Item","B","band",NA,"S1",NA,NA,"62","JOL","Slow","S1",7733,"",70
"5b52f4933234ab00014ca442",96,6,"Item","B","concert",NA,"S2",NA,NA,"63","JOL","Slow","S2",6957,"",68
"5b52f4933234ab00014ca442",97,6,"Item","B","jazz",NA,"S3",NA,NA,"64","JOL","Slow","S3",6584,"",69
"5b52f4933234ab00014ca442",98,6,"Item","B","symphony",NA,"S4",NA,NA,"65","JOL","Slow","S4",6941,"",50
"5b52f4933234ab00014ca442",99,6,"Item","B","orchestra",NA,"S5",NA,NA,"66","JOL","Slow","S5",7038,"",35
"5b52f4933234ab00014ca442",100,6,"Item","B","rhythm",NA,"S6",NA,NA,"67","JOL","Slow","S6",6376,"",75
"5b52f4933234ab00014ca442",101,6,"Item","B","radio",NA,"S7",NA,NA,"68","JOL","Slow","S7",7115,"",50
"5b52f4933234ab00014ca442",102,6,"Item","B","melody",NA,"S8",NA,NA,"69","JOL","Slow","S8",12514,"",32
"5b52f4933234ab00014ca442",103,6,"Item","B","piano",NA,"S9",NA,NA,"70","JOL","Slow","S9",8408,"",65
"5b52f4933234ab00014ca442",104,6,"Item","B","sound",NA,"S10",NA,NA,"71","JOL","Slow","S10",10502,"",70
"5b52f4933234ab00014ca442",105,6,"Item","B","instrument",NA,"S11",NA,NA,"72","JOL","Slow","S11",7234,"",40
"5b52f4933234ab00014ca442",106,6,"Item","B","note",NA,"S12",NA,NA,"73","JOL","Slow","S12",7472,"",55
"5b52f4933234ab00014ca442",111,6,"Item","B","",NA,"",NA,NA,"0","FreeRecall","","RECALL_Test",60002,"rhythm, note, sound, piano, symphony, orchestra, instrument, concert",NA
"5b52f4933234ab00014ca442",113,6,"Item","B","foam",NA,"RR1",NA,NA,"74","JOL","River","RR1",8101,"",60
"5b52f4933234ab00014ca442",114,6,"Item","B","latex",NA,"RR2",NA,NA,"75","JOL","River","RR2",6210,"",65
"5b52f4933234ab00014ca442",115,6,"Item","B","galoshes",NA,"RR3",NA,NA,"76","JOL","River","RR3",5779,"",40
"5b52f4933234ab00014ca442",116,6,"Item","B","tire",NA,"RR4",NA,NA,"77","JOL","River","RR4",5912,"",50
"5b52f4933234ab00014ca442",117,6,"Item","B","flexible",NA,"RR5",NA,NA,"78","JOL","River","RR5",6760,"",54
"5b52f4933234ab00014ca442",118,6,"Item","B","elastic",NA,"RR6",NA,NA,"79","JOL","River","RR6",9192,"",45
"5b52f4933234ab00014ca442",119,6,"Item","B","gloves",NA,"RR7",NA,NA,"80","JOL","River","RR7",5788,"",68
"5b52f4933234ab00014ca442",120,6,"Item","B","eraser",NA,"RR8",NA,NA,"81","JOL","River","RR8",8596,"",70
"5b52f4933234ab00014ca442",121,6,"Item","B","bounce",NA,"RR9",NA,NA,"82","JOL","River","RR9",8350,"",72
"5b52f4933234ab00014ca442",122,6,"Item","B","ball",NA,"RR10",NA,NA,"83","JOL","River","RR10",5825,"",74
"5b52f4933234ab00014ca442",123,6,"Item","B","soles",NA,"RR11",NA,NA,"84","JOL","River","RR11",5402,"",45
"5b52f4933234ab00014ca442",124,6,"Item","B","springy",NA,"RR12",NA,NA,"85","JOL","River","RR12",7437,"",55
"5b52f4933234ab00014ca442",129,6,"Item","B","",NA,"",NA,NA,"0","FreeRecall","","RECALL_Test",60004,"springy, elastic, ball, latex, soles, gloves, eraser, ",NA
"5b52f4933234ab00014ca442",131,6,"Item","B","toe",NA,"B1",NA,NA,"86","JOL","Bread","B1",8774,"",55
"5b52f4933234ab00014ca442",132,6,"Item","B","inch",NA,"B2",NA,NA,"87","JOL","Bread","B2",8567,"",57
"5b52f4933234ab00014ca442",133,6,"Item","B","ankle",NA,"B3",NA,NA,"88","JOL","Bread","B3",5257,"",60
"5b52f4933234ab00014ca442",134,6,"Item","B","shoe",NA,"B4",NA,NA,"89","JOL","Bread","B4",6951,"",65
"5b52f4933234ab00014ca442",135,6,"Item","B","sandals",NA,"B5",NA,NA,"90","JOL","Bread","B5",5197,"",57
"5b52f4933234ab00014ca442",136,6,"Item","B","sock",NA,"B6",NA,NA,"91","JOL","Bread","B6",6326,"",43
"5b52f4933234ab00014ca442",137,6,"Item","B","hand",NA,"B7",NA,NA,"92","JOL","Bread","B7",6315,"",69
"5b52f4933234ab00014ca442",138,6,"Item","B","boot",NA,"B8",NA,NA,"93","JOL","Bread","B8",7046,"",50
"5b52f4933234ab00014ca442",139,6,"Item","B","yard",NA,"B9",NA,NA,"94","JOL","Bread","B9",6577,"",70
"5b52f4933234ab00014ca442",140,6,"Item","B","kick",NA,"B10",NA,NA,"95","JOL","Bread","B10",5622,"",75
"5b52f4933234ab00014ca442",141,6,"Item","B","knee",NA,"B11",NA,NA,"96","JOL","Bread","B11",7476,"",60
"5b52f4933234ab00014ca442",142,6,"Item","B","walk",NA,"B12",NA,NA,"97","JOL","Bread","B12",5359,"",70
"5b52f4933234ab00014ca442",147,6,"Item","B","",NA,"",NA,NA,"0","FreeRecall","","RECALL_Test",60002,"ankle, knee, walk, toe, inch, yard, shoes, sandals, socks, ",NA
"5b52f4933234ab00014ca442",149,6,"Item","B","boy",NA,"F1",NA,NA,"98","JOL","Flag","F1",5519,"",50
"5b52f4933234ab00014ca442",150,6,"Item","B","dolls",NA,"F2",NA,NA,"99","JOL","Flag","F2",6523,"",52
"5b52f4933234ab00014ca442",151,6,"Item","B","pretty",NA,"F3",NA,NA,"100","JOL","Flag","F3",8036,"",43
"5b52f4933234ab00014ca442",152,6,"Item","B","female",NA,"F4",NA,NA,"101","JOL","Flag","F4",6486,"",62
"5b52f4933234ab00014ca442",153,6,"Item","B","dress",NA,"F5",NA,NA,"102","JOL","Flag","F5",6080,"",65
"5b52f4933234ab00014ca442",154,6,"Item","B","date",NA,"F6",NA,NA,"103","JOL","Flag","F6",7304,"",68
"5b52f4933234ab00014ca442",155,6,"Item","B","beautiful",NA,"F7",NA,NA,"104","JOL","Flag","F7",4967,"",70
"5b52f4933234ab00014ca442",156,6,"Item","B","daughter",NA,"F8",NA,NA,"105","JOL","Flag","F8",5846,"",65
"5b52f4933234ab00014ca442",157,6,"Item","B","sister",NA,"F9",NA,NA,"106","JOL","Flag","F9",7589,"",55
"5b52f4933234ab00014ca442",158,6,"Item","B","cute",NA,"F10",NA,NA,"107","JOL","Flag","F10",6571,"",70
"5b52f4933234ab00014ca442",159,6,"Item","B","niece",NA,"F11",NA,NA,"108","JOL","Flag","F11",6524,"",72
"5b52f4933234ab00014ca442",160,6,"Item","B","young",NA,"F12",NA,NA,"109","JOL","Flag","F12",7413,"",40
"5b52f4933234ab00014ca442",165,6,"Item","B","",NA,"",NA,NA,"0","FreeRecall","","RECALL_Test",60005,"niece, pretty, beautiful, sisters, daughter, young, dress, female, ",NA
"5b52f4933234ab00014ca442",167,6,"Item","B","white",NA,"SS1",NA,NA,"110","JOL","Shirt","SS1",7534,"",70
"5b52f4933234ab00014ca442",168,6,"Item","B","gray",NA,"SS2",NA,NA,"111","JOL","Shirt","SS2",7497,"",68
"5b52f4933234ab00014ca442",169,6,"Item","B","brown",NA,"SS3",NA,NA,"112","JOL","Shirt","SS3",7584,"",80
"5b52f4933234ab00014ca442",170,6,"Item","B","coal",NA,"SS4",NA,NA,"113","JOL","Shirt","SS4",8236,"",50
"5b52f4933234ab00014ca442",171,6,"Item","B","dark",NA,"SS5",NA,NA,"114","JOL","Shirt","SS5",6416,"",48
"5b52f4933234ab00014ca442",172,6,"Item","B","color",NA,"SS6",NA,NA,"115","JOL","Shirt","SS6",4641,"",75
"5b52f4933234ab00014ca442",173,6,"Item","B","funeral",NA,"SS7",NA,NA,"116","JOL","Shirt","SS7",6354,"",50
"5b52f4933234ab00014ca442",174,6,"Item","B","blue",NA,"SS8",NA,NA,"117","JOL","Shirt","SS8",4723,"",78
"5b52f4933234ab00014ca442",175,6,"Item","B","charred",NA,"SS9",NA,NA,"118","JOL","Shirt","SS9",4321,"",65
"5b52f4933234ab00014ca442",176,6,"Item","B","ink",NA,"SS10",NA,NA,"119","JOL","Shirt","SS10",6407,"",67
"5b52f4933234ab00014ca442",177,6,"Item","B","death",NA,"SS11",NA,NA,"120","JOL","Shirt","SS11",4751,"",76
"5b52f4933234ab00014ca442",178,6,"Item","B","cat",NA,"SS12",NA,NA,"121","JOL","Shirt","SS12",6827,"",78
"5b52f4933234ab00014ca442",183,6,"Item","B","",NA,"",NA,NA,"0","FreeRecall","","RECALL_Test",60001,"white, grey, dark, coal, cat, funeral, death, blue, charred, ",NA
"5bc49417ed1c37000153362e",5,6,"Item","B","aroma",NA,"Win_1",NA,NA,"2","JOL","Window","Win_1",9506,"",70
"5bc49417ed1c37000153362e",6,6,"Item","B","scent",NA,"Win_2",NA,NA,"3","JOL","Window","Win_2",4805,"",70
"5bc49417ed1c37000153362e",7,6,"Item","B","whiff",NA,"Win_3",NA,NA,"4","JOL","Window","Win_3",4996,"",50
"5bc49417ed1c37000153362e",8,6,"Item","B","stench",NA,"Win_4",NA,NA,"5","JOL","Window","Win_4",4094,"",50
"5bc49417ed1c37000153362e",9,6,"Item","B","reek",NA,"Win_5",NA,NA,"6","JOL","Window","Win_5",6568,"",60
"5bc49417ed1c37000153362e",10,6,"Item","B","sniff",NA,"Win_6",NA,NA,"7","JOL","Window","Win_6",4531,"",30
"5bc49417ed1c37000153362e",11,6,"Item","B","perfume",NA,"Win_7",NA,NA,"8","JOL","Window","Win_7",4591,"",80
"5bc49417ed1c37000153362e",12,6,"Item","B","fragrance",NA,"Win_8",NA,NA,"9","JOL","Window","Win_8",3699,"",80
"5bc49417ed1c37000153362e",13,6,"Item","B","nose",NA,"Win_9",NA,NA,"10","JOL","Window","Win_9",3760,"",50
"5bc49417ed1c37000153362e",14,6,"Item","B","rose",NA,"Win_10",NA,NA,"11","JOL","Window","Win_10",3850,"",40
"5bc49417ed1c37000153362e",15,6,"Item","B","salts",NA,"Win_11",NA,NA,"12","JOL","Window","Win_11",4161,"",30
"5bc49417ed1c37000153362e",16,6,"Item","B","breathe",NA,"Win_12",NA,NA,"13","JOL","Window","Win_12",6308,"",50
"5bc49417ed1c37000153362e",21,6,"Item","B","",NA,"",NA,NA,"0","FreeRecall","","RECALL_Test",60003,"Aroma, fragrance, nose, reek, stench, perfume, whiff, sniff, breathe, ",NA
"5bc49417ed1c37000153362e",23,6,"Item","B","hard",NA,"R1",NA,NA,"14","JOL","Rough","R1",4108,"",70
"5bc49417ed1c37000153362e",24,6,"Item","B","loud",NA,"R2",NA,NA,"15","JOL","Rough","R2",4073,"",60
"5bc49417ed1c37000153362e",25,6,"Item","B","tender",NA,"R3",NA,NA,"16","JOL","Rough","R3",3849,"",50
"5bc49417ed1c37000153362e",26,6,"Item","B","fluffy",NA,"R4",NA,NA,"17","JOL","Rough","R4",3769,"",50
"5bc49417ed1c37000153362e",27,6,"Item","B","pillow",NA,"R5",NA,NA,"18","JOL","Rough","R5",3487,"",40
"5bc49417ed1c37000153362e",28,6,"Item","B","downy",NA,"R6",NA,NA,"19","JOL","Rough","R6",3791,"",30
"5bc49417ed1c37000153362e",29,6,"Item","B","plush",NA,"R7",NA,NA,"20","JOL","Rough","R7",3382,"",30
"5bc49417ed1c37000153362e",30,6,"Item","B","cotton",NA,"R8",NA,NA,"21","JOL","Rough","R8",3732,"",50
"5bc49417ed1c37000153362e",31,6,"Item","B","skin",NA,"R9",NA,NA,"22","JOL","Rough","R9",3935,"",30
"5bc49417ed1c37000153362e",32,6,"Item","B","fur",NA,"R10",NA,NA,"23","JOL","Rough","R10",3541,"",30
"5bc49417ed1c37000153362e",33,6,"Item","B","touch",NA,"R11",NA,NA,"24","JOL","Rough","R11",4111,"",50
"5bc49417ed1c37000153362e",34,6,"Item","B","furry",NA,"R12",NA,NA,"25","JOL","Rough","R12",4103,"",40
"5bc49417ed1c37000153362e",39,6,"Item","B","",NA,"",NA,NA,"0","FreeRecall","","RECALL_Test",60002,"Pillow, hard, skin, tender, furry, fluffy, fur, cotton, touch, ",NA
"5bc49417ed1c37000153362e",41,6,"Item","B","honey",NA,"A1",NA,NA,"26","JOL","Anger","A1",4742,"",70
"5bc49417ed1c37000153362e",42,6,"Item","B","bitter",NA,"A2",NA,NA,"27","JOL","Anger","A2",3891,"",20
"5bc49417ed1c37000153362e",43,6,"Item","B","sugar",NA,"A3",NA,NA,"28","JOL","Anger","A3",3299,"",70
"5bc49417ed1c37000153362e",44,6,"Item","B","sour",NA,"A4",NA,NA,"29","JOL","Anger","A4",8385,"",50
"5bc49417ed1c37000153362e",45,6,"Item","B","candy",NA,"A5",NA,NA,"30","JOL","Anger","A5",5066,"",70
"5bc49417ed1c37000153362e",46,6,"Item","B","tart",NA,"A6",NA,NA,"31","JOL","Anger","A6",4865,"",60
"5bc49417ed1c37000153362e",47,6,"Item","B","chocolate",NA,"A7",NA,NA,"32","JOL","Anger","A7",3637,"",60
"5bc49417ed1c37000153362e",48,6,"Item","B","nice",NA,"A8",NA,NA,"33","JOL","Anger","A8",3650,"",40
"5bc49417ed1c37000153362e",49,6,"Item","B","taste",NA,"A9",NA,NA,"34","JOL","Anger","A9",3305,"",70
"5bc49417ed1c37000153362e",50,6,"Item","B","cake",NA,"A10",NA,NA,"35","JOL","Anger","A10",3217,"",80
"5bc49417ed1c37000153362e",51,6,"Item","B","good",NA,"A11",NA,NA,"36","JOL","Anger","A11",3252,"",50
"5bc49417ed1c37000153362e",52,6,"Item","B","tooth",NA,"A12",NA,NA,"37","JOL","Anger","A12",4540,"",20
"5bc49417ed1c37000153362e",57,6,"Item","B","",NA,"",NA,NA,"0","FreeRecall","","RECALL_Test",60004,"Candy, honey, sugar, nice, good, sour, bitter, tart, tooth ",NA
"5bc49417ed1c37000153362e",59,6,"Item","B","table",NA,"T1",NA,NA,"38","JOL","Trash","T1",4741,"",70
"5bc49417ed1c37000153362e",60,6,"Item","B","swivel",NA,"T2",NA,NA,"39","JOL","Trash","T2",3828,"",30
"5bc49417ed1c37000153362e",61,6,"Item","B","rocking",NA,"T3",NA,NA,"40","JOL","Trash","T3",4181,"",30
"5bc49417ed1c37000153362e",62,6,"Item","B","recliner",NA,"T4",NA,NA,"41","JOL","Trash","T4",4476,"",30
"5bc49417ed1c37000153362e",63,6,"Item","B","seat",NA,"T5",NA,NA,"42","JOL","Trash","T5",4797,"",70
"5bc49417ed1c37000153362e",64,6,"Item","B","stool",NA,"T6",NA,NA,"43","JOL","Trash","T6",3388,"",80
"5bc49417ed1c37000153362e",65,6,"Item","B","desk",NA,"T7",NA,NA,"44","JOL","Trash","T7",3902,"",80
"5bc49417ed1c37000153362e",66,6,"Item","B","couch",NA,"T8",NA,NA,"45","JOL","Trash","T8",3453,"",80
"5bc49417ed1c37000153362e",67,6,"Item","B","sit",NA,"T9",NA,NA,"46","JOL","Trash","T9",3383,"",80
"5bc49417ed1c37000153362e",68,6,"Item","B","sofa",NA,"T10",NA,NA,"47","JOL","Trash","T10",3935,"",70
"5bc49417ed1c37000153362e",69,6,"Item","B","bench",NA,"T11",NA,NA,"48","JOL","Trash","T11",3433,"",70
"5bc49417ed1c37000153362e",70,6,"Item","B","sitting",NA,"T12",NA,NA,"49","JOL","Trash","T12",3526,"",70
"5bc49417ed1c37000153362e",75,6,"Item","B","",NA,"",NA,NA,"0","FreeRecall","","RECALL_Test",60003,"Seat, sit, sitting, sofa, couch, recliner, rocking, stool, bench, table, desk ",NA
"5bc49417ed1c37000153362e",77,6,"Item","B","climber",NA,"D1",NA,NA,"50","JOL","Doctor","D1",4441,"",50
"5bc49417ed1c37000153362e",78,6,"Item","B","hill",NA,"D2",NA,NA,"51","JOL","Doctor","D2",3610,"",70
"5bc49417ed1c37000153362e",79,6,"Item","B","climb",NA,"D3",NA,NA,"52","JOL","Doctor","D3",3335,"",70
"5bc49417ed1c37000153362e",80,6,"Item","B","molehill",NA,"D4",NA,NA,"53","JOL","Doctor","D4",4665,"",70
"5bc49417ed1c37000153362e",81,6,"Item","B","peak",NA,"D5",NA,NA,"54","JOL","Doctor","D5",3104,"",80
"5bc49417ed1c37000153362e",82,6,"Item","B","valley",NA,"D6",NA,NA,"55","JOL","Doctor","D6",3166,"",80
"5bc49417ed1c37000153362e",83,6,"Item","B","summit",NA,"D7",NA,NA,"56","JOL","Doctor","D7",4572,"",80
"5bc49417ed1c37000153362e",84,6,"Item","B","steep",NA,"D8",NA,NA,"57","JOL","Doctor","D8",3349,"",80
"5bc49417ed1c37000153362e",85,6,"Item","B","ski",NA,"D9",NA,NA,"58","JOL","Doctor","D9",4118,"",70
"5bc49417ed1c37000153362e",86,6,"Item","B","bike",NA,"D10",NA,NA,"59","JOL","Doctor","D10",3944,"",40
"5bc49417ed1c37000153362e",87,6,"Item","B","goat",NA,"D11",NA,NA,"60","JOL","Doctor","D11",3219,"",30
"5bc49417ed1c37000153362e",88,6,"Item","B","glacier",NA,"D12",NA,NA,"61","JOL","Doctor","D12",3327,"",70
"5bc49417ed1c37000153362e",93,6,"Item","B","",NA,"",NA,NA,"0","FreeRecall","","RECALL_Test",60004,"Hill, climb, climber, glacier, goat, valley, road, steep, ski, summit, peak",NA
"5bc49417ed1c37000153362e",95,6,"Item","B","band",NA,"S1",NA,NA,"62","JOL","Slow","S1",4474,"",50
"5bc49417ed1c37000153362e",96,6,"Item","B","concert",NA,"S2",NA,NA,"63","JOL","Slow","S2",3540,"",70
"5bc49417ed1c37000153362e",97,6,"Item","B","jazz",NA,"S3",NA,NA,"64","JOL","Slow","S3",4693,"",60
"5bc49417ed1c37000153362e",98,6,"Item","B","symphony",NA,"S4",NA,NA,"65","JOL","Slow","S4",3343,"",70
"5bc49417ed1c37000153362e",99,6,"Item","B","orchestra",NA,"S5",NA,NA,"66","JOL","Slow","S5",3168,"",70
"5bc49417ed1c37000153362e",100,6,"Item","B","rhythm",NA,"S6",NA,NA,"67","JOL","Slow","S6",3661,"",60
"5bc49417ed1c37000153362e",101,6,"Item","B","radio",NA,"S7",NA,NA,"68","JOL","Slow","S7",6794,"",40
"5bc49417ed1c37000153362e",102,6,"Item","B","melody",NA,"S8",NA,NA,"69","JOL","Slow","S8",4656,"",50
"5bc49417ed1c37000153362e",103,6,"Item","B","piano",NA,"S9",NA,NA,"70","JOL","Slow","S9",5199,"",50
"5bc49417ed1c37000153362e",104,6,"Item","B","sound",NA,"S10",NA,NA,"71","JOL","Slow","S10",4226,"",50
"5bc49417ed1c37000153362e",105,6,"Item","B","instrument",NA,"S11",NA,NA,"72","JOL","Slow","S11",5256,"",50
"5bc49417ed1c37000153362e",106,6,"Item","B","note",NA,"S12",NA,NA,"73","JOL","Slow","S12",3610,"",40
"5bc49417ed1c37000153362e",111,6,"Item","B","",NA,"",NA,NA,"0","FreeRecall","","RECALL_Test",60004,"Orchestra, symphony, band, concert, note, piano, melody, sound",NA
"5bc49417ed1c37000153362e",113,6,"Item","B","foam",NA,"RR1",NA,NA,"74","JOL","River","RR1",6545,"",50
"5bc49417ed1c37000153362e",114,6,"Item","B","latex",NA,"RR2",NA,NA,"75","JOL","River","RR2",4423,"",40
"5bc49417ed1c37000153362e",115,6,"Item","B","galoshes",NA,"RR3",NA,NA,"76","JOL","River","RR3",3737,"",20
"5bc49417ed1c37000153362e",116,6,"Item","B","tire",NA,"RR4",NA,NA,"77","JOL","River","RR4",4881,"",30
"5bc49417ed1c37000153362e",117,6,"Item","B","flexible",NA,"RR5",NA,NA,"78","JOL","River","RR5",3150,"",30
"5bc49417ed1c37000153362e",118,6,"Item","B","elastic",NA,"RR6",NA,NA,"79","JOL","River","RR6",3425,"",20
"5bc49417ed1c37000153362e",119,6,"Item","B","gloves",NA,"RR7",NA,NA,"80","JOL","River","RR7",3616,"",30
"5bc49417ed1c37000153362e",120,6,"Item","B","eraser",NA,"RR8",NA,NA,"81","JOL","River","RR8",3375,"",30
"5bc49417ed1c37000153362e",121,6,"Item","B","bounce",NA,"RR9",NA,NA,"82","JOL","River","RR9",4932,"",40
"5bc49417ed1c37000153362e",122,6,"Item","B","ball",NA,"RR10",NA,NA,"83","JOL","River","RR10",3389,"",30
"5bc49417ed1c37000153362e",123,6,"Item","B","soles",NA,"RR11",NA,NA,"84","JOL","River","RR11",3515,"",30
"5bc49417ed1c37000153362e",124,6,"Item","B","springy",NA,"RR12",NA,NA,"85","JOL","River","RR12",3129,"",30
"5bc49417ed1c37000153362e",129,6,"Item","B","",NA,"",NA,NA,"0","FreeRecall","","RECALL_Test",60004,"Galoshes, rubber, elastic, bouncy, latex, tire, ball",NA
"5bc49417ed1c37000153362e",131,6,"Item","B","toe",NA,"B1",NA,NA,"86","JOL","Bread","B1",4550,"",70
"5bc49417ed1c37000153362e",132,6,"Item","B","inch",NA,"B2",NA,NA,"87","JOL","Bread","B2",4086,"",50
"5bc49417ed1c37000153362e",133,6,"Item","B","ankle",NA,"B3",NA,NA,"88","JOL","Bread","B3",6223,"",60
"5bc49417ed1c37000153362e",134,6,"Item","B","shoe",NA,"B4",NA,NA,"89","JOL","Bread","B4",4698,"",70
"5bc49417ed1c37000153362e",135,6,"Item","B","sandals",NA,"B5",NA,NA,"90","JOL","Bread","B5",5016,"",70
"5bc49417ed1c37000153362e",136,6,"Item","B","sock",NA,"B6",NA,NA,"91","JOL","Bread","B6",3485,"",70
"5bc49417ed1c37000153362e",137,6,"Item","B","hand",NA,"B7",NA,NA,"92","JOL","Bread","B7",7388,"",60
"5bc49417ed1c37000153362e",138,6,"Item","B","boot",NA,"B8",NA,NA,"93","JOL","Bread","B8",3659,"",80
"5bc49417ed1c37000153362e",139,6,"Item","B","yard",NA,"B9",NA,NA,"94","JOL","Bread","B9",3517,"",70
"5bc49417ed1c37000153362e",140,6,"Item","B","kick",NA,"B10",NA,NA,"95","JOL","Bread","B10",3504,"",80
"5bc49417ed1c37000153362e",141,6,"Item","B","knee",NA,"B11",NA,NA,"96","JOL","Bread","B11",3599,"",80
"5bc49417ed1c37000153362e",142,6,"Item","B","walk",NA,"B12",NA,NA,"97","JOL","Bread","B12",3561,"",80
"5bc49417ed1c37000153362e",147,6,"Item","B","",NA,"",NA,NA,"0","FreeRecall","","RECALL_Test",60004,"Hand, knee, toe, ankle, kick, shoe, boot, sandal, walking",NA
"5bc49417ed1c37000153362e",149,6,"Item","B","boy",NA,"F1",NA,NA,"98","JOL","Flag","F1",9218,"",80
"5bc49417ed1c37000153362e",150,6,"Item","B","dolls",NA,"F2",NA,NA,"99","JOL","Flag","F2",4374,"",70
"5bc49417ed1c37000153362e",151,6,"Item","B","pretty",NA,"F3",NA,NA,"100","JOL","Flag","F3",3516,"",70
"5bc49417ed1c37000153362e",152,6,"Item","B","female",NA,"F4",NA,NA,"101","JOL","Flag","F4",3457,"",50
"5bc49417ed1c37000153362e",153,6,"Item","B","dress",NA,"F5",NA,NA,"102","JOL","Flag","F5",4759,"",50
"5bc49417ed1c37000153362e",154,6,"Item","B","date",NA,"F6",NA,NA,"103","JOL","Flag","F6",3562,"",30
"5bc49417ed1c37000153362e",155,6,"Item","B","beautiful",NA,"F7",NA,NA,"104","JOL","Flag","F7",3985,"",40
"5bc49417ed1c37000153362e",156,6,"Item","B","daughter",NA,"F8",NA,NA,"105","JOL","Flag","F8",3088,"",50
"5bc49417ed1c37000153362e",157,6,"Item","B","sister",NA,"F9",NA,NA,"106","JOL","Flag","F9",3874,"",70
"5bc49417ed1c37000153362e",158,6,"Item","B","cute",NA,"F10",NA,NA,"107","JOL","Flag","F10",3586,"",40
"5bc49417ed1c37000153362e",159,6,"Item","B","niece",NA,"F11",NA,NA,"108","JOL","Flag","F11",3461,"",70
"5bc49417ed1c37000153362e",160,6,"Item","B","young",NA,"F12",NA,NA,"109","JOL","Flag","F12",3313,"",70
"5bc49417ed1c37000153362e",165,6,"Item","B","",NA,"",NA,NA,"0","FreeRecall","","RECALL_Test",60003,"Pretty, beautiful, young, cute, female, boy, doll, dress, niece, sister, daughter ",NA
"5bc49417ed1c37000153362e",167,6,"Item","B","white",NA,"SS1",NA,NA,"110","JOL","Shirt","SS1",3840,"",70
"5bc49417ed1c37000153362e",168,6,"Item","B","gray",NA,"SS2",NA,NA,"111","JOL","Shirt","SS2",3886,"",70
"5bc49417ed1c37000153362e",169,6,"Item","B","brown",NA,"SS3",NA,NA,"112","JOL","Shirt","SS3",3757,"",70
"5bc49417ed1c37000153362e",170,6,"Item","B","coal",NA,"SS4",NA,NA,"113","JOL","Shirt","SS4",5217,"",50
"5bc49417ed1c37000153362e",171,6,"Item","B","dark",NA,"SS5",NA,NA,"114","JOL","Shirt","SS5",3554,"",40
"5bc49417ed1c37000153362e",172,6,"Item","B","color",NA,"SS6",NA,NA,"115","JOL","Shirt","SS6",5400,"",70
"5bc49417ed1c37000153362e",173,6,"Item","B","funeral",NA,"SS7",NA,NA,"116","JOL","Shirt","SS7",6765,"",40
"5bc49417ed1c37000153362e",174,6,"Item","B","blue",NA,"SS8",NA,NA,"117","JOL","Shirt","SS8",8360,"",80
"5bc49417ed1c37000153362e",175,6,"Item","B","charred",NA,"SS9",NA,NA,"118","JOL","Shirt","SS9",3725,"",50
"5bc49417ed1c37000153362e",176,6,"Item","B","ink",NA,"SS10",NA,NA,"119","JOL","Shirt","SS10",4255,"",40
"5bc49417ed1c37000153362e",177,6,"Item","B","death",NA,"SS11",NA,NA,"120","JOL","Shirt","SS11",5050,"",60
"5bc49417ed1c37000153362e",178,6,"Item","B","cat",NA,"SS12",NA,NA,"121","JOL","Shirt","SS12",3611,"",50
"5bc49417ed1c37000153362e",183,6,"Item","B","",NA,"",NA,NA,"0","FreeRecall","","RECALL_Test",60004,"Funeral, death, charred, coal, cat, blue, gray, dark, colour,",NA
"5c0ca233632102000147c7db",5,6,"Item","B","aroma",NA,"Win_1",NA,NA,"2","JOL","Window","Win_1",6394,"",73
"5c0ca233632102000147c7db",6,6,"Item","B","scent",NA,"Win_2",NA,NA,"3","JOL","Window","Win_2",4887,"",58
"5c0ca233632102000147c7db",7,6,"Item","B","whiff",NA,"Win_3",NA,NA,"4","JOL","Window","Win_3",3264,"",16
"5c0ca233632102000147c7db",8,6,"Item","B","stench",NA,"Win_4",NA,NA,"5","JOL","Window","Win_4",2123,"",38
"5c0ca233632102000147c7db",9,6,"Item","B","reek",NA,"Win_5",NA,NA,"6","JOL","Window","Win_5",1847,"",28
"5c0ca233632102000147c7db",10,6,"Item","B","sniff",NA,"Win_6",NA,NA,"7","JOL","Window","Win_6",1861,"",57
"5c0ca233632102000147c7db",11,6,"Item","B","perfume",NA,"Win_7",NA,NA,"8","JOL","Window","Win_7",1987,"",93
"5c0ca233632102000147c7db",12,6,"Item","B","fragrance",NA,"Win_8",NA,NA,"9","JOL","Window","Win_8",4224,"",57
"5c0ca233632102000147c7db",13,6,"Item","B","nose",NA,"Win_9",NA,NA,"10","JOL","Window","Win_9",2539,"",65
"5c0ca233632102000147c7db",14,6,"Item","B","rose",NA,"Win_10",NA,NA,"11","JOL","Window","Win_10",2081,"",36
"5c0ca233632102000147c7db",15,6,"Item","B","salts",NA,"Win_11",NA,NA,"12","JOL","Window","Win_11",2020,"",85
"5c0ca233632102000147c7db",16,6,"Item","B","breathe",NA,"Win_12",NA,NA,"13","JOL","Window","Win_12",2150,"",96
"5c0ca233632102000147c7db",21,6,"Item","B","",NA,"",NA,NA,"0","FreeRecall","","RECALL_Test",60001,"aroma, scent, smell, nose, rose, perfume, fragrance, reek, sniff, whiff",NA
"5c0ca233632102000147c7db",23,6,"Item","B","hard",NA,"R1",NA,NA,"14","JOL","Rough","R1",4088,"",99
"5c0ca233632102000147c7db",24,6,"Item","B","loud",NA,"R2",NA,NA,"15","JOL","Rough","R2",2067,"",25
"5c0ca233632102000147c7db",25,6,"Item","B","tender",NA,"R3",NA,NA,"16","JOL","Rough","R3",1884,"",58
"5c0ca233632102000147c7db",26,6,"Item","B","fluffy",NA,"R4",NA,NA,"17","JOL","Rough","R4",1806,"",32
"5c0ca233632102000147c7db",27,6,"Item","B","pillow",NA,"R5",NA,NA,"18","JOL","Rough","R5",1769,"",95
"5c0ca233632102000147c7db",28,6,"Item","B","downy",NA,"R6",NA,NA,"19","JOL","Rough","R6",2057,"",45
"5c0ca233632102000147c7db",29,6,"Item","B","plush",NA,"R7",NA,NA,"20","JOL","Rough","R7",1658,"",69
"5c0ca233632102000147c7db",30,6,"Item","B","cotton",NA,"R8",NA,NA,"21","JOL","Rough","R8",2725,"",68
"5c0ca233632102000147c7db",31,6,"Item","B","skin",NA,"R9",NA,NA,"22","JOL","Rough","R9",2406,"",15052152
"5c0ca233632102000147c7db",32,6,"Item","B","fur",NA,"R10",NA,NA,"23","JOL","Rough","R10",2019,"",15
"5c0ca233632102000147c7db",33,6,"Item","B","touch",NA,"R11",NA,NA,"24","JOL","Rough","R11",2131,"",18
"5c0ca233632102000147c7db",34,6,"Item","B","furry",NA,"R12",NA,NA,"25","JOL","Rough","R12",2050,"",89
"5c0ca233632102000147c7db",39,6,"Item","B","",NA,"",NA,NA,"0","FreeRecall","","RECALL_Test",60001,"hard, loud, tender, soft, pillow, downy, ",NA
"5c0ca233632102000147c7db",41,6,"Item","B","honey",NA,"A1",NA,NA,"26","JOL","Anger","A1",2395,"",75
"5c0ca233632102000147c7db",42,6,"Item","B","bitter",NA,"A2",NA,NA,"27","JOL","Anger","A2",1791,"",18
"5c0ca233632102000147c7db",43,6,"Item","B","sugar",NA,"A3",NA,NA,"28","JOL","Anger","A3",1836,"",289
"5c0ca233632102000147c7db",44,6,"Item","B","sour",NA,"A4",NA,NA,"29","JOL","Anger","A4",1580,"",25
"5c0ca233632102000147c7db",45,6,"Item","B","candy",NA,"A5",NA,NA,"30","JOL","Anger","A5",1677,"",6
"5c0ca233632102000147c7db",46,6,"Item","B","tart",NA,"A6",NA,NA,"31","JOL","Anger","A6",1794,"",99
"5c0ca233632102000147c7db",47,6,"Item","B","chocolate",NA,"A7",NA,NA,"32","JOL","Anger","A7",1759,"",56
"5c0ca233632102000147c7db",48,6,"Item","B","nice",NA,"A8",NA,NA,"33","JOL","Anger","A8",1587,"",57
"5c0ca233632102000147c7db",49,6,"Item","B","taste",NA,"A9",NA,NA,"34","JOL","Anger","A9",1393,"",58
"5c0ca233632102000147c7db",50,6,"Item","B","cake",NA,"A10",NA,NA,"35","JOL","Anger","A10",1438,"",59
"5c0ca233632102000147c7db",51,6,"Item","B","good",NA,"A11",NA,NA,"36","JOL","Anger","A11",2040,"",60
"5c0ca233632102000147c7db",52,6,"Item","B","tooth",NA,"A12",NA,NA,"37","JOL","Anger","A12",2314,"",61
"5c0ca233632102000147c7db",57,6,"Item","B","",NA,"",NA,NA,"0","FreeRecall","","RECALL_Test",60001,"honey, bitter, sugar, tart, treacle? my memory is bad",NA
"5c0ca233632102000147c7db",59,6,"Item","B","table",NA,"T1",NA,NA,"38","JOL","Trash","T1",3186,"",100
"5c0ca233632102000147c7db",60,6,"Item","B","swivel",NA,"T2",NA,NA,"39","JOL","Trash","T2",2110,"",1
"5c0ca233632102000147c7db",61,6,"Item","B","rocking",NA,"T3",NA,NA,"40","JOL","Trash","T3",2187,"",50
"5c0ca233632102000147c7db",62,6,"Item","B","recliner",NA,"T4",NA,NA,"41","JOL","Trash","T4",2498,"",99
"5c0ca233632102000147c7db",63,6,"Item","B","seat",NA,"T5",NA,NA,"42","JOL","Trash","T5",1839,"",50
"5c0ca233632102000147c7db",64,6,"Item","B","stool",NA,"T6",NA,NA,"43","JOL","Trash","T6",2195,"",99
"5c0ca233632102000147c7db",65,6,"Item","B","desk",NA,"T7",NA,NA,"44","JOL","Trash","T7",1750,"",98
"5c0ca233632102000147c7db",66,6,"Item","B","couch",NA,"T8",NA,NA,"45","JOL","Trash","T8",2525,"",65
"5c0ca233632102000147c7db",67,6,"Item","B","sit",NA,"T9",NA,NA,"46","JOL","Trash","T9",1403,"",21
"5c0ca233632102000147c7db",68,6,"Item","B","sofa",NA,"T10",NA,NA,"47","JOL","Trash","T10",2071,"",75
"5c0ca233632102000147c7db",69,6,"Item","B","bench",NA,"T11",NA,NA,"48","JOL","Trash","T11",1815,"",79
"5c0ca233632102000147c7db",70,6,"Item","B","sitting",NA,"T12",NA,NA,"49","JOL","Trash","T12",1497,"",45
"5c0ca233632102000147c7db",75,6,"Item","B","",NA,"",NA,NA,"0","FreeRecall","","RECALL_Test",60002,"sit, sitting, chair, bench, sofa, couch, table, recliner, desk, swivel, stool ",NA
"5c0ca233632102000147c7db",77,6,"Item","B","climber",NA,"D1",NA,NA,"50","JOL","Doctor","D1",1892,"",18
"5c0ca233632102000147c7db",78,6,"Item","B","hill",NA,"D2",NA,NA,"51","JOL","Doctor","D2",1603,"",65
"5c0ca233632102000147c7db",79,6,"Item","B","climb",NA,"D3",NA,NA,"52","JOL","Doctor","D3",1610,"",95
"5c0ca233632102000147c7db",80,6,"Item","B","molehill",NA,"D4",NA,NA,"53","JOL","Doctor","D4",1670,"",25
"5c0ca233632102000147c7db",81,6,"Item","B","peak",NA,"D5",NA,NA,"54","JOL","Doctor","D5",1866,"",65
"5c0ca233632102000147c7db",82,6,"Item","B","valley",NA,"D6",NA,NA,"55","JOL","Doctor","D6",1582,"",25
"5c0ca233632102000147c7db",83,6,"Item","B","summit",NA,"D7",NA,NA,"56","JOL","Doctor","D7",2250,"",55
"5c0ca233632102000147c7db",84,6,"Item","B","steep",NA,"D8",NA,NA,"57","JOL","Doctor","D8",2326,"",78
"5c0ca233632102000147c7db",85,6,"Item","B","ski",NA,"D9",NA,NA,"58","JOL","Doctor","D9",2540,"",89
"5c0ca233632102000147c7db",86,6,"Item","B","bike",NA,"D10",NA,NA,"59","JOL","Doctor","D10",2217,"",66
"5c0ca233632102000147c7db",87,6,"Item","B","goat",NA,"D11",NA,NA,"60","JOL","Doctor","D11",2068,"",99
"5c0ca233632102000147c7db",88,6,"Item","B","glacier",NA,"D12",NA,NA,"61","JOL","Doctor","D12",2043,"",15
"5c0ca233632102000147c7db",93,6,"Item","B","",NA,"",NA,NA,"0","FreeRecall","","RECALL_Test",60001,"climber, climb, hill, molehill, peak, valley, glacier, summit, ski",NA
"5c0ca233632102000147c7db",95,6,"Item","B","band",NA,"S1",NA,NA,"62","JOL","Slow","S1",2467,"",89
"5c0ca233632102000147c7db",96,6,"Item","B","concert",NA,"S2",NA,NA,"63","JOL","Slow","S2",1697,"",59
"5c0ca233632102000147c7db",97,6,"Item","B","jazz",NA,"S3",NA,NA,"64","JOL","Slow","S3",1669,"",36
"5c0ca233632102000147c7db",98,6,"Item","B","symphony",NA,"S4",NA,NA,"65","JOL","Slow","S4",2291,"",74
"5c0ca233632102000147c7db",99,6,"Item","B","orchestra",NA,"S5",NA,NA,"66","JOL","Slow","S5",2216,"",82
"5c0ca233632102000147c7db",100,6,"Item","B","rhythm",NA,"S6",NA,NA,"67","JOL","Slow","S6",1846,"",15
"5c0ca233632102000147c7db",101,6,"Item","B","radio",NA,"S7",NA,NA,"68","JOL","Slow","S7",2940,"",89
"5c0ca233632102000147c7db",102,6,"Item","B","melody",NA,"S8",NA,NA,"69","JOL","Slow","S8",2143,"",71
"5c0ca233632102000147c7db",103,6,"Item","B","piano",NA,"S9",NA,NA,"70","JOL","Slow","S9",2105,"",26
"5c0ca233632102000147c7db",104,6,"Item","B","sound",NA,"S10",NA,NA,"71","JOL","Slow","S10",3106,"",10
"5c0ca233632102000147c7db",105,6,"Item","B","instrument",NA,"S11",NA,NA,"72","JOL","Slow","S11",2242,"",81
"5c0ca233632102000147c7db",106,6,"Item","B","note",NA,"S12",NA,NA,"73","JOL","Slow","S12",1793,"",26
"5c0ca233632102000147c7db",111,6,"Item","B","",NA,"",NA,NA,"0","FreeRecall","","RECALL_Test",60002,"band, concert, jazz, orchestra, instrument, sound, rhythm, piano, symphony, ",NA
"5c0ca233632102000147c7db",113,6,"Item","B","foam",NA,"RR1",NA,NA,"74","JOL","River","RR1",2136,"",15
"5c0ca233632102000147c7db",114,6,"Item","B","latex",NA,"RR2",NA,NA,"75","JOL","River","RR2",1856,"",69
"5c0ca233632102000147c7db",115,6,"Item","B","galoshes",NA,"RR3",NA,NA,"76","JOL","River","RR3",2352,"",99
"5c0ca233632102000147c7db",116,6,"Item","B","tire",NA,"RR4",NA,NA,"77","JOL","River","RR4",2345,"",19
"5c0ca233632102000147c7db",117,6,"Item","B","flexible",NA,"RR5",NA,NA,"78","JOL","River","RR5",1929,"",74
"5c0ca233632102000147c7db",118,6,"Item","B","elastic",NA,"RR6",NA,NA,"79","JOL","River","RR6",2518,"",36
"5c0ca233632102000147c7db",119,6,"Item","B","gloves",NA,"RR7",NA,NA,"80","JOL","River","RR7",2221,"",52
"5c0ca233632102000147c7db",120,6,"Item","B","eraser",NA,"RR8",NA,NA,"81","JOL","River","RR8",1855,"",10
"5c0ca233632102000147c7db",121,6,"Item","B","bounce",NA,"RR9",NA,NA,"82","JOL","River","RR9",1996,"",99
"5c0ca233632102000147c7db",122,6,"Item","B","ball",NA,"RR10",NA,NA,"83","JOL","River","RR10",1816,"",99
"5c0ca233632102000147c7db",123,6,"Item","B","soles",NA,"RR11",NA,NA,"84","JOL","River","RR11",2039,"",1
"5c0ca233632102000147c7db",124,6,"Item","B","springy",NA,"RR12",NA,NA,"85","JOL","River","RR12",1889,"",18
"5c0ca233632102000147c7db",129,6,"Item","B","",NA,"",NA,NA,"0","FreeRecall","","RECALL_Test",60001,"latex, galoshes, literally forgotten everything else",NA
"5c0ca233632102000147c7db",131,6,"Item","B","toe",NA,"B1",NA,NA,"86","JOL","Bread","B1",3084,"",18
"5c0ca233632102000147c7db",132,6,"Item","B","inch",NA,"B2",NA,NA,"87","JOL","Bread","B2",1925,"",69
"5c0ca233632102000147c7db",133,6,"Item","B","ankle",NA,"B3",NA,NA,"88","JOL","Bread","B3",2287,"",52
"5c0ca233632102000147c7db",134,6,"Item","B","shoe",NA,"B4",NA,NA,"89","JOL","Bread","B4",3657,"",14
"5c0ca233632102000147c7db",135,6,"Item","B","sandals",NA,"B5",NA,NA,"90","JOL","Bread","B5",1862,"",26
"5c0ca233632102000147c7db",136,6,"Item","B","sock",NA,"B6",NA,NA,"91","JOL","Bread","B6",3905,"",99
"5c0ca233632102000147c7db",137,6,"Item","B","hand",NA,"B7",NA,NA,"92","JOL","Bread","B7",1668,"",15
"5c0ca233632102000147c7db",138,6,"Item","B","boot",NA,"B8",NA,NA,"93","JOL","Bread","B8",1534,"",36
"5c0ca233632102000147c7db",139,6,"Item","B","yard",NA,"B9",NA,NA,"94","JOL","Bread","B9",1605,"",69
"5c0ca233632102000147c7db",140,6,"Item","B","kick",NA,"B10",NA,NA,"95","JOL","Bread","B10",1600,"",25
"5c0ca233632102000147c7db",141,6,"Item","B","knee",NA,"B11",NA,NA,"96","JOL","Bread","B11",2029,"",74
"5c0ca233632102000147c7db",142,6,"Item","B","walk",NA,"B12",NA,NA,"97","JOL","Bread","B12",1846,"",15
"5c0ca233632102000147c7db",147,6,"Item","B","",NA,"",NA,NA,"0","FreeRecall","","RECALL_Test",60001,"shoe, sock, sandal, hand, foot, head, shoulder, knee, toes, ",NA
"5c0ca233632102000147c7db",149,6,"Item","B","boy",NA,"F1",NA,NA,"98","JOL","Flag","F1",3410,"",99
"5c0ca233632102000147c7db",150,6,"Item","B","dolls",NA,"F2",NA,NA,"99","JOL","Flag","F2",1846,"",55
"5c0ca233632102000147c7db",151,6,"Item","B","pretty",NA,"F3",NA,NA,"100","JOL","Flag","F3",1634,"",66
"5c0ca233632102000147c7db",152,6,"Item","B","female",NA,"F4",NA,NA,"101","JOL","Flag","F4",1803,"",77
"5c0ca233632102000147c7db",153,6,"Item","B","dress",NA,"F5",NA,NA,"102","JOL","Flag","F5",1602,"",88
"5c0ca233632102000147c7db",154,6,"Item","B","date",NA,"F6",NA,NA,"103","JOL","Flag","F6",1941,"",11
"5c0ca233632102000147c7db",155,6,"Item","B","beautiful",NA,"F7",NA,NA,"104","JOL","Flag","F7",1612,"",22
"5c0ca233632102000147c7db",156,6,"Item","B","daughter",NA,"F8",NA,NA,"105","JOL","Flag","F8",1563,"",33
"5c0ca233632102000147c7db",157,6,"Item","B","sister",NA,"F9",NA,NA,"106","JOL","Flag","F9",1587,"",44
"5c0ca233632102000147c7db",158,6,"Item","B","cute",NA,"F10",NA,NA,"107","JOL","Flag","F10",1475,"",55
"5c0ca233632102000147c7db",159,6,"Item","B","niece",NA,"F11",NA,NA,"108","JOL","Flag","F11",1521,"",66
"5c0ca233632102000147c7db",160,6,"Item","B","young",NA,"F12",NA,NA,"109","JOL","Flag","F12",1630,"",77
"5c0ca233632102000147c7db",165,6,"Item","B","",NA,"",NA,NA,"0","FreeRecall","","RECALL_Test",60001,"i've lost the will to live, i can't rememeber anything anymore,. ",NA
"5c0ca233632102000147c7db",167,6,"Item","B","white",NA,"SS1",NA,NA,"110","JOL","Shirt","SS1",1707,"",1
"5c0ca233632102000147c7db",168,6,"Item","B","gray",NA,"SS2",NA,NA,"111","JOL","Shirt","SS2",1616,"",2
"5c0ca233632102000147c7db",169,6,"Item","B","brown",NA,"SS3",NA,NA,"112","JOL","Shirt","SS3",1639,"",3
"5c0ca233632102000147c7db",170,6,"Item","B","coal",NA,"SS4",NA,NA,"113","JOL","Shirt","SS4",1582,"",4
"5c0ca233632102000147c7db",171,6,"Item","B","dark",NA,"SS5",NA,NA,"114","JOL","Shirt","SS5",1605,"",5
"5c0ca233632102000147c7db",172,6,"Item","B","color",NA,"SS6",NA,NA,"115","JOL","Shirt","SS6",1588,"",6
"5c0ca233632102000147c7db",173,6,"Item","B","funeral",NA,"SS7",NA,NA,"116","JOL","Shirt","SS7",1727,"",7
"5c0ca233632102000147c7db",174,6,"Item","B","blue",NA,"SS8",NA,NA,"117","JOL","Shirt","SS8",1382,"",8
"5c0ca233632102000147c7db",175,6,"Item","B","charred",NA,"SS9",NA,NA,"118","JOL","Shirt","SS9",1321,"",9
"5c0ca233632102000147c7db",176,6,"Item","B","ink",NA,"SS10",NA,NA,"119","JOL","Shirt","SS10",1657,"",10
"5c0ca233632102000147c7db",177,6,"Item","B","death",NA,"SS11",NA,NA,"120","JOL","Shirt","SS11",1589,"",11
"5c0ca233632102000147c7db",178,6,"Item","B","cat",NA,"SS12",NA,NA,"121","JOL","Shirt","SS12",1271,"",12
"5c0ca233632102000147c7db",183,6,"Item","B","",NA,"",NA,NA,"0","FreeRecall","","RECALL_Test",60001,"grey, white, coal, blue? red? yellow? despair",NA
"5c324470d071a2000143c82a",5,6,"Item","B","aroma",NA,"Win_1",NA,NA,"2","JOL","Window","Win_1",6498,"",60
"5c324470d071a2000143c82a",6,6,"Item","B","scent",NA,"Win_2",NA,NA,"3","JOL","Window","Win_2",3162,"",50
"5c324470d071a2000143c82a",7,6,"Item","B","whiff",NA,"Win_3",NA,NA,"4","JOL","Window","Win_3",6235,"",70
"5c324470d071a2000143c82a",8,6,"Item","B","stench",NA,"Win_4",NA,NA,"5","JOL","Window","Win_4",7808,"",40
"5c324470d071a2000143c82a",9,6,"Item","B","reek",NA,"Win_5",NA,NA,"6","JOL","Window","Win_5",6085,"",60
"5c324470d071a2000143c82a",10,6,"Item","B","sniff",NA,"Win_6",NA,NA,"7","JOL","Window","Win_6",4571,"",50
"5c324470d071a2000143c82a",11,6,"Item","B","perfume",NA,"Win_7",NA,NA,"8","JOL","Window","Win_7",6093,"",50
"5c324470d071a2000143c82a",12,6,"Item","B","fragrance",NA,"Win_8",NA,NA,"9","JOL","Window","Win_8",3054,"",60
"5c324470d071a2000143c82a",13,6,"Item","B","nose",NA,"Win_9",NA,NA,"10","JOL","Window","Win_9",3625,"",70
"5c324470d071a2000143c82a",14,6,"Item","B","rose",NA,"Win_10",NA,NA,"11","JOL","Window","Win_10",7041,"",35
"5c324470d071a2000143c82a",15,6,"Item","B","salts",NA,"Win_11",NA,NA,"12","JOL","Window","Win_11",3328,"",30
"5c324470d071a2000143c82a",16,6,"Item","B","breathe",NA,"Win_12",NA,NA,"13","JOL","Window","Win_12",8809,"",75
"5c324470d071a2000143c82a",21,6,"Item","B","",NA,"",NA,NA,"0","FreeRecall","","RECALL_Test",60001,"aroma,scent,stench,whiff,perfume,fragrance,nose,breathe, ",NA
"5c324470d071a2000143c82a",23,6,"Item","B","hard",NA,"R1",NA,NA,"14","JOL","Rough","R1",4376,"",40
"5c324470d071a2000143c82a",24,6,"Item","B","loud",NA,"R2",NA,NA,"15","JOL","Rough","R2",4549,"",50
"5c324470d071a2000143c82a",25,6,"Item","B","tender",NA,"R3",NA,NA,"16","JOL","Rough","R3",4505,"",30
"5c324470d071a2000143c82a",26,6,"Item","B","fluffy",NA,"R4",NA,NA,"17","JOL","Rough","R4",5088,"",20
"5c324470d071a2000143c82a",27,6,"Item","B","pillow",NA,"R5",NA,NA,"18","JOL","Rough","R5",3262,"",30
"5c324470d071a2000143c82a",28,6,"Item","B","downy",NA,"R6",NA,NA,"19","JOL","Rough","R6",3795,"",70
"5c324470d071a2000143c82a",29,6,"Item","B","plush",NA,"R7",NA,NA,"20","JOL","Rough","R7",2908,"",30
"5c324470d071a2000143c82a",30,6,"Item","B","cotton",NA,"R8",NA,NA,"21","JOL","Rough","R8",3584,"",65
"5c324470d071a2000143c82a",31,6,"Item","B","skin",NA,"R9",NA,NA,"22","JOL","Rough","R9",2550,"",40
"5c324470d071a2000143c82a",32,6,"Item","B","fur",NA,"R10",NA,NA,"23","JOL","Rough","R10",7671,"",30
"5c324470d071a2000143c82a",33,6,"Item","B","touch",NA,"R11",NA,NA,"24","JOL","Rough","R11",5571,"",35
"5c324470d071a2000143c82a",34,6,"Item","B","furry",NA,"R12",NA,NA,"25","JOL","Rough","R12",3129,"",60
"5c324470d071a2000143c82a",39,6,"Item","B","",NA,"",NA,NA,"0","FreeRecall","","RECALL_Test",60320,"skin,touch,tender,loud,furry,pillow,plush,",NA
"5c324470d071a2000143c82a",41,6,"Item","B","honey",NA,"A1",NA,NA,"26","JOL","Anger","A1",3499,"",60
"5c324470d071a2000143c82a",42,6,"Item","B","bitter",NA,"A2",NA,NA,"27","JOL","Anger","A2",2240,"",30
"5c324470d071a2000143c82a",43,6,"Item","B","sugar",NA,"A3",NA,NA,"28","JOL","Anger","A3",3003,"",50
"5c324470d071a2000143c82a",44,6,"Item","B","sour",NA,"A4",NA,NA,"29","JOL","Anger","A4",4218,"",40
"5c324470d071a2000143c82a",45,6,"Item","B","candy",NA,"A5",NA,NA,"30","JOL","Anger","A5",3847,"",60
"5c324470d071a2000143c82a",46,6,"Item","B","tart",NA,"A6",NA,NA,"31","JOL","Anger","A6",2634,"",25
"5c324470d071a2000143c82a",47,6,"Item","B","chocolate",NA,"A7",NA,NA,"32","JOL","Anger","A7",2464,"",50
"5c324470d071a2000143c82a",48,6,"Item","B","nice",NA,"A8",NA,NA,"33","JOL","Anger","A8",3575,"",60
"5c324470d071a2000143c82a",49,6,"Item","B","taste",NA,"A9",NA,NA,"34","JOL","Anger","A9",4308,"",50
"5c324470d071a2000143c82a",50,6,"Item","B","cake",NA,"A10",NA,NA,"35","JOL","Anger","A10",2298,"",50
"5c324470d071a2000143c82a",51,6,"Item","B","good",NA,"A11",NA,NA,"36","JOL","Anger","A11",4950,"",20
"5c324470d071a2000143c82a",52,6,"Item","B","tooth",NA,"A12",NA,NA,"37","JOL","Anger","A12",4198,"",20
"5c324470d071a2000143c82a",57,6,"Item","B","",NA,"",NA,NA,"0","FreeRecall","","RECALL_Test",60674,"honey,candy,sweet,bitter,tart,good,nice,chocolate,cake,taste,",NA
"5c324470d071a2000143c82a",59,6,"Item","B","table",NA,"T1",NA,NA,"38","JOL","Trash","T1",3254,"",50
"5c324470d071a2000143c82a",60,6,"Item","B","swivel",NA,"T2",NA,NA,"39","JOL","Trash","T2",3208,"",10
"5c324470d071a2000143c82a",61,6,"Item","B","rocking",NA,"T3",NA,NA,"40","JOL","Trash","T3",3049,"",20
"5c324470d071a2000143c82a",62,6,"Item","B","recliner",NA,"T4",NA,NA,"41","JOL","Trash","T4",6868,"",45
"5c324470d071a2000143c82a",63,6,"Item","B","seat",NA,"T5",NA,NA,"42","JOL","Trash","T5",4700,"",50
"5c324470d071a2000143c82a",64,6,"Item","B","stool",NA,"T6",NA,NA,"43","JOL","Trash","T6",4568,"",60
"5c324470d071a2000143c82a",65,6,"Item","B","desk",NA,"T7",NA,NA,"44","JOL","Trash","T7",2594,"",60
"5c324470d071a2000143c82a",66,6,"Item","B","couch",NA,"T8",NA,NA,"45","JOL","Trash","T8",1814,"",50
"5c324470d071a2000143c82a",67,6,"Item","B","sit",NA,"T9",NA,NA,"46","JOL","Trash","T9",3345,"",70
"5c324470d071a2000143c82a",68,6,"Item","B","sofa",NA,"T10",NA,NA,"47","JOL","Trash","T10",3805,"",90
"5c324470d071a2000143c82a",69,6,"Item","B","bench",NA,"T11",NA,NA,"48","JOL","Trash","T11",3319,"",70
"5c324470d071a2000143c82a",70,6,"Item","B","sitting",NA,"T12",NA,NA,"49","JOL","Trash","T12",3272,"",60
"5c324470d071a2000143c82a",75,6,"Item","B","",NA,"",NA,NA,"0","FreeRecall","","RECALL_Test",60547,"couch,table,desk,sit,sitting,stool,recliner,rocking,",NA
"5c324470d071a2000143c82a",77,6,"Item","B","climber",NA,"D1",NA,NA,"50","JOL","Doctor","D1",3306,"",40
"5c324470d071a2000143c82a",78,6,"Item","B","hill",NA,"D2",NA,NA,"51","JOL","Doctor","D2",2364,"",50
"5c324470d071a2000143c82a",79,6,"Item","B","climb",NA,"D3",NA,NA,"52","JOL","Doctor","D3",1813,"",50
"5c324470d071a2000143c82a",80,6,"Item","B","molehill",NA,"D4",NA,NA,"53","JOL","Doctor","D4",3149,"",20
"5c324470d071a2000143c82a",81,6,"Item","B","peak",NA,"D5",NA,NA,"54","JOL","Doctor","D5",2241,"",60
"5c324470d071a2000143c82a",82,6,"Item","B","valley",NA,"D6",NA,NA,"55","JOL","Doctor","D6",4134,"",60
"5c324470d071a2000143c82a",83,6,"Item","B","summit",NA,"D7",NA,NA,"56","JOL","Doctor","D7",8544,"",60
"5c324470d071a2000143c82a",84,6,"Item","B","steep",NA,"D8",NA,NA,"57","JOL","Doctor","D8",3797,"",40
"5c324470d071a2000143c82a",85,6,"Item","B","ski",NA,"D9",NA,NA,"58","JOL","Doctor","D9",1918,"",70
"5c324470d071a2000143c82a",86,6,"Item","B","bike",NA,"D10",NA,NA,"59","JOL","Doctor","D10",2230,"",60
"5c324470d071a2000143c82a",87,6,"Item","B","goat",NA,"D11",NA,NA,"60","JOL","Doctor","D11",2841,"",60
"5c324470d071a2000143c82a",88,6,"Item","B","glacier",NA,"D12",NA,NA,"61","JOL","Doctor","D12",3107,"",40
"5c324470d071a2000143c82a",93,6,"Item","B","",NA,"",NA,NA,"0","FreeRecall","","RECALL_Test",60303,"climber,hill,valley,ski,summit,goat,bike,climb,steep",NA
"5c324470d071a2000143c82a",95,6,"Item","B","band",NA,"S1",NA,NA,"62","JOL","Slow","S1",3290,"",60
"5c324470d071a2000143c82a",96,6,"Item","B","concert",NA,"S2",NA,NA,"63","JOL","Slow","S2",2018,"",60
"5c324470d071a2000143c82a",97,6,"Item","B","jazz",NA,"S3",NA,NA,"64","JOL","Slow","S3",1506,"",50
"5c324470d071a2000143c82a",98,6,"Item","B","symphony",NA,"S4",NA,NA,"65","JOL","Slow","S4",2785,"",40
"5c324470d071a2000143c82a",99,6,"Item","B","orchestra",NA,"S5",NA,NA,"66","JOL","Slow","S5",3188,"",40
"5c324470d071a2000143c82a",100,6,"Item","B","rhythm",NA,"S6",NA,NA,"67","JOL","Slow","S6",3367,"",70
"5c324470d071a2000143c82a",101,6,"Item","B","radio",NA,"S7",NA,NA,"68","JOL","Slow","S7",2034,"",60
"5c324470d071a2000143c82a",102,6,"Item","B","melody",NA,"S8",NA,NA,"69","JOL","Slow","S8",2300,"",80
"5c324470d071a2000143c82a",103,6,"Item","B","piano",NA,"S9",NA,NA,"70","JOL","Slow","S9",2771,"",90
"5c324470d071a2000143c82a",104,6,"Item","B","sound",NA,"S10",NA,NA,"71","JOL","Slow","S10",2709,"",60
"5c324470d071a2000143c82a",105,6,"Item","B","instrument",NA,"S11",NA,NA,"72","JOL","Slow","S11",1929,"",40
"5c324470d071a2000143c82a",106,6,"Item","B","note",NA,"S12",NA,NA,"73","JOL","Slow","S12",2402,"",40
"5c324470d071a2000143c82a",111,6,"Item","B","",NA,"",NA,NA,"0","FreeRecall","","RECALL_Test",60642,"note,symphony,orchestra,jazz,concert,band,piano,",NA
"5c324470d071a2000143c82a",113,6,"Item","B","foam",NA,"RR1",NA,NA,"74","JOL","River","RR1",1767,"",50
"5c324470d071a2000143c82a",114,6,"Item","B","latex",NA,"RR2",NA,NA,"75","JOL","River","RR2",1676,"",40
"5c324470d071a2000143c82a",115,6,"Item","B","galoshes",NA,"RR3",NA,NA,"76","JOL","River","RR3",2180,"",10
"5c324470d071a2000143c82a",116,6,"Item","B","tire",NA,"RR4",NA,NA,"77","JOL","River","RR4",3096,"",60
"5c324470d071a2000143c82a",117,6,"Item","B","flexible",NA,"RR5",NA,NA,"78","JOL","River","RR5",1904,"",50
"5c324470d071a2000143c82a",118,6,"Item","B","elastic",NA,"RR6",NA,NA,"79","JOL","River","RR6",1985,"",60
"5c324470d071a2000143c82a",119,6,"Item","B","gloves",NA,"RR7",NA,NA,"80","JOL","River","RR7",3525,"",70
"5c324470d071a2000143c82a",120,6,"Item","B","eraser",NA,"RR8",NA,NA,"81","JOL","River","RR8",1817,"",70
"5c324470d071a2000143c82a",121,6,"Item","B","bounce",NA,"RR9",NA,NA,"82","JOL","River","RR9",2135,"",50
"5c324470d071a2000143c82a",122,6,"Item","B","ball",NA,"RR10",NA,NA,"83","JOL","River","RR10",1708,"",40
"5c324470d071a2000143c82a",123,6,"Item","B","soles",NA,"RR11",NA,NA,"84","JOL","River","RR11",1609,"",30
"5c324470d071a2000143c82a",124,6,"Item","B","springy",NA,"RR12",NA,NA,"85","JOL","River","RR12",3178,"",30
"5c324470d071a2000143c82a",129,6,"Item","B","",NA,"",NA,NA,"0","FreeRecall","","RECALL_Test",60652,"elastic,rubber,tire,ball,gloves,bounce,",NA
"5c324470d071a2000143c82a",131,6,"Item","B","toe",NA,"B1",NA,NA,"86","JOL","Bread","B1",2124,"",60
"5c324470d071a2000143c82a",132,6,"Item","B","inch",NA,"B2",NA,NA,"87","JOL","Bread","B2",2289,"",60
"5c324470d071a2000143c82a",133,6,"Item","B","ankle",NA,"B3",NA,NA,"88","JOL","Bread","B3",2209,"",60
"5c324470d071a2000143c82a",134,6,"Item","B","shoe",NA,"B4",NA,NA,"89","JOL","Bread","B4",2436,"",70
"5c324470d071a2000143c82a",135,6,"Item","B","sandals",NA,"B5",NA,NA,"90","JOL","Bread","B5",1531,"",40
"5c324470d071a2000143c82a",136,6,"Item","B","sock",NA,"B6",NA,NA,"91","JOL","Bread","B6",1399,"",50
"5c324470d071a2000143c82a",137,6,"Item","B","hand",NA,"B7",NA,NA,"92","JOL","Bread","B7",1390,"",50
"5c324470d071a2000143c82a",138,6,"Item","B","boot",NA,"B8",NA,NA,"93","JOL","Bread","B8",2201,"",50
"5c324470d071a2000143c82a",139,6,"Item","B","yard",NA,"B9",NA,NA,"94","JOL","Bread","B9",1920,"",40
"5c324470d071a2000143c82a",140,6,"Item","B","kick",NA,"B10",NA,NA,"95","JOL","Bread","B10",1838,"",50
"5c324470d071a2000143c82a",141,6,"Item","B","knee",NA,"B11",NA,NA,"96","JOL","Bread","B11",2903,"",50
"5c324470d071a2000143c82a",142,6,"Item","B","walk",NA,"B12",NA,NA,"97","JOL","Bread","B12",2374,"",60
"5c324470d071a2000143c82a",147,6,"Item","B","",NA,"",NA,NA,"0","FreeRecall","","RECALL_Test",60837,"toe,shoe,walk,ankle,knee,feet,",NA
"5c324470d071a2000143c82a",149,6,"Item","B","boy",NA,"F1",NA,NA,"98","JOL","Flag","F1",2637,"",60
"5c324470d071a2000143c82a",150,6,"Item","B","dolls",NA,"F2",NA,NA,"99","JOL","Flag","F2",2343,"",40
"5c324470d071a2000143c82a",151,6,"Item","B","pretty",NA,"F3",NA,NA,"100","JOL","Flag","F3",4042,"",40
"5c324470d071a2000143c82a",152,6,"Item","B","female",NA,"F4",NA,NA,"101","JOL","Flag","F4",2920,"",50
"5c324470d071a2000143c82a",153,6,"Item","B","dress",NA,"F5",NA,NA,"102","JOL","Flag","F5",2220,"",50
"5c324470d071a2000143c82a",154,6,"Item","B","date",NA,"F6",NA,NA,"103","JOL","Flag","F6",1948,"",60
"5c324470d071a2000143c82a",155,6,"Item","B","beautiful",NA,"F7",NA,NA,"104","JOL","Flag","F7",2214,"",50
"5c324470d071a2000143c82a",156,6,"Item","B","daughter",NA,"F8",NA,NA,"105","JOL","Flag","F8",2475,"",60
"5c324470d071a2000143c82a",157,6,"Item","B","sister",NA,"F9",NA,NA,"106","JOL","Flag","F9",1667,"",60
"5c324470d071a2000143c82a",158,6,"Item","B","cute",NA,"F10",NA,NA,"107","JOL","Flag","F10",3005,"",70
"5c324470d071a2000143c82a",159,6,"Item","B","niece",NA,"F11",NA,NA,"108","JOL","Flag","F11",1802,"",40
"5c324470d071a2000143c82a",160,6,"Item","B","young",NA,"F12",NA,NA,"109","JOL","Flag","F12",4515,"",40
"5c324470d071a2000143c82a",165,6,"Item","B","",NA,"",NA,NA,"0","FreeRecall","","RECALL_Test",60001,"daughter,niece,cute,boy,female,sister,young,",NA
"5c324470d071a2000143c82a",167,6,"Item","B","white",NA,"SS1",NA,NA,"110","JOL","Shirt","SS1",25078,"",50
"5c324470d071a2000143c82a",168,6,"Item","B","gray",NA,"SS2",NA,NA,"111","JOL","Shirt","SS2",2451,"",40
"5c324470d071a2000143c82a",169,6,"Item","B","brown",NA,"SS3",NA,NA,"112","JOL","Shirt","SS3",2516,"",50
"5c324470d071a2000143c82a",170,6,"Item","B","coal",NA,"SS4",NA,NA,"113","JOL","Shirt","SS4",3034,"",40
"5c324470d071a2000143c82a",171,6,"Item","B","dark",NA,"SS5",NA,NA,"114","JOL","Shirt","SS5",3792,"",50
"5c324470d071a2000143c82a",172,6,"Item","B","color",NA,"SS6",NA,NA,"115","JOL","Shirt","SS6",1723,"",60
"5c324470d071a2000143c82a",173,6,"Item","B","funeral",NA,"SS7",NA,NA,"116","JOL","Shirt","SS7",2409,"",50
"5c324470d071a2000143c82a",174,6,"Item","B","blue",NA,"SS8",NA,NA,"117","JOL","Shirt","SS8",3731,"",60
"5c324470d071a2000143c82a",175,6,"Item","B","charred",NA,"SS9",NA,NA,"118","JOL","Shirt","SS9",2369,"",40
"5c324470d071a2000143c82a",176,6,"Item","B","ink",NA,"SS10",NA,NA,"119","JOL","Shirt","SS10",2340,"",60
"5c324470d071a2000143c82a",177,6,"Item","B","death",NA,"SS11",NA,NA,"120","JOL","Shirt","SS11",2256,"",40
"5c324470d071a2000143c82a",178,6,"Item","B","cat",NA,"SS12",NA,NA,"121","JOL","Shirt","SS12",2381,"",30
"5c324470d071a2000143c82a",183,6,"Item","B","",NA,"",NA,NA,"0","FreeRecall","","RECALL_Test",60000,"cat, white, gray, blue, color, funeral, death, ",NA
"5c3a5009fb7feb00014290f1",5,6,"Item","B","aroma",NA,"Win_1",NA,NA,"2","JOL","Window","Win_1",10486,"",70
"5c3a5009fb7feb00014290f1",6,6,"Item","B","scent",NA,"Win_2",NA,NA,"3","JOL","Window","Win_2",5957,"",72
"5c3a5009fb7feb00014290f1",7,6,"Item","B","whiff",NA,"Win_3",NA,NA,"4","JOL","Window","Win_3",5843,"",70
"5c3a5009fb7feb00014290f1",8,6,"Item","B","stench",NA,"Win_4",NA,NA,"5","JOL","Window","Win_4",4090,"",40
"5c3a5009fb7feb00014290f1",9,6,"Item","B","reek",NA,"Win_5",NA,NA,"6","JOL","Window","Win_5",3509,"",50
"5c3a5009fb7feb00014290f1",10,6,"Item","B","sniff",NA,"Win_6",NA,NA,"7","JOL","Window","Win_6",4445,"",40
"5c3a5009fb7feb00014290f1",11,6,"Item","B","perfume",NA,"Win_7",NA,NA,"8","JOL","Window","Win_7",3299,"",78
"5c3a5009fb7feb00014290f1",12,6,"Item","B","fragrance",NA,"Win_8",NA,NA,"9","JOL","Window","Win_8",8191,"",50
"5c3a5009fb7feb00014290f1",13,6,"Item","B","nose",NA,"Win_9",NA,NA,"10","JOL","Window","Win_9",4168,"",30
"5c3a5009fb7feb00014290f1",14,6,"Item","B","rose",NA,"Win_10",NA,NA,"11","JOL","Window","Win_10",2563,"",20
"5c3a5009fb7feb00014290f1",15,6,"Item","B","salts",NA,"Win_11",NA,NA,"12","JOL","Window","Win_11",2055,"",10
"5c3a5009fb7feb00014290f1",16,6,"Item","B","breathe",NA,"Win_12",NA,NA,"13","JOL","Window","Win_12",2286,"",20
"5c3a5009fb7feb00014290f1",21,6,"Item","B","",NA,"",NA,NA,"0","FreeRecall","","RECALL_Test",60014,"Stench Aroma Rose Nose Sniff Whiff Fragrance Perfume Scent Breathe",NA
"5c3a5009fb7feb00014290f1",23,6,"Item","B","hard",NA,"R1",NA,NA,"14","JOL","Rough","R1",3184,"",50
"5c3a5009fb7feb00014290f1",24,6,"Item","B","loud",NA,"R2",NA,NA,"15","JOL","Rough","R2",2396,"",50
"5c3a5009fb7feb00014290f1",25,6,"Item","B","tender",NA,"R3",NA,NA,"16","JOL","Rough","R3",3152,"",55
"5c3a5009fb7feb00014290f1",26,6,"Item","B","fluffy",NA,"R4",NA,NA,"17","JOL","Rough","R4",3190,"",50
"5c3a5009fb7feb00014290f1",27,6,"Item","B","pillow",NA,"R5",NA,NA,"18","JOL","Rough","R5",4890,"",40
"5c3a5009fb7feb00014290f1",28,6,"Item","B","downy",NA,"R6",NA,NA,"19","JOL","Rough","R6",4492,"",60
"5c3a5009fb7feb00014290f1",29,6,"Item","B","plush",NA,"R7",NA,NA,"20","JOL","Rough","R7",2826,"",50
"5c3a5009fb7feb00014290f1",30,6,"Item","B","cotton",NA,"R8",NA,NA,"21","JOL","Rough","R8",2897,"",30
"5c3a5009fb7feb00014290f1",31,6,"Item","B","skin",NA,"R9",NA,NA,"22","JOL","Rough","R9",3008,"",70
"5c3a5009fb7feb00014290f1",32,6,"Item","B","fur",NA,"R10",NA,NA,"23","JOL","Rough","R10",3386,"",75
"5c3a5009fb7feb00014290f1",33,6,"Item","B","touch",NA,"R11",NA,NA,"24","JOL","Rough","R11",3190,"",40
"5c3a5009fb7feb00014290f1",34,6,"Item","B","furry",NA,"R12",NA,NA,"25","JOL","Rough","R12",4435,"",80
"5c3a5009fb7feb00014290f1",39,6,"Item","B","",NA,"",NA,NA,"0","FreeRecall","","RECALL_Test",60004,"Pillow, Fur, Furry, Skin, Cotton, Fluffy, Hard, Loud, Tender, Downy",NA
"5c3a5009fb7feb00014290f1",41,6,"Item","B","honey",NA,"A1",NA,NA,"26","JOL","Anger","A1",3171,"",50
"5c3a5009fb7feb00014290f1",42,6,"Item","B","bitter",NA,"A2",NA,NA,"27","JOL","Anger","A2",3674,"",50
"5c3a5009fb7feb00014290f1",43,6,"Item","B","sugar",NA,"A3",NA,NA,"28","JOL","Anger","A3",2571,"",60
"5c3a5009fb7feb00014290f1",44,6,"Item","B","sour",NA,"A4",NA,NA,"29","JOL","Anger","A4",2741,"",50
"5c3a5009fb7feb00014290f1",45,6,"Item","B","candy",NA,"A5",NA,NA,"30","JOL","Anger","A5",2905,"",80
"5c3a5009fb7feb00014290f1",46,6,"Item","B","tart",NA,"A6",NA,NA,"31","JOL","Anger","A6",2972,"",50
"5c3a5009fb7feb00014290f1",47,6,"Item","B","chocolate",NA,"A7",NA,NA,"32","JOL","Anger","A7",2600,"",100
"5c3a5009fb7feb00014290f1",48,6,"Item","B","nice",NA,"A8",NA,NA,"33","JOL","Anger","A8",2273,"",50
"5c3a5009fb7feb00014290f1",49,6,"Item","B","taste",NA,"A9",NA,NA,"34","JOL","Anger","A9",3235,"",40
"5c3a5009fb7feb00014290f1",50,6,"Item","B","cake",NA,"A10",NA,NA,"35","JOL","Anger","A10",2254,"",20
"5c3a5009fb7feb00014290f1",51,6,"Item","B","good",NA,"A11",NA,NA,"36","JOL","Anger","A11",3324,"",20
"5c3a5009fb7feb00014290f1",52,6,"Item","B","tooth",NA,"A12",NA,NA,"37","JOL","Anger","A12",5034,"",100
"5c3a5009fb7feb00014290f1",57,6,"Item","B","",NA,"",NA,NA,"0","FreeRecall","","RECALL_Test",60005,"Chocolate, Candy, Bitter, Honey, Tart, Sour, Taste, Tooth, Sugar",NA
"5c3a5009fb7feb00014290f1",59,6,"Item","B","table",NA,"T1",NA,NA,"38","JOL","Trash","T1",3381,"",50
"5c3a5009fb7feb00014290f1",60,6,"Item","B","swivel",NA,"T2",NA,NA,"39","JOL","Trash","T2",3856,"",70
"5c3a5009fb7feb00014290f1",61,6,"Item","B","rocking",NA,"T3",NA,NA,"40","JOL","Trash","T3",3111,"",60
"5c3a5009fb7feb00014290f1",62,6,"Item","B","recliner",NA,"T4",NA,NA,"41","JOL","Trash","T4",3216,"",50
"5c3a5009fb7feb00014290f1",63,6,"Item","B","seat",NA,"T5",NA,NA,"42","JOL","Trash","T5",2760,"",40
"5c3a5009fb7feb00014290f1",64,6,"Item","B","stool",NA,"T6",NA,NA,"43","JOL","Trash","T6",1732,"",40
"5c3a5009fb7feb00014290f1",65,6,"Item","B","desk",NA,"T7",NA,NA,"44","JOL","Trash","T7",1694,"",40
"5c3a5009fb7feb00014290f1",66,6,"Item","B","couch",NA,"T8",NA,NA,"45","JOL","Trash","T8",2454,"",40
"5c3a5009fb7feb00014290f1",67,6,"Item","B","sit",NA,"T9",NA,NA,"46","JOL","Trash","T9",3774,"",60
"5c3a5009fb7feb00014290f1",68,6,"Item","B","sofa",NA,"T10",NA,NA,"47","JOL","Trash","T10",2390,"",60
"5c3a5009fb7feb00014290f1",69,6,"Item","B","bench",NA,"T11",NA,NA,"48","JOL","Trash","T11",2227,"",50
"5c3a5009fb7feb00014290f1",70,6,"Item","B","sitting",NA,"T12",NA,NA,"49","JOL","Trash","T12",3682,"",100
"5c3a5009fb7feb00014290f1",75,6,"Item","B","",NA,"",NA,NA,"0","FreeRecall","","RECALL_Test",60004,"Sit, Sitting, Couch, Sofa, Bench, Swivel, Recliner, Desk, Stool, Table",NA
"5c3a5009fb7feb00014290f1",77,6,"Item","B","climber",NA,"D1",NA,NA,"50","JOL","Doctor","D1",3563,"",100
"5c3a5009fb7feb00014290f1",78,6,"Item","B","hill",NA,"D2",NA,NA,"51","JOL","Doctor","D2",2212,"",50
"5c3a5009fb7feb00014290f1",79,6,"Item","B","climb",NA,"D3",NA,NA,"52","JOL","Doctor","D3",2168,"",100
"5c3a5009fb7feb00014290f1",80,6,"Item","B","molehill",NA,"D4",NA,NA,"53","JOL","Doctor","D4",2270,"",100
"5c3a5009fb7feb00014290f1",81,6,"Item","B","peak",NA,"D5",NA,NA,"54","JOL","Doctor","D5",2056,"",50
"5c3a5009fb7feb00014290f1",82,6,"Item","B","valley",NA,"D6",NA,NA,"55","JOL","Doctor","D6",2147,"",50
"5c3a5009fb7feb00014290f1",83,6,"Item","B","summit",NA,"D7",NA,NA,"56","JOL","Doctor","D7",3318,"",60
"5c3a5009fb7feb00014290f1",84,6,"Item","B","steep",NA,"D8",NA,NA,"57","JOL","Doctor","D8",2683,"",40
"5c3a5009fb7feb00014290f1",85,6,"Item","B","ski",NA,"D9",NA,NA,"58","JOL","Doctor","D9",2172,"",50
"5c3a5009fb7feb00014290f1",86,6,"Item","B","bike",NA,"D10",NA,NA,"59","JOL","Doctor","D10",2768,"",20
"5c3a5009fb7feb00014290f1",87,6,"Item","B","goat",NA,"D11",NA,NA,"60","JOL","Doctor","D11",2767,"",100
"5c3a5009fb7feb00014290f1",88,6,"Item","B","glacier",NA,"D12",NA,NA,"61","JOL","Doctor","D12",2811,"",20
"5c3a5009fb7feb00014290f1",93,6,"Item","B","",NA,"",NA,NA,"0","FreeRecall","","RECALL_Test",60011,"Peak, Valley, Summit, Glacier, Hill, Molehill, Climb, Climber, Steep",NA
"5c3a5009fb7feb00014290f1",95,6,"Item","B","band",NA,"S1",NA,NA,"62","JOL","Slow","S1",2428,"",50
"5c3a5009fb7feb00014290f1",96,6,"Item","B","concert",NA,"S2",NA,NA,"63","JOL","Slow","S2",2224,"",60
"5c3a5009fb7feb00014290f1",97,6,"Item","B","jazz",NA,"S3",NA,NA,"64","JOL","Slow","S3",1901,"",100
"5c3a5009fb7feb00014290f1",98,6,"Item","B","symphony",NA,"S4",NA,NA,"65","JOL","Slow","S4",1739,"",100
"5c3a5009fb7feb00014290f1",99,6,"Item","B","orchestra",NA,"S5",NA,NA,"66","JOL","Slow","S5",1734,"",100
"5c3a5009fb7feb00014290f1",100,6,"Item","B","rhythm",NA,"S6",NA,NA,"67","JOL","Slow","S6",2074,"",50
"5c3a5009fb7feb00014290f1",101,6,"Item","B","radio",NA,"S7",NA,NA,"68","JOL","Slow","S7",2031,"",30
"5c3a5009fb7feb00014290f1",102,6,"Item","B","melody",NA,"S8",NA,NA,"69","JOL","Slow","S8",1959,"",30
"5c3a5009fb7feb00014290f1",103,6,"Item","B","piano",NA,"S9",NA,NA,"70","JOL","Slow","S9",2630,"",100
"5c3a5009fb7feb00014290f1",104,6,"Item","B","sound",NA,"S10",NA,NA,"71","JOL","Slow","S10",2799,"",50
"5c3a5009fb7feb00014290f1",105,6,"Item","B","instrument",NA,"S11",NA,NA,"72","JOL","Slow","S11",2081,"",50
"5c3a5009fb7feb00014290f1",106,6,"Item","B","note",NA,"S12",NA,NA,"73","JOL","Slow","S12",1941,"",30
"5c3a5009fb7feb00014290f1",111,6,"Item","B","",NA,"",NA,NA,"0","FreeRecall","","RECALL_Test",60011,"Jazz, Note, Concert, Instrument, Symphony, Piano, Band, Sound, Orchestra",NA
"5c3a5009fb7feb00014290f1",113,6,"Item","B","foam",NA,"RR1",NA,NA,"74","JOL","River","RR1",2091,"",50
"5c3a5009fb7feb00014290f1",114,6,"Item","B","latex",NA,"RR2",NA,NA,"75","JOL","River","RR2",2280,"",100
"5c3a5009fb7feb00014290f1",115,6,"Item","B","galoshes",NA,"RR3",NA,NA,"76","JOL","River","RR3",2150,"",100
"5c3a5009fb7feb00014290f1",116,6,"Item","B","tire",NA,"RR4",NA,NA,"77","JOL","River","RR4",2256,"",10
"5c3a5009fb7feb00014290f1",117,6,"Item","B","flexible",NA,"RR5",NA,NA,"78","JOL","River","RR5",3234,"",50
"5c3a5009fb7feb00014290f1",118,6,"Item","B","elastic",NA,"RR6",NA,NA,"79","JOL","River","RR6",2823,"",40
"5c3a5009fb7feb00014290f1",119,6,"Item","B","gloves",NA,"RR7",NA,NA,"80","JOL","River","RR7",7960,"",100
"5c3a5009fb7feb00014290f1",120,6,"Item","B","eraser",NA,"RR8",NA,NA,"81","JOL","River","RR8",3562,"",40
"5c3a5009fb7feb00014290f1",121,6,"Item","B","bounce",NA,"RR9",NA,NA,"82","JOL","River","RR9",4372,"",60
"5c3a5009fb7feb00014290f1",122,6,"Item","B","ball",NA,"RR10",NA,NA,"83","JOL","River","RR10",2128,"",20
"5c3a5009fb7feb00014290f1",123,6,"Item","B","soles",NA,"RR11",NA,NA,"84","JOL","River","RR11",1734,"",20
"5c3a5009fb7feb00014290f1",124,6,"Item","B","springy",NA,"RR12",NA,NA,"85","JOL","River","RR12",1780,"",20
"5c3a5009fb7feb00014290f1",129,6,"Item","B","",NA,"",NA,NA,"0","FreeRecall","","RECALL_Test",60004,"Springy, Elastic, Latex, Gloves, Flexible, Galoshes, Soles, Foam, Bounce",NA
"5c3a5009fb7feb00014290f1",131,6,"Item","B","toe",NA,"B1",NA,NA,"86","JOL","Bread","B1",2946,"",100
"5c3a5009fb7feb00014290f1",132,6,"Item","B","inch",NA,"B2",NA,NA,"87","JOL","Bread","B2",1911,"",40
"5c3a5009fb7feb00014290f1",133,6,"Item","B","ankle",NA,"B3",NA,NA,"88","JOL","Bread","B3",1741,"",100
"5c3a5009fb7feb00014290f1",134,6,"Item","B","shoe",NA,"B4",NA,NA,"89","JOL","Bread","B4",2022,"",50
"5c3a5009fb7feb00014290f1",135,6,"Item","B","sandals",NA,"B5",NA,NA,"90","JOL","Bread","B5",2539,"",30
"5c3a5009fb7feb00014290f1",136,6,"Item","B","sock",NA,"B6",NA,NA,"91","JOL","Bread","B6",4027,"",30
"5c3a5009fb7feb00014290f1",137,6,"Item","B","hand",NA,"B7",NA,NA,"92","JOL","Bread","B7",3476,"",30
"5c3a5009fb7feb00014290f1",138,6,"Item","B","boot",NA,"B8",NA,NA,"93","JOL","Bread","B8",1838,"",20
"5c3a5009fb7feb00014290f1",139,6,"Item","B","yard",NA,"B9",NA,NA,"94","JOL","Bread","B9",2437,"",20
"5c3a5009fb7feb00014290f1",140,6,"Item","B","kick",NA,"B10",NA,NA,"95","JOL","Bread","B10",1848,"",20
"5c3a5009fb7feb00014290f1",141,6,"Item","B","knee",NA,"B11",NA,NA,"96","JOL","Bread","B11",1817,"",10
"5c3a5009fb7feb00014290f1",142,6,"Item","B","walk",NA,"B12",NA,NA,"97","JOL","Bread","B12",1756,"",20
"5c3a5009fb7feb00014290f1",147,6,"Item","B","",NA,"",NA,NA,"0","FreeRecall","","RECALL_Test",60012,"Toe, Ankle, Knee, Hand, Kick, Sock, Sandal, Walk",NA
"5c3a5009fb7feb00014290f1",149,6,"Item","B","boy",NA,"F1",NA,NA,"98","JOL","Flag","F1",2452,"",50
"5c3a5009fb7feb00014290f1",150,6,"Item","B","dolls",NA,"F2",NA,NA,"99","JOL","Flag","F2",2297,"",40
"5c3a5009fb7feb00014290f1",151,6,"Item","B","pretty",NA,"F3",NA,NA,"100","JOL","Flag","F3",1995,"",50
"5c3a5009fb7feb00014290f1",152,6,"Item","B","female",NA,"F4",NA,NA,"101","JOL","Flag","F4",3198,"",60
"5c3a5009fb7feb00014290f1",153,6,"Item","B","dress",NA,"F5",NA,NA,"102","JOL","Flag","F5",2048,"",50
"5c3a5009fb7feb00014290f1",154,6,"Item","B","date",NA,"F6",NA,NA,"103","JOL","Flag","F6",1957,"",40
"5c3a5009fb7feb00014290f1",155,6,"Item","B","beautiful",NA,"F7",NA,NA,"104","JOL","Flag","F7",2568,"",70
"5c3a5009fb7feb00014290f1",156,6,"Item","B","daughter",NA,"F8",NA,NA,"105","JOL","Flag","F8",2364,"",50
"5c3a5009fb7feb00014290f1",157,6,"Item","B","sister",NA,"F9",NA,NA,"106","JOL","Flag","F9",1742,"",50
"5c3a5009fb7feb00014290f1",158,6,"Item","B","cute",NA,"F10",NA,NA,"107","JOL","Flag","F10",2716,"",40
"5c3a5009fb7feb00014290f1",159,6,"Item","B","niece",NA,"F11",NA,NA,"108","JOL","Flag","F11",1781,"",40
"5c3a5009fb7feb00014290f1",160,6,"Item","B","young",NA,"F12",NA,NA,"109","JOL","Flag","F12",2013,"",40
"5c3a5009fb7feb00014290f1",165,6,"Item","B","",NA,"",NA,NA,"0","FreeRecall","","RECALL_Test",60002,"Young, Boy, Cute, Doll, Beautiful, Pretty, Dress, Date, Female, Daughter, Niece, Sister",NA
"5c3a5009fb7feb00014290f1",167,6,"Item","B","white",NA,"SS1",NA,NA,"110","JOL","Shirt","SS1",2116,"",50
"5c3a5009fb7feb00014290f1",168,6,"Item","B","gray",NA,"SS2",NA,NA,"111","JOL","Shirt","SS2",1899,"",50
"5c3a5009fb7feb00014290f1",169,6,"Item","B","brown",NA,"SS3",NA,NA,"112","JOL","Shirt","SS3",1789,"",50
"5c3a5009fb7feb00014290f1",170,6,"Item","B","coal",NA,"SS4",NA,NA,"113","JOL","Shirt","SS4",1932,"",40
"5c3a5009fb7feb00014290f1",171,6,"Item","B","dark",NA,"SS5",NA,NA,"114","JOL","Shirt","SS5",4717,"",30
"5c3a5009fb7feb00014290f1",172,6,"Item","B","color",NA,"SS6",NA,NA,"115","JOL","Shirt","SS6",3167,"",100
"5c3a5009fb7feb00014290f1",173,6,"Item","B","funeral",NA,"SS7",NA,NA,"116","JOL","Shirt","SS7",2149,"",100
"5c3a5009fb7feb00014290f1",174,6,"Item","B","blue",NA,"SS8",NA,NA,"117","JOL","Shirt","SS8",2016,"",40
"5c3a5009fb7feb00014290f1",175,6,"Item","B","charred",NA,"SS9",NA,NA,"118","JOL","Shirt","SS9",2605,"",40
"5c3a5009fb7feb00014290f1",176,6,"Item","B","ink",NA,"SS10",NA,NA,"119","JOL","Shirt","SS10",2317,"",40
"5c3a5009fb7feb00014290f1",177,6,"Item","B","death",NA,"SS11",NA,NA,"120","JOL","Shirt","SS11",2098,"",30
"5c3a5009fb7feb00014290f1",178,6,"Item","B","cat",NA,"SS12",NA,NA,"121","JOL","Shirt","SS12",2123,"",20
"5c3a5009fb7feb00014290f1",183,6,"Item","B","",NA,"",NA,NA,"0","FreeRecall","","RECALL_Test",60002,"Cat, Death, Funeral, Charred, Coal, Dark, Color, White, Gray, Blue, Brown",NA
"5ceebfea7a3448001a6dd6ee",5,5,"Item","A","pane",NA,"Win_1",NA,NA,"2","JOL","Window","Win_1",9216,"",100
"5ceebfea7a3448001a6dd6ee",6,5,"Item","A","sill",NA,"Win_2",NA,NA,"3","JOL","Window","Win_2",7418,"",98
"5ceebfea7a3448001a6dd6ee",7,5,"Item","A","shutter",NA,"Win_3",NA,NA,"4","JOL","Window","Win_3",8660,"",99
"5ceebfea7a3448001a6dd6ee",8,5,"Item","A","curtain",NA,"Win_4",NA,NA,"5","JOL","Window","Win_4",6634,"",89
"5ceebfea7a3448001a6dd6ee",9,5,"Item","A","door",NA,"Win_5",NA,NA,"6","JOL","Window","Win_5",8009,"",80
"5ceebfea7a3448001a6dd6ee",10,5,"Item","A","ledge",NA,"Win_6",NA,NA,"7","JOL","Window","Win_6",3361,"",78
"5ceebfea7a3448001a6dd6ee",11,5,"Item","A","glass",NA,"Win_7",NA,NA,"8","JOL","Window","Win_7",5777,"",67
"5ceebfea7a3448001a6dd6ee",12,5,"Item","A","view",NA,"Win_8",NA,NA,"9","JOL","Window","Win_8",15892,"",80
"5ceebfea7a3448001a6dd6ee",13,5,"Item","A","screen",NA,"Win_9",NA,NA,"10","JOL","Window","Win_9",6868,"",77
"5ceebfea7a3448001a6dd6ee",14,5,"Item","A","shade",NA,"Win_10",NA,NA,"11","JOL","Window","Win_10",7383,"",65
"5ceebfea7a3448001a6dd6ee",15,5,"Item","A","open",NA,"Win_11",NA,NA,"12","JOL","Window","Win_11",2955,"",98
"5ceebfea7a3448001a6dd6ee",16,5,"Item","A","frame",NA,"Win_12",NA,NA,"13","JOL","Window","Win_12",5852,"",40
"5ceebfea7a3448001a6dd6ee",21,5,"Item","A","",NA,"",NA,NA,"0","FreeRecall","","RECALL_Test",60003,"pane, frame, ledge, door, view, curtain, screen, window",NA
"5ceebfea7a3448001a6dd6ee",23,5,"Item","A","sandpaper",NA,"R1",NA,NA,"14","JOL","Rough","R1",6520,"",56
"5ceebfea7a3448001a6dd6ee",24,5,"Item","A","smooth",NA,"R2",NA,NA,"15","JOL","Rough","R2",9620,"",78
"5ceebfea7a3448001a6dd6ee",25,5,"Item","A","coarse",NA,"R3",NA,NA,"16","JOL","Rough","R3",6699,"",76
"5ceebfea7a3448001a6dd6ee",26,5,"Item","A","tough",NA,"R4",NA,NA,"17","JOL","Rough","R4",6339,"",65
"5ceebfea7a3448001a6dd6ee",27,5,"Item","A","rugged",NA,"R5",NA,NA,"18","JOL","Rough","R5",14539,"",43
"5ceebfea7a3448001a6dd6ee",28,5,"Item","A","bumpy",NA,"R6",NA,NA,"19","JOL","Rough","R6",6581,"",88
"5ceebfea7a3448001a6dd6ee",29,5,"Item","A","jagged",NA,"R7",NA,NA,"20","JOL","Rough","R7",3310,"",32
"5ceebfea7a3448001a6dd6ee",30,5,"Item","A","riders",NA,"R8",NA,NA,"21","JOL","Rough","R8",6569,"",46
"5ceebfea7a3448001a6dd6ee",31,5,"Item","A","uneven",NA,"R9",NA,NA,"22","JOL","Rough","R9",6342,"",56
"5ceebfea7a3448001a6dd6ee",32,5,"Item","A","road",NA,"R10",NA,NA,"23","JOL","Rough","R10",5619,"",78
"5ceebfea7a3448001a6dd6ee",33,5,"Item","A","ready",NA,"R11",NA,NA,"24","JOL","Rough","R11",4160,"",13
"5ceebfea7a3448001a6dd6ee",34,5,"Item","A","sand",NA,"R12",NA,NA,"25","JOL","Rough","R12",7785,"",23
"5ceebfea7a3448001a6dd6ee",39,5,"Item","A","",NA,"",NA,NA,"0","FreeRecall","","RECALL_Test",60001,"sand, sandpaper, smooth, rough, bumpy, uneven, road, ",NA
"5ceebfea7a3448001a6dd6ee",41,5,"Item","A","rage",NA,"A1",NA,NA,"26","JOL","Anger","A1",6628,"",88
"5ceebfea7a3448001a6dd6ee",42,5,"Item","A","mad",NA,"A2",NA,NA,"27","JOL","Anger","A2",5687,"",98
"5ceebfea7a3448001a6dd6ee",43,5,"Item","A","enrage",NA,"A3",NA,NA,"28","JOL","Anger","A3",2938,"",34
"5ceebfea7a3448001a6dd6ee",44,5,"Item","A","fury",NA,"A4",NA,NA,"29","JOL","Anger","A4",7437,"",45
"5ceebfea7a3448001a6dd6ee",45,5,"Item","A","temper",NA,"A5",NA,NA,"30","JOL","Anger","A5",3554,"",76
"5ceebfea7a3448001a6dd6ee",46,5,"Item","A","ire",NA,"A6",NA,NA,"31","JOL","Anger","A6",7598,"",22
"5ceebfea7a3448001a6dd6ee",47,5,"Item","A","wrath",NA,"A7",NA,NA,"32","JOL","Anger","A7",2472,"",12
"5ceebfea7a3448001a6dd6ee",48,5,"Item","A","mean",NA,"A8",NA,NA,"33","JOL","Anger","A8",6204,"",43
"5ceebfea7a3448001a6dd6ee",49,5,"Item","A","hatred",NA,"A9",NA,NA,"34","JOL","Anger","A9",7568,"",55
"5ceebfea7a3448001a6dd6ee",50,5,"Item","A","fight",NA,"A10",NA,NA,"35","JOL","Anger","A10",7417,"",74
"5ceebfea7a3448001a6dd6ee",51,5,"Item","A","hate",NA,"A11",NA,NA,"36","JOL","Anger","A11",3295,"",88
"5ceebfea7a3448001a6dd6ee",52,5,"Item","A","fear",NA,"A12",NA,NA,"37","JOL","Anger","A12",5907,"",87
"5ceebfea7a3448001a6dd6ee",57,5,"Item","A","",NA,"",NA,NA,"0","FreeRecall","","RECALL_Test",60002,"hate, fear, hatred, mad, rage, fury, ire, wrath, ",NA
"5ceebfea7a3448001a6dd6ee",59,5,"Item","A","garbage",NA,"T1",NA,NA,"38","JOL","Trash","T1",11562,"",99
"5ceebfea7a3448001a6dd6ee",60,5,"Item","A","rubbish",NA,"T2",NA,NA,"39","JOL","Trash","T2",7071,"",89
"5ceebfea7a3448001a6dd6ee",61,5,"Item","A","debris",NA,"T3",NA,NA,"40","JOL","Trash","T3",7592,"",78
"5ceebfea7a3448001a6dd6ee",62,5,"Item","A","dump",NA,"T4",NA,NA,"41","JOL","Trash","T4",7209,"",65
"5ceebfea7a3448001a6dd6ee",63,5,"Item","A","litter",NA,"T5",NA,NA,"42","JOL","Trash","T5",2971,"",78
"5ceebfea7a3448001a6dd6ee",64,5,"Item","A","landfill",NA,"T6",NA,NA,"43","JOL","Trash","T6",11129,"",75
"5ceebfea7a3448001a6dd6ee",65,5,"Item","A","junk",NA,"T7",NA,NA,"44","JOL","Trash","T7",5911,"",99
"5ceebfea7a3448001a6dd6ee",66,5,"Item","A","waste",NA,"T8",NA,NA,"45","JOL","Trash","T8",7946,"",34
"5ceebfea7a3448001a6dd6ee",67,5,"Item","A","sewage",NA,"T9",NA,NA,"46","JOL","Trash","T9",4938,"",12
"5ceebfea7a3448001a6dd6ee",68,5,"Item","A","pile",NA,"T10",NA,NA,"47","JOL","Trash","T10",5605,"",89
"5ceebfea7a3448001a6dd6ee",69,5,"Item","A","scraps",NA,"T11",NA,NA,"48","JOL","Trash","T11",8534,"",98
"5ceebfea7a3448001a6dd6ee",70,5,"Item","A","refuse",NA,"T12",NA,NA,"49","JOL","Trash","T12",6348,"",34
"5ceebfea7a3448001a6dd6ee",75,5,"Item","A","",NA,"",NA,NA,"0","FreeRecall","","RECALL_Test",60002,"garbage, rubbish, scraps, dump, junk, ",NA
"5ceebfea7a3448001a6dd6ee",77,5,"Item","A","physician",NA,"D1",NA,NA,"50","JOL","Doctor","D1",14665,"",12
"5ceebfea7a3448001a6dd6ee",78,5,"Item","A","nurse",NA,"D2",NA,NA,"51","JOL","Doctor","D2",5489,"",67
"5ceebfea7a3448001a6dd6ee",79,5,"Item","A","stethoscope",NA,"D3",NA,NA,"52","JOL","Doctor","D3",9221,"",43
"5ceebfea7a3448001a6dd6ee",80,5,"Item","A","surgeon",NA,"D4",NA,NA,"53","JOL","Doctor","D4",7751,"",65
"5ceebfea7a3448001a6dd6ee",81,5,"Item","A","patient",NA,"D5",NA,NA,"54","JOL","Doctor","D5",8052,"",43
"5ceebfea7a3448001a6dd6ee",82,5,"Item","A","clinic",NA,"D6",NA,NA,"55","JOL","Doctor","D6",7427,"",76
"5ceebfea7a3448001a6dd6ee",83,5,"Item","A","dentist",NA,"D7",NA,NA,"56","JOL","Doctor","D7",6861,"",54
"5ceebfea7a3448001a6dd6ee",84,5,"Item","A","medicine",NA,"D8",NA,NA,"57","JOL","Doctor","D8",7227,"",54
"5ceebfea7a3448001a6dd6ee",85,5,"Item","A","lawyer",NA,"D9",NA,NA,"58","JOL","Doctor","D9",5930,"",34
"5ceebfea7a3448001a6dd6ee",86,5,"Item","A","health",NA,"D10",NA,NA,"59","JOL","Doctor","D10",4834,"",66
"5ceebfea7a3448001a6dd6ee",87,5,"Item","A","sick",NA,"D11",NA,NA,"60","JOL","Doctor","D11",3408,"",98
"5ceebfea7a3448001a6dd6ee",88,5,"Item","A","cure",NA,"D12",NA,NA,"61","JOL","Doctor","D12",35259,"",88
"5ceebfea7a3448001a6dd6ee",93,5,"Item","A","",NA,"",NA,NA,"0","FreeRecall","","RECALL_Test",60001,"cure, sick, nurse, clinic, dentist, doctor, surgeon, ",NA
"5ceebfea7a3448001a6dd6ee",95,5,"Item","A","fast",NA,"S1",NA,NA,"62","JOL","Slow","S1",8184,"",99
"5ceebfea7a3448001a6dd6ee",96,5,"Item","A","snail",NA,"S2",NA,NA,"63","JOL","Slow","S2",5589,"",87
"5ceebfea7a3448001a6dd6ee",97,5,"Item","A","turtle",NA,"S3",NA,NA,"64","JOL","Slow","S3",5699,"",88
"5ceebfea7a3448001a6dd6ee",98,5,"Item","A","sluggish",NA,"S4",NA,NA,"65","JOL","Slow","S4",2944,"",33
"5ceebfea7a3448001a6dd6ee",99,5,"Item","A","quick",NA,"S5",NA,NA,"66","JOL","Slow","S5",8623,"",78
"5ceebfea7a3448001a6dd6ee",100,5,"Item","A","molasses",NA,"S6",NA,NA,"67","JOL","Slow","S6",10712,"",44
"5ceebfea7a3448001a6dd6ee",101,5,"Item","A","lethargic",NA,"S7",NA,NA,"68","JOL","Slow","S7",5044,"",33
"5ceebfea7a3448001a6dd6ee",102,5,"Item","A","speed",NA,"S8",NA,NA,"69","JOL","Slow","S8",8001,"",56
"5ceebfea7a3448001a6dd6ee",103,5,"Item","A","delay",NA,"S9",NA,NA,"70","JOL","Slow","S9",7035,"",77
"5ceebfea7a3448001a6dd6ee",104,5,"Item","A","hesitant",NA,"S10",NA,NA,"71","JOL","Slow","S10",2408,"",44
"5ceebfea7a3448001a6dd6ee",105,5,"Item","A","cautious",NA,"S11",NA,NA,"72","JOL","Slow","S11",3355,"",66
"5ceebfea7a3448001a6dd6ee",106,5,"Item","A","traffic",NA,"S12",NA,NA,"73","JOL","Slow","S12",10292,"",86
"5ceebfea7a3448001a6dd6ee",111,5,"Item","A","",NA,"",NA,NA,"0","FreeRecall","","RECALL_Test",60002,"fast, snail, speed, delay, traffic, ",NA
"5ceebfea7a3448001a6dd6ee",113,5,"Item","A","mississippi",NA,"RR1",NA,NA,"74","JOL","River","RR1",4493,"",99
"5ceebfea7a3448001a6dd6ee",114,5,"Item","A","creek",NA,"RR2",NA,NA,"75","JOL","River","RR2",12910,"",76
"5ceebfea7a3448001a6dd6ee",115,5,"Item","A","stream",NA,"RR3",NA,NA,"76","JOL","River","RR3",5778,"",54
"5ceebfea7a3448001a6dd6ee",116,5,"Item","A","flow",NA,"RR4",NA,NA,"77","JOL","River","RR4",6556,"",76
"5ceebfea7a3448001a6dd6ee",117,5,"Item","A","bridge",NA,"RR5",NA,NA,"78","JOL","River","RR5",2285,"",45
"5ceebfea7a3448001a6dd6ee",118,5,"Item","A","brook",NA,"RR6",NA,NA,"79","JOL","River","RR6",8768,"",65
"5ceebfea7a3448001a6dd6ee",119,5,"Item","A","lake",NA,"RR7",NA,NA,"80","JOL","River","RR7",5424,"",89
"5ceebfea7a3448001a6dd6ee",120,5,"Item","A","barge",NA,"RR8",NA,NA,"81","JOL","River","RR8",2404,"",45
"5ceebfea7a3448001a6dd6ee",121,5,"Item","A","water",NA,"RR9",NA,NA,"82","JOL","River","RR9",10174,"",88
"5ceebfea7a3448001a6dd6ee",122,5,"Item","A","boat",NA,"RR10",NA,NA,"83","JOL","River","RR10",6842,"",65
"5ceebfea7a3448001a6dd6ee",123,5,"Item","A","tide",NA,"RR11",NA,NA,"84","JOL","River","RR11",2700,"",44
"5ceebfea7a3448001a6dd6ee",124,5,"Item","A","swim",NA,"RR12",NA,NA,"85","JOL","River","RR12",6000,"",66
"5ceebfea7a3448001a6dd6ee",129,5,"Item","A","",NA,"",NA,NA,"0","FreeRecall","","RECALL_Test",60002,"lake, water, swim, bridge, mississippi, creek, flow, boat, ",NA
"5ceebfea7a3448001a6dd6ee",131,5,"Item","A","rye",NA,"B1",NA,NA,"86","JOL","Bread","B1",6710,"",88
"5ceebfea7a3448001a6dd6ee",132,5,"Item","A","loaf",NA,"B2",NA,NA,"87","JOL","Bread","B2",4896,"",67
"5ceebfea7a3448001a6dd6ee",133,5,"Item","A","butter",NA,"B3",NA,NA,"88","JOL","Bread","B3",5123,"",88
"5ceebfea7a3448001a6dd6ee",134,5,"Item","A","toast",NA,"B4",NA,NA,"89","JOL","Bread","B4",4603,"",99
"5ceebfea7a3448001a6dd6ee",135,5,"Item","A","dough",NA,"B5",NA,NA,"90","JOL","Bread","B5",5666,"",44
"5ceebfea7a3448001a6dd6ee",136,5,"Item","A","crust",NA,"B6",NA,NA,"91","JOL","Bread","B6",4940,"",65
"5ceebfea7a3448001a6dd6ee",137,5,"Item","A","flour",NA,"B7",NA,NA,"92","JOL","Bread","B7",5144,"",55
"5ceebfea7a3448001a6dd6ee",138,5,"Item","A","sandwich",NA,"B8",NA,NA,"93","JOL","Bread","B8",5457,"",77
"5ceebfea7a3448001a6dd6ee",139,5,"Item","A","jam",NA,"B9",NA,NA,"94","JOL","Bread","B9",4319,"",77
"5ceebfea7a3448001a6dd6ee",140,5,"Item","A","jelly",NA,"B10",NA,NA,"95","JOL","Bread","B10",5017,"",88
"5ceebfea7a3448001a6dd6ee",141,5,"Item","A","slice",NA,"B11",NA,NA,"96","JOL","Bread","B11",5403,"",66
"5ceebfea7a3448001a6dd6ee",142,5,"Item","A","milk",NA,"B12",NA,NA,"97","JOL","Bread","B12",4758,"",77
"5ceebfea7a3448001a6dd6ee",147,5,"Item","A","",NA,"",NA,NA,"0","FreeRecall","","RECALL_Test",60001,"rye, loaf, toast, butter, flour, sandwich, crust, milk, jam, dough",NA
"5ceebfea7a3448001a6dd6ee",149,5,"Item","A","banner",NA,"F1",NA,NA,"98","JOL","Flag","F1",11498,"",88
"5ceebfea7a3448001a6dd6ee",150,5,"Item","A","checkered",NA,"F2",NA,NA,"99","JOL","Flag","F2",2530,"",34
"5ceebfea7a3448001a6dd6ee",151,5,"Item","A","american",NA,"F3",NA,NA,"100","JOL","Flag","F3",11822,"",77
"5ceebfea7a3448001a6dd6ee",152,5,"Item","A","stripes",NA,"F4",NA,NA,"101","JOL","Flag","F4",11558,"",44
"5ceebfea7a3448001a6dd6ee",153,5,"Item","A","pole",NA,"F5",NA,NA,"102","JOL","Flag","F5",2338,"",87
"5ceebfea7a3448001a6dd6ee",154,5,"Item","A","anthem",NA,"F6",NA,NA,"103","JOL","Flag","F6",6821,"",32
"5ceebfea7a3448001a6dd6ee",155,5,"Item","A","emblem",NA,"F7",NA,NA,"104","JOL","Flag","F7",3024,"",33
"5ceebfea7a3448001a6dd6ee",156,5,"Item","A","national",NA,"F8",NA,NA,"105","JOL","Flag","F8",6009,"",44
"5ceebfea7a3448001a6dd6ee",157,5,"Item","A","freedom",NA,"F9",NA,NA,"106","JOL","Flag","F9",8983,"",12
"5ceebfea7a3448001a6dd6ee",158,5,"Item","A","symbol",NA,"F10",NA,NA,"107","JOL","Flag","F10",8233,"",33
"5ceebfea7a3448001a6dd6ee",159,5,"Item","A","wave",NA,"F11",NA,NA,"108","JOL","Flag","F11",2227,"",88
"5ceebfea7a3448001a6dd6ee",160,5,"Item","A","stars",NA,"F12",NA,NA,"109","JOL","Flag","F12",6092,"",77
"5ceebfea7a3448001a6dd6ee",165,5,"Item","A","",NA,"",NA,NA,"0","FreeRecall","","RECALL_Test",60002,"stars, wave, freedom, banner, pole, anthem, american, ",NA
"5ceebfea7a3448001a6dd6ee",167,5,"Item","A","blouse",NA,"SS1",NA,NA,"110","JOL","Shirt","SS1",7688,"",88
"5ceebfea7a3448001a6dd6ee",168,5,"Item","A","sleeves",NA,"SS2",NA,NA,"111","JOL","Shirt","SS2",2608,"",66
"5ceebfea7a3448001a6dd6ee",169,5,"Item","A","collar",NA,"SS3",NA,NA,"112","JOL","Shirt","SS3",6096,"",67
"5ceebfea7a3448001a6dd6ee",170,5,"Item","A","shorts",NA,"SS4",NA,NA,"113","JOL","Shirt","SS4",2013,"",88
"5ceebfea7a3448001a6dd6ee",171,5,"Item","A","button",NA,"SS5",NA,NA,"114","JOL","Shirt","SS5",6589,"",88
"5ceebfea7a3448001a6dd6ee",172,5,"Item","A","pants",NA,"SS6",NA,NA,"115","JOL","Shirt","SS6",2255,"",99
"5ceebfea7a3448001a6dd6ee",173,5,"Item","A","polo",NA,"SS7",NA,NA,"116","JOL","Shirt","SS7",5977,"",77
"5ceebfea7a3448001a6dd6ee",174,5,"Item","A","jersey",NA,"SS8",NA,NA,"117","JOL","Shirt","SS8",1993,"",66
"5ceebfea7a3448001a6dd6ee",175,5,"Item","A","vest",NA,"SS9",NA,NA,"118","JOL","Shirt","SS9",5802,"",88
"5ceebfea7a3448001a6dd6ee",176,5,"Item","A","cuffs",NA,"SS10",NA,NA,"119","JOL","Shirt","SS10",6080,"",99
"5ceebfea7a3448001a6dd6ee",177,5,"Item","A","tie",NA,"SS11",NA,NA,"120","JOL","Shirt","SS11",3975,"",99
"5ceebfea7a3448001a6dd6ee",178,5,"Item","A","pocket",NA,"SS12",NA,NA,"121","JOL","Shirt","SS12",2324,"",56
"5ceebfea7a3448001a6dd6ee",183,5,"Item","A","",NA,"",NA,NA,"0","FreeRecall","","RECALL_Test",60002,"pants, polo, vest, tie, button, pocket, ",NA
"5dd1173e19eecb1b17f7e2e0",5,5,"Item","A","pane",NA,"Win_1",NA,NA,"2","JOL","Window","Win_1",11340,"",44
"5dd1173e19eecb1b17f7e2e0",6,5,"Item","A","sill",NA,"Win_2",NA,NA,"3","JOL","Window","Win_2",6725,"",34
"5dd1173e19eecb1b17f7e2e0",7,5,"Item","A","shutter",NA,"Win_3",NA,NA,"4","JOL","Window","Win_3",11142,"",50
"5dd1173e19eecb1b17f7e2e0",8,5,"Item","A","curtain",NA,"Win_4",NA,NA,"5","JOL","Window","Win_4",2013,"",60
"5dd1173e19eecb1b17f7e2e0",9,5,"Item","A","door",NA,"Win_5",NA,NA,"6","JOL","Window","Win_5",1764,"",60
"5dd1173e19eecb1b17f7e2e0",10,5,"Item","A","ledge",NA,"Win_6",NA,NA,"7","JOL","Window","Win_6",5022,"",54
"5dd1173e19eecb1b17f7e2e0",11,5,"Item","A","glass",NA,"Win_7",NA,NA,"8","JOL","Window","Win_7",2510,"",60
"5dd1173e19eecb1b17f7e2e0",12,5,"Item","A","view",NA,"Win_8",NA,NA,"9","JOL","Window","Win_8",1562,"",40
"5dd1173e19eecb1b17f7e2e0",13,5,"Item","A","screen",NA,"Win_9",NA,NA,"10","JOL","Window","Win_9",2071,"",30
"5dd1173e19eecb1b17f7e2e0",14,5,"Item","A","shade",NA,"Win_10",NA,NA,"11","JOL","Window","Win_10",2407,"",80
"5dd1173e19eecb1b17f7e2e0",15,5,"Item","A","open",NA,"Win_11",NA,NA,"12","JOL","Window","Win_11",1616,"",90
"5dd1173e19eecb1b17f7e2e0",16,5,"Item","A","frame",NA,"Win_12",NA,NA,"13","JOL","Window","Win_12",2031,"",87
"5dd1173e19eecb1b17f7e2e0",21,5,"Item","A","",NA,"",NA,NA,"0","FreeRecall","","RECALL_Test",60001,"ledge, glass, door, still, pane, window, curtain, ceiling, ",NA
"5dd1173e19eecb1b17f7e2e0",23,5,"Item","A","sandpaper",NA,"R1",NA,NA,"14","JOL","Rough","R1",5219,"",30
"5dd1173e19eecb1b17f7e2e0",24,5,"Item","A","smooth",NA,"R2",NA,NA,"15","JOL","Rough","R2",2277,"",20
"5dd1173e19eecb1b17f7e2e0",25,5,"Item","A","coarse",NA,"R3",NA,NA,"16","JOL","Rough","R3",2018,"",30
"5dd1173e19eecb1b17f7e2e0",26,5,"Item","A","tough",NA,"R4",NA,NA,"17","JOL","Rough","R4",1673,"",40
"5dd1173e19eecb1b17f7e2e0",27,5,"Item","A","rugged",NA,"R5",NA,NA,"18","JOL","Rough","R5",1894,"",50
"5dd1173e19eecb1b17f7e2e0",28,5,"Item","A","bumpy",NA,"R6",NA,NA,"19","JOL","Rough","R6",1822,"",60
"5dd1173e19eecb1b17f7e2e0",29,5,"Item","A","jagged",NA,"R7",NA,NA,"20","JOL","Rough","R7",2748,"",10
"5dd1173e19eecb1b17f7e2e0",30,5,"Item","A","riders",NA,"R8",NA,NA,"21","JOL","Rough","R8",1819,"",40
