"Username","Trial","Condition.Number","Condition.Description","Condition.Notes","Stimuli.Cue","Stimuli.Answer","Stimuli.Shuffle","Stimuli.Stimuli.Notes","Stimuli.Value","Procedure.Item","Procedure.Trial.Type","Procedure.Procedure.Notes","Procedure.Shuffle","Response.RT","Response.Response"
"56a930c711926500056e6eed",3,1,"Read","A","pane",NA,"Win_1",NA,NA,2,"Study","Window","Win_1",3792,""
"56a930c711926500056e6eed",4,1,"Read","A","sill",NA,"Win_2",NA,NA,3,"Study","Window","Win_2",2488,""
"56a930c711926500056e6eed",5,1,"Read","A","shutter",NA,"Win_3",NA,NA,4,"Study","Window","Win_3",2914,""
"56a930c711926500056e6eed",6,1,"Read","A","curtain",NA,"Win_4",NA,NA,5,"Study","Window","Win_4",2419,""
"56a930c711926500056e6eed",7,1,"Read","A","door",NA,"Win_5",NA,NA,6,"Study","Window","Win_5",2897,""
"56a930c711926500056e6eed",8,1,"Read","A","ledge",NA,"Win_6",NA,NA,7,"Study","Window","Win_6",1977,""
"56a930c711926500056e6eed",9,1,"Read","A","glass",NA,"Win_7",NA,NA,8,"Study","Window","Win_7",2488,""
"56a930c711926500056e6eed",10,1,"Read","A","view",NA,"Win_8",NA,NA,9,"Study","Window","Win_8",2372,""
"56a930c711926500056e6eed",11,1,"Read","A","screen",NA,"Win_9",NA,NA,10,"Study","Window","Win_9",2105,""
"56a930c711926500056e6eed",12,1,"Read","A","shade",NA,"Win_10",NA,NA,11,"Study","Window","Win_10",2461,""
"56a930c711926500056e6eed",13,1,"Read","A","open",NA,"Win_11",NA,NA,12,"Study","Window","Win_11",2550,""
"56a930c711926500056e6eed",14,1,"Read","A","frame",NA,"Win_12",NA,NA,13,"Study","Window","Win_12",2017,""
"56a930c711926500056e6eed",19,1,"Read","A","",NA,"",NA,NA,0,"FreeRecall","","RECALL_Test",60003,"ledge, window, door, sill, roof"
"56a930c711926500056e6eed",21,1,"Read","A","sandpaper",NA,"R1",NA,NA,14,"Study","Rough","R1",6593,""
"56a930c711926500056e6eed",22,1,"Read","A","smooth",NA,"R2",NA,NA,15,"Study","Rough","R2",3105,""
"56a930c711926500056e6eed",23,1,"Read","A","coarse",NA,"R3",NA,NA,16,"Study","Rough","R3",3079,""
"56a930c711926500056e6eed",24,1,"Read","A","tough",NA,"R4",NA,NA,17,"Study","Rough","R4",2861,""
"56a930c711926500056e6eed",25,1,"Read","A","rugged",NA,"R5",NA,NA,18,"Study","Rough","R5",5887,""
"56a930c711926500056e6eed",26,1,"Read","A","bumpy",NA,"R6",NA,NA,19,"Study","Rough","R6",4504,""
"56a930c711926500056e6eed",27,1,"Read","A","jagged",NA,"R7",NA,NA,20,"Study","Rough","R7",3835,""
"56a930c711926500056e6eed",28,1,"Read","A","riders",NA,"R8",NA,NA,21,"Study","Rough","R8",3650,""
"56a930c711926500056e6eed",29,1,"Read","A","uneven",NA,"R9",NA,NA,22,"Study","Rough","R9",4405,""
"56a930c711926500056e6eed",30,1,"Read","A","road",NA,"R10",NA,NA,23,"Study","Rough","R10",2333,""
"56a930c711926500056e6eed",31,1,"Read","A","ready",NA,"R11",NA,NA,24,"Study","Rough","R11",2460,""
"56a930c711926500056e6eed",32,1,"Read","A","sand",NA,"R12",NA,NA,25,"Study","Rough","R12",2119,""
"56a930c711926500056e6eed",37,1,"Read","A","",NA,"",NA,NA,0,"FreeRecall","","RECALL_Test",60003,"sandpaper, sand, rough, smooth, bumpy, rugged, jagged, "
"56a930c711926500056e6eed",39,1,"Read","A","rage",NA,"A1",NA,NA,26,"Study","Anger","A1",7800,""
"56a930c711926500056e6eed",40,1,"Read","A","mad",NA,"A2",NA,NA,27,"Study","Anger","A2",2578,""
"56a930c711926500056e6eed",41,1,"Read","A","enrage",NA,"A3",NA,NA,28,"Study","Anger","A3",1944,""
"56a930c711926500056e6eed",42,1,"Read","A","fury",NA,"A4",NA,NA,29,"Study","Anger","A4",2062,""
"56a930c711926500056e6eed",43,1,"Read","A","temper",NA,"A5",NA,NA,30,"Study","Anger","A5",3203,""
"56a930c711926500056e6eed",44,1,"Read","A","ire",NA,"A6",NA,NA,31,"Study","Anger","A6",3800,""
"56a930c711926500056e6eed",45,1,"Read","A","wrath",NA,"A7",NA,NA,32,"Study","Anger","A7",1761,""
"56a930c711926500056e6eed",46,1,"Read","A","mean",NA,"A8",NA,NA,33,"Study","Anger","A8",2328,""
"56a930c711926500056e6eed",47,1,"Read","A","hatred",NA,"A9",NA,NA,34,"Study","Anger","A9",2486,""
"56a930c711926500056e6eed",48,1,"Read","A","fight",NA,"A10",NA,NA,35,"Study","Anger","A10",2127,""
"56a930c711926500056e6eed",49,1,"Read","A","hate",NA,"A11",NA,NA,36,"Study","Anger","A11",1740,""
"56a930c711926500056e6eed",50,1,"Read","A","fear",NA,"A12",NA,NA,37,"Study","Anger","A12",2186,""
"56a930c711926500056e6eed",55,1,"Read","A","",NA,"",NA,NA,0,"FreeRecall","","RECALL_Test",60002,"rage, enrage, mad, anger, temper"
"56a930c711926500056e6eed",57,1,"Read","A","garbage",NA,"T1",NA,NA,38,"Study","Trash","T1",3085,""
"56a930c711926500056e6eed",58,1,"Read","A","rubbish",NA,"T2",NA,NA,39,"Study","Trash","T2",2898,""
"56a930c711926500056e6eed",59,1,"Read","A","debris",NA,"T3",NA,NA,40,"Study","Trash","T3",3697,""
"56a930c711926500056e6eed",60,1,"Read","A","dump",NA,"T4",NA,NA,41,"Study","Trash","T4",2576,""
"56a930c711926500056e6eed",61,1,"Read","A","litter",NA,"T5",NA,NA,42,"Study","Trash","T5",2531,""
"56a930c711926500056e6eed",62,1,"Read","A","landfill",NA,"T6",NA,NA,43,"Study","Trash","T6",2515,""
"56a930c711926500056e6eed",63,1,"Read","A","junk",NA,"T7",NA,NA,44,"Study","Trash","T7",5735,""
"56a930c711926500056e6eed",64,1,"Read","A","waste",NA,"T8",NA,NA,45,"Study","Trash","T8",3933,""
"56a930c711926500056e6eed",65,1,"Read","A","sewage",NA,"T9",NA,NA,46,"Study","Trash","T9",5497,""
"56a930c711926500056e6eed",66,1,"Read","A","pile",NA,"T10",NA,NA,47,"Study","Trash","T10",1720,""
"56a930c711926500056e6eed",67,1,"Read","A","scraps",NA,"T11",NA,NA,48,"Study","Trash","T11",2265,""
"56a930c711926500056e6eed",68,1,"Read","A","refuse",NA,"T12",NA,NA,49,"Study","Trash","T12",2159,""
"56a930c711926500056e6eed",73,1,"Read","A","",NA,"",NA,NA,0,"FreeRecall","","RECALL_Test",60005,"landfill, refuse, rubbish, waste, garbage"
"56a930c711926500056e6eed",75,1,"Read","A","physician",NA,"D1",NA,NA,50,"Study","Doctor","D1",29297,""
"56a930c711926500056e6eed",76,1,"Read","A","nurse",NA,"D2",NA,NA,51,"Study","Doctor","D2",2530,""
"56a930c711926500056e6eed",77,1,"Read","A","stethoscope",NA,"D3",NA,NA,52,"Study","Doctor","D3",2776,""
"56a930c711926500056e6eed",78,1,"Read","A","surgeon",NA,"D4",NA,NA,53,"Study","Doctor","D4",3663,""
"56a930c711926500056e6eed",79,1,"Read","A","patient",NA,"D5",NA,NA,54,"Study","Doctor","D5",5563,""
"56a930c711926500056e6eed",80,1,"Read","A","clinic",NA,"D6",NA,NA,55,"Study","Doctor","D6",3481,""
"56a930c711926500056e6eed",81,1,"Read","A","dentist",NA,"D7",NA,NA,56,"Study","Doctor","D7",3206,""
"56a930c711926500056e6eed",82,1,"Read","A","medicine",NA,"D8",NA,NA,57,"Study","Doctor","D8",2633,""
"56a930c711926500056e6eed",83,1,"Read","A","lawyer",NA,"D9",NA,NA,58,"Study","Doctor","D9",4680,""
"56a930c711926500056e6eed",84,1,"Read","A","health",NA,"D10",NA,NA,59,"Study","Doctor","D10",2736,""
"56a930c711926500056e6eed",85,1,"Read","A","sick",NA,"D11",NA,NA,60,"Study","Doctor","D11",1840,""
"56a930c711926500056e6eed",86,1,"Read","A","cure",NA,"D12",NA,NA,61,"Study","Doctor","D12",2354,""
"56a930c711926500056e6eed",91,1,"Read","A","",NA,"",NA,NA,0,"FreeRecall","","RECALL_Test",60005,"surgeon, nurse, doctor, dentist, medicine, heal, "
"56a930c711926500056e6eed",93,1,"Read","A","fast",NA,"S1",NA,NA,62,"Study","Slow","S1",8127,""
"56a930c711926500056e6eed",94,1,"Read","A","snail",NA,"S2",NA,NA,63,"Study","Slow","S2",14895,""
"56a930c711926500056e6eed",95,1,"Read","A","turtle",NA,"S3",NA,NA,64,"Study","Slow","S3",27910,""
"56a930c711926500056e6eed",96,1,"Read","A","sluggish",NA,"S4",NA,NA,65,"Study","Slow","S4",2065,""
"56a930c711926500056e6eed",97,1,"Read","A","quick",NA,"S5",NA,NA,66,"Study","Slow","S5",9653,""
"56a930c711926500056e6eed",98,1,"Read","A","molasses",NA,"S6",NA,NA,67,"Study","Slow","S6",1926,""
"56a930c711926500056e6eed",99,1,"Read","A","lethargic",NA,"S7",NA,NA,68,"Study","Slow","S7",13994,""
"56a930c711926500056e6eed",100,1,"Read","A","speed",NA,"S8",NA,NA,69,"Study","Slow","S8",3356,""
"56a930c711926500056e6eed",101,1,"Read","A","delay",NA,"S9",NA,NA,70,"Study","Slow","S9",1284,""
"56a930c711926500056e6eed",102,1,"Read","A","hesitant",NA,"S10",NA,NA,71,"Study","Slow","S10",1855,""
"56a930c711926500056e6eed",103,1,"Read","A","cautious",NA,"S11",NA,NA,72,"Study","Slow","S11",2096,""
"56a930c711926500056e6eed",104,1,"Read","A","traffic",NA,"S12",NA,NA,73,"Study","Slow","S12",2363,""
"56a930c711926500056e6eed",109,1,"Read","A","",NA,"",NA,NA,0,"FreeRecall","","RECALL_Test",60004,"slow, turtle, speed, fast, molasses"
"56a930c711926500056e6eed",111,1,"Read","A","mississippi",NA,"RR1",NA,NA,74,"Study","River","RR1",3453,""
"56a930c711926500056e6eed",112,1,"Read","A","creek",NA,"RR2",NA,NA,75,"Study","River","RR2",3882,""
"56a930c711926500056e6eed",113,1,"Read","A","stream",NA,"RR3",NA,NA,76,"Study","River","RR3",4371,""
"56a930c711926500056e6eed",114,1,"Read","A","flow",NA,"RR4",NA,NA,77,"Study","River","RR4",6387,""
"56a930c711926500056e6eed",115,1,"Read","A","bridge",NA,"RR5",NA,NA,78,"Study","River","RR5",4848,""
"56a930c711926500056e6eed",116,1,"Read","A","brook",NA,"RR6",NA,NA,79,"Study","River","RR6",7825,""
"56a930c711926500056e6eed",117,1,"Read","A","lake",NA,"RR7",NA,NA,80,"Study","River","RR7",3912,""
"56a930c711926500056e6eed",118,1,"Read","A","barge",NA,"RR8",NA,NA,81,"Study","River","RR8",2294,""
"56a930c711926500056e6eed",119,1,"Read","A","water",NA,"RR9",NA,NA,82,"Study","River","RR9",6857,""
"56a930c711926500056e6eed",120,1,"Read","A","boat",NA,"RR10",NA,NA,83,"Study","River","RR10",2366,""
"56a930c711926500056e6eed",121,1,"Read","A","tide",NA,"RR11",NA,NA,84,"Study","River","RR11",2285,""
"56a930c711926500056e6eed",122,1,"Read","A","swim",NA,"RR12",NA,NA,85,"Study","River","RR12",2101,""
"56a930c711926500056e6eed",127,1,"Read","A","",NA,"",NA,NA,0,"FreeRecall","","RECALL_Test",60009,"weed, water, "
"56a930c711926500056e6eed",129,1,"Read","A","rye",NA,"B1",NA,NA,86,"Study","Bread","B1",13902,""
"56a930c711926500056e6eed",130,1,"Read","A","loaf",NA,"B2",NA,NA,87,"Study","Bread","B2",3264,""
"56a930c711926500056e6eed",131,1,"Read","A","butter",NA,"B3",NA,NA,88,"Study","Bread","B3",7136,""
"56a930c711926500056e6eed",132,1,"Read","A","toast",NA,"B4",NA,NA,89,"Study","Bread","B4",5467,""
"56a930c711926500056e6eed",133,1,"Read","A","dough",NA,"B5",NA,NA,90,"Study","Bread","B5",3704,""
"56a930c711926500056e6eed",134,1,"Read","A","crust",NA,"B6",NA,NA,91,"Study","Bread","B6",4718,""
"56a930c711926500056e6eed",135,1,"Read","A","flour",NA,"B7",NA,NA,92,"Study","Bread","B7",5335,""
"56a930c711926500056e6eed",136,1,"Read","A","sandwich",NA,"B8",NA,NA,93,"Study","Bread","B8",6080,""
"56a930c711926500056e6eed",137,1,"Read","A","jam",NA,"B9",NA,NA,94,"Study","Bread","B9",11059,""
"56a930c711926500056e6eed",138,1,"Read","A","jelly",NA,"B10",NA,NA,95,"Study","Bread","B10",4216,""
"56a930c711926500056e6eed",139,1,"Read","A","slice",NA,"B11",NA,NA,96,"Study","Bread","B11",3245,""
"56a930c711926500056e6eed",140,1,"Read","A","milk",NA,"B12",NA,NA,97,"Study","Bread","B12",4242,""
"56a930c711926500056e6eed",145,1,"Read","A","",NA,"",NA,NA,0,"FreeRecall","","RECALL_Test",60003,"crust, bread, butter, jam, flour"
"56a930c711926500056e6eed",147,1,"Read","A","banner",NA,"F1",NA,NA,98,"Study","Flag","F1",8070,""
"56a930c711926500056e6eed",148,1,"Read","A","checkered",NA,"F2",NA,NA,99,"Study","Flag","F2",3653,""
"56a930c711926500056e6eed",149,1,"Read","A","american",NA,"F3",NA,NA,100,"Study","Flag","F3",6475,""
"56a930c711926500056e6eed",150,1,"Read","A","stripes",NA,"F4",NA,NA,101,"Study","Flag","F4",5080,""
"56a930c711926500056e6eed",151,1,"Read","A","pole",NA,"F5",NA,NA,102,"Study","Flag","F5",5248,""
"56a930c711926500056e6eed",152,1,"Read","A","anthem",NA,"F6",NA,NA,103,"Study","Flag","F6",5284,""
"56a930c711926500056e6eed",153,1,"Read","A","emblem",NA,"F7",NA,NA,104,"Study","Flag","F7",5006,""
"56a930c711926500056e6eed",154,1,"Read","A","national",NA,"F8",NA,NA,105,"Study","Flag","F8",4524,""
"56a930c711926500056e6eed",155,1,"Read","A","freedom",NA,"F9",NA,NA,106,"Study","Flag","F9",2120,""
"56a930c711926500056e6eed",156,1,"Read","A","symbol",NA,"F10",NA,NA,107,"Study","Flag","F10",1323,""
"56a930c711926500056e6eed",157,1,"Read","A","wave",NA,"F11",NA,NA,108,"Study","Flag","F11",4736,""
"56a930c711926500056e6eed",158,1,"Read","A","stars",NA,"F12",NA,NA,109,"Study","Flag","F12",1357,""
"56a930c711926500056e6eed",163,1,"Read","A","",NA,"",NA,NA,0,"FreeRecall","","RECALL_Test",60011,"pole, banner, stars, emblem"
"56a930c711926500056e6eed",165,1,"Read","A","blouse",NA,"SS1",NA,NA,110,"Study","Shirt","SS1",11595,""
"56a930c711926500056e6eed",166,1,"Read","A","sleeves",NA,"SS2",NA,NA,111,"Study","Shirt","SS2",3369,""
"56a930c711926500056e6eed",167,1,"Read","A","collar",NA,"SS3",NA,NA,112,"Study","Shirt","SS3",8960,""
"56a930c711926500056e6eed",168,1,"Read","A","shorts",NA,"SS4",NA,NA,113,"Study","Shirt","SS4",1573,""
"56a930c711926500056e6eed",169,1,"Read","A","button",NA,"SS5",NA,NA,114,"Study","Shirt","SS5",2217,""
"56a930c711926500056e6eed",170,1,"Read","A","pants",NA,"SS6",NA,NA,115,"Study","Shirt","SS6",1945,""
"56a930c711926500056e6eed",171,1,"Read","A","polo",NA,"SS7",NA,NA,116,"Study","Shirt","SS7",6449,""
"56a930c711926500056e6eed",172,1,"Read","A","jersey",NA,"SS8",NA,NA,117,"Study","Shirt","SS8",5498,""
"56a930c711926500056e6eed",173,1,"Read","A","vest",NA,"SS9",NA,NA,118,"Study","Shirt","SS9",1747,""
"56a930c711926500056e6eed",174,1,"Read","A","cuffs",NA,"SS10",NA,NA,119,"Study","Shirt","SS10",2440,""
"56a930c711926500056e6eed",175,1,"Read","A","tie",NA,"SS11",NA,NA,120,"Study","Shirt","SS11",7806,""
"56a930c711926500056e6eed",176,1,"Read","A","pocket",NA,"SS12",NA,NA,121,"Study","Shirt","SS12",2954,""
"56a930c711926500056e6eed",181,1,"Read","A","",NA,"",NA,NA,0,"FreeRecall","","RECALL_Test",60009,"blouse, collar, shirt, cuff, shirt"
"56d684fffc7879000c77d87f",3,2,"Read","B","aroma",NA,"Win_1",NA,NA,2,"Study","Window","Win_1",4343,""
"56d684fffc7879000c77d87f",4,2,"Read","B","scent",NA,"Win_2",NA,NA,3,"Study","Window","Win_2",5107,""
"56d684fffc7879000c77d87f",5,2,"Read","B","whiff",NA,"Win_3",NA,NA,4,"Study","Window","Win_3",4708,""
"56d684fffc7879000c77d87f",6,2,"Read","B","stench",NA,"Win_4",NA,NA,5,"Study","Window","Win_4",4665,""
"56d684fffc7879000c77d87f",7,2,"Read","B","reek",NA,"Win_5",NA,NA,6,"Study","Window","Win_5",4118,""
"56d684fffc7879000c77d87f",8,2,"Read","B","sniff",NA,"Win_6",NA,NA,7,"Study","Window","Win_6",4316,""
"56d684fffc7879000c77d87f",9,2,"Read","B","perfume",NA,"Win_7",NA,NA,8,"Study","Window","Win_7",4979,""
"56d684fffc7879000c77d87f",10,2,"Read","B","fragrance",NA,"Win_8",NA,NA,9,"Study","Window","Win_8",5265,""
"56d684fffc7879000c77d87f",11,2,"Read","B","nose",NA,"Win_9",NA,NA,10,"Study","Window","Win_9",3454,""
"56d684fffc7879000c77d87f",12,2,"Read","B","rose",NA,"Win_10",NA,NA,11,"Study","Window","Win_10",4122,""
"56d684fffc7879000c77d87f",13,2,"Read","B","salts",NA,"Win_11",NA,NA,12,"Study","Window","Win_11",4124,""
"56d684fffc7879000c77d87f",14,2,"Read","B","breathe",NA,"Win_12",NA,NA,13,"Study","Window","Win_12",6148,""
"56d684fffc7879000c77d87f",19,2,"Read","B","",NA,"",NA,NA,0,"FreeRecall","","RECALL_Test",60004,"aroma, breathe, salt, rose, nose, perfume, fragrance, sniff, reek, whiff, scent"
"56d684fffc7879000c77d87f",21,2,"Read","B","hard",NA,"R1",NA,NA,14,"Study","Rough","R1",4567,""
"56d684fffc7879000c77d87f",22,2,"Read","B","loud",NA,"R2",NA,NA,15,"Study","Rough","R2",3389,""
"56d684fffc7879000c77d87f",23,2,"Read","B","tender",NA,"R3",NA,NA,16,"Study","Rough","R3",3748,""
"56d684fffc7879000c77d87f",24,2,"Read","B","fluffy",NA,"R4",NA,NA,17,"Study","Rough","R4",4452,""
"56d684fffc7879000c77d87f",25,2,"Read","B","pillow",NA,"R5",NA,NA,18,"Study","Rough","R5",3591,""
"56d684fffc7879000c77d87f",26,2,"Read","B","downy",NA,"R6",NA,NA,19,"Study","Rough","R6",3997,""
"56d684fffc7879000c77d87f",27,2,"Read","B","plush",NA,"R7",NA,NA,20,"Study","Rough","R7",3471,""
"56d684fffc7879000c77d87f",28,2,"Read","B","cotton",NA,"R8",NA,NA,21,"Study","Rough","R8",3704,""
"56d684fffc7879000c77d87f",29,2,"Read","B","skin",NA,"R9",NA,NA,22,"Study","Rough","R9",3131,""
"56d684fffc7879000c77d87f",30,2,"Read","B","fur",NA,"R10",NA,NA,23,"Study","Rough","R10",2940,""
"56d684fffc7879000c77d87f",31,2,"Read","B","touch",NA,"R11",NA,NA,24,"Study","Rough","R11",3201,""
"56d684fffc7879000c77d87f",32,2,"Read","B","furry",NA,"R12",NA,NA,25,"Study","Rough","R12",4671,""
"56d684fffc7879000c77d87f",37,2,"Read","B","",NA,"",NA,NA,0,"FreeRecall","","RECALL_Test",60002,"hard, load, fluffy, tender, pillow, downy, cotton, fur, touch, furry"
"56d684fffc7879000c77d87f",39,2,"Read","B","honey",NA,"A1",NA,NA,26,"Study","Anger","A1",5988,""
"56d684fffc7879000c77d87f",40,2,"Read","B","bitter",NA,"A2",NA,NA,27,"Study","Anger","A2",4523,""
"56d684fffc7879000c77d87f",41,2,"Read","B","sugar",NA,"A3",NA,NA,28,"Study","Anger","A3",3343,""
"56d684fffc7879000c77d87f",42,2,"Read","B","sour",NA,"A4",NA,NA,29,"Study","Anger","A4",2778,""
"56d684fffc7879000c77d87f",43,2,"Read","B","candy",NA,"A5",NA,NA,30,"Study","Anger","A5",3123,""
"56d684fffc7879000c77d87f",44,2,"Read","B","tart",NA,"A6",NA,NA,31,"Study","Anger","A6",2854,""
"56d684fffc7879000c77d87f",45,2,"Read","B","chocolate",NA,"A7",NA,NA,32,"Study","Anger","A7",4948,""
"56d684fffc7879000c77d87f",46,2,"Read","B","nice",NA,"A8",NA,NA,33,"Study","Anger","A8",2947,""
"56d684fffc7879000c77d87f",47,2,"Read","B","taste",NA,"A9",NA,NA,34,"Study","Anger","A9",3464,""
"56d684fffc7879000c77d87f",48,2,"Read","B","cake",NA,"A10",NA,NA,35,"Study","Anger","A10",3034,""
"56d684fffc7879000c77d87f",49,2,"Read","B","good",NA,"A11",NA,NA,36,"Study","Anger","A11",3033,""
"56d684fffc7879000c77d87f",50,2,"Read","B","tooth",NA,"A12",NA,NA,37,"Study","Anger","A12",3803,""
"56d684fffc7879000c77d87f",55,2,"Read","B","",NA,"",NA,NA,0,"FreeRecall","","RECALL_Test",60008,"honey, bitter, sugar, sour, tart, chocolate, nice, taste, good, teeth"
"56d684fffc7879000c77d87f",57,2,"Read","B","table",NA,"T1",NA,NA,38,"Study","Trash","T1",4991,""
"56d684fffc7879000c77d87f",58,2,"Read","B","swivel",NA,"T2",NA,NA,39,"Study","Trash","T2",3330,""
"56d684fffc7879000c77d87f",59,2,"Read","B","rocking",NA,"T3",NA,NA,40,"Study","Trash","T3",3955,""
"56d684fffc7879000c77d87f",60,2,"Read","B","recliner",NA,"T4",NA,NA,41,"Study","Trash","T4",4730,""
"56d684fffc7879000c77d87f",61,2,"Read","B","seat",NA,"T5",NA,NA,42,"Study","Trash","T5",2736,""
"56d684fffc7879000c77d87f",62,2,"Read","B","stool",NA,"T6",NA,NA,43,"Study","Trash","T6",3157,""
"56d684fffc7879000c77d87f",63,2,"Read","B","desk",NA,"T7",NA,NA,44,"Study","Trash","T7",2958,""
"56d684fffc7879000c77d87f",64,2,"Read","B","couch",NA,"T8",NA,NA,45,"Study","Trash","T8",2623,""
"56d684fffc7879000c77d87f",65,2,"Read","B","sit",NA,"T9",NA,NA,46,"Study","Trash","T9",2437,""
"56d684fffc7879000c77d87f",66,2,"Read","B","sofa",NA,"T10",NA,NA,47,"Study","Trash","T10",2939,""
"56d684fffc7879000c77d87f",67,2,"Read","B","bench",NA,"T11",NA,NA,48,"Study","Trash","T11",2857,""
"56d684fffc7879000c77d87f",68,2,"Read","B","sitting",NA,"T12",NA,NA,49,"Study","Trash","T12",3555,""
"56d684fffc7879000c77d87f",73,2,"Read","B","",NA,"",NA,NA,0,"FreeRecall","","RECALL_Test",60011,"sitting, desk, table, rocking, seat, couch, sofa, bench"
"56d684fffc7879000c77d87f",75,2,"Read","B","climber",NA,"D1",NA,NA,50,"Study","Doctor","D1",6491,""
"56d684fffc7879000c77d87f",76,2,"Read","B","hill",NA,"D2",NA,NA,51,"Study","Doctor","D2",3101,""
"56d684fffc7879000c77d87f",77,2,"Read","B","climb",NA,"D3",NA,NA,52,"Study","Doctor","D3",3923,""
"56d684fffc7879000c77d87f",78,2,"Read","B","molehill",NA,"D4",NA,NA,53,"Study","Doctor","D4",5567,""
"56d684fffc7879000c77d87f",79,2,"Read","B","peak",NA,"D5",NA,NA,54,"Study","Doctor","D5",3505,""
"56d684fffc7879000c77d87f",80,2,"Read","B","valley",NA,"D6",NA,NA,55,"Study","Doctor","D6",4362,""
"56d684fffc7879000c77d87f",81,2,"Read","B","summit",NA,"D7",NA,NA,56,"Study","Doctor","D7",3643,""
"56d684fffc7879000c77d87f",82,2,"Read","B","steep",NA,"D8",NA,NA,57,"Study","Doctor","D8",3127,""
"56d684fffc7879000c77d87f",83,2,"Read","B","ski",NA,"D9",NA,NA,58,"Study","Doctor","D9",2675,""
"56d684fffc7879000c77d87f",84,2,"Read","B","bike",NA,"D10",NA,NA,59,"Study","Doctor","D10",3272,""
"56d684fffc7879000c77d87f",85,2,"Read","B","goat",NA,"D11",NA,NA,60,"Study","Doctor","D11",3287,""
"56d684fffc7879000c77d87f",86,2,"Read","B","glacier",NA,"D12",NA,NA,61,"Study","Doctor","D12",3664,""
"56d684fffc7879000c77d87f",91,2,"Read","B","",NA,"",NA,NA,0,"FreeRecall","","RECALL_Test",60010,"hill, climb, glacier, goat, ski, steep, summit, valley, molehill"
"56d684fffc7879000c77d87f",93,2,"Read","B","band",NA,"S1",NA,NA,62,"Study","Slow","S1",4713,""
"56d684fffc7879000c77d87f",94,2,"Read","B","concert",NA,"S2",NA,NA,63,"Study","Slow","S2",3978,""
"56d684fffc7879000c77d87f",95,2,"Read","B","jazz",NA,"S3",NA,NA,64,"Study","Slow","S3",3728,""
"56d684fffc7879000c77d87f",96,2,"Read","B","symphony",NA,"S4",NA,NA,65,"Study","Slow","S4",5656,""
"56d684fffc7879000c77d87f",97,2,"Read","B","orchestra",NA,"S5",NA,NA,66,"Study","Slow","S5",5887,""
"56d684fffc7879000c77d87f",98,2,"Read","B","rhythm",NA,"S6",NA,NA,67,"Study","Slow","S6",5489,""
"56d684fffc7879000c77d87f",99,2,"Read","B","radio",NA,"S7",NA,NA,68,"Study","Slow","S7",4467,""
"56d684fffc7879000c77d87f",100,2,"Read","B","melody",NA,"S8",NA,NA,69,"Study","Slow","S8",4243,""
"56d684fffc7879000c77d87f",101,2,"Read","B","piano",NA,"S9",NA,NA,70,"Study","Slow","S9",3069,""
"56d684fffc7879000c77d87f",102,2,"Read","B","sound",NA,"S10",NA,NA,71,"Study","Slow","S10",5171,""
"56d684fffc7879000c77d87f",103,2,"Read","B","instrument",NA,"S11",NA,NA,72,"Study","Slow","S11",5288,""
"56d684fffc7879000c77d87f",104,2,"Read","B","note",NA,"S12",NA,NA,73,"Study","Slow","S12",3217,""
"56d684fffc7879000c77d87f",109,2,"Read","B","",NA,"",NA,NA,0,"FreeRecall","","RECALL_Test",60181,"band, concert, jazz, rhyme, radio, piano, sound, note"
"56d684fffc7879000c77d87f",111,2,"Read","B","foam",NA,"RR1",NA,NA,74,"Study","River","RR1",6173,""
"56d684fffc7879000c77d87f",112,2,"Read","B","latex",NA,"RR2",NA,NA,75,"Study","River","RR2",3740,""
"56d684fffc7879000c77d87f",113,2,"Read","B","galoshes",NA,"RR3",NA,NA,76,"Study","River","RR3",3579,""
"56d684fffc7879000c77d87f",114,2,"Read","B","tire",NA,"RR4",NA,NA,77,"Study","River","RR4",3343,""
"56d684fffc7879000c77d87f",115,2,"Read","B","flexible",NA,"RR5",NA,NA,78,"Study","River","RR5",4764,""
"56d684fffc7879000c77d87f",116,2,"Read","B","elastic",NA,"RR6",NA,NA,79,"Study","River","RR6",4135,""
"56d684fffc7879000c77d87f",117,2,"Read","B","gloves",NA,"RR7",NA,NA,80,"Study","River","RR7",4427,""
"56d684fffc7879000c77d87f",118,2,"Read","B","eraser",NA,"RR8",NA,NA,81,"Study","River","RR8",3827,""
"56d684fffc7879000c77d87f",119,2,"Read","B","bounce",NA,"RR9",NA,NA,82,"Study","River","RR9",3997,""
"56d684fffc7879000c77d87f",120,2,"Read","B","ball",NA,"RR10",NA,NA,83,"Study","River","RR10",3639,""
"56d684fffc7879000c77d87f",121,2,"Read","B","soles",NA,"RR11",NA,NA,84,"Study","River","RR11",3304,""
"56d684fffc7879000c77d87f",122,2,"Read","B","springy",NA,"RR12",NA,NA,85,"Study","River","RR12",5088,""
"56d684fffc7879000c77d87f",127,2,"Read","B","",NA,"",NA,NA,0,"FreeRecall","","RECALL_Test",60004,"foam, tire, elastic, eraser, bounce, ball, sole, spring"
"56d684fffc7879000c77d87f",129,2,"Read","B","toe",NA,"B1",NA,NA,86,"Study","Bread","B1",4069,""
"56d684fffc7879000c77d87f",130,2,"Read","B","inch",NA,"B2",NA,NA,87,"Study","Bread","B2",2923,""
"56d684fffc7879000c77d87f",131,2,"Read","B","ankle",NA,"B3",NA,NA,88,"Study","Bread","B3",4157,""
"56d684fffc7879000c77d87f",132,2,"Read","B","shoe",NA,"B4",NA,NA,89,"Study","Bread","B4",2955,""
"56d684fffc7879000c77d87f",133,2,"Read","B","sandals",NA,"B5",NA,NA,90,"Study","Bread","B5",3941,""
"56d684fffc7879000c77d87f",134,2,"Read","B","sock",NA,"B6",NA,NA,91,"Study","Bread","B6",2908,""
"56d684fffc7879000c77d87f",135,2,"Read","B","hand",NA,"B7",NA,NA,92,"Study","Bread","B7",3161,""
"56d684fffc7879000c77d87f",136,2,"Read","B","boot",NA,"B8",NA,NA,93,"Study","Bread","B8",2794,""
"56d684fffc7879000c77d87f",137,2,"Read","B","yard",NA,"B9",NA,NA,94,"Study","Bread","B9",3017,""
"56d684fffc7879000c77d87f",138,2,"Read","B","kick",NA,"B10",NA,NA,95,"Study","Bread","B10",2913,""
"56d684fffc7879000c77d87f",139,2,"Read","B","knee",NA,"B11",NA,NA,96,"Study","Bread","B11",3192,""
"56d684fffc7879000c77d87f",140,2,"Read","B","walk",NA,"B12",NA,NA,97,"Study","Bread","B12",4441,""
"56d684fffc7879000c77d87f",145,2,"Read","B","",NA,"",NA,NA,0,"FreeRecall","","RECALL_Test",60016,"toes, ankle, shoe, sandal, sock, boot, kick, knee, walk, "
"56d684fffc7879000c77d87f",147,2,"Read","B","boy",NA,"F1",NA,NA,98,"Study","Flag","F1",4363,""
"56d684fffc7879000c77d87f",148,2,"Read","B","dolls",NA,"F2",NA,NA,99,"Study","Flag","F2",3285,""
"56d684fffc7879000c77d87f",149,2,"Read","B","pretty",NA,"F3",NA,NA,100,"Study","Flag","F3",3366,""
"56d684fffc7879000c77d87f",150,2,"Read","B","female",NA,"F4",NA,NA,101,"Study","Flag","F4",3887,""
"56d684fffc7879000c77d87f",151,2,"Read","B","dress",NA,"F5",NA,NA,102,"Study","Flag","F5",3485,""
"56d684fffc7879000c77d87f",152,2,"Read","B","date",NA,"F6",NA,NA,103,"Study","Flag","F6",3595,""
"56d684fffc7879000c77d87f",153,2,"Read","B","beautiful",NA,"F7",NA,NA,104,"Study","Flag","F7",6028,""
"56d684fffc7879000c77d87f",154,2,"Read","B","daughter",NA,"F8",NA,NA,105,"Study","Flag","F8",6288,""
"56d684fffc7879000c77d87f",155,2,"Read","B","sister",NA,"F9",NA,NA,106,"Study","Flag","F9",3965,""
"56d684fffc7879000c77d87f",156,2,"Read","B","cute",NA,"F10",NA,NA,107,"Study","Flag","F10",3114,""
"56d684fffc7879000c77d87f",157,2,"Read","B","niece",NA,"F11",NA,NA,108,"Study","Flag","F11",3710,""
"56d684fffc7879000c77d87f",158,2,"Read","B","young",NA,"F12",NA,NA,109,"Study","Flag","F12",3952,""
"56d684fffc7879000c77d87f",163,2,"Read","B","",NA,"",NA,NA,0,"FreeRecall","","RECALL_Test",60010,"boy, female, pretty, dress, date, daughter, sister, young, niece, doll"
"56d684fffc7879000c77d87f",165,2,"Read","B","white",NA,"SS1",NA,NA,110,"Study","Shirt","SS1",5320,""
"56d684fffc7879000c77d87f",166,2,"Read","B","gray",NA,"SS2",NA,NA,111,"Study","Shirt","SS2",3564,""
"56d684fffc7879000c77d87f",167,2,"Read","B","brown",NA,"SS3",NA,NA,112,"Study","Shirt","SS3",3001,""
"56d684fffc7879000c77d87f",168,2,"Read","B","coal",NA,"SS4",NA,NA,113,"Study","Shirt","SS4",2549,""
"56d684fffc7879000c77d87f",169,2,"Read","B","dark",NA,"SS5",NA,NA,114,"Study","Shirt","SS5",3269,""
"56d684fffc7879000c77d87f",170,2,"Read","B","color",NA,"SS6",NA,NA,115,"Study","Shirt","SS6",2860,""
"56d684fffc7879000c77d87f",171,2,"Read","B","funeral",NA,"SS7",NA,NA,116,"Study","Shirt","SS7",4353,""
"56d684fffc7879000c77d87f",172,2,"Read","B","blue",NA,"SS8",NA,NA,117,"Study","Shirt","SS8",5287,""
"56d684fffc7879000c77d87f",173,2,"Read","B","charred",NA,"SS9",NA,NA,118,"Study","Shirt","SS9",3744,""
"56d684fffc7879000c77d87f",174,2,"Read","B","ink",NA,"SS10",NA,NA,119,"Study","Shirt","SS10",2730,""
"56d684fffc7879000c77d87f",175,2,"Read","B","death",NA,"SS11",NA,NA,120,"Study","Shirt","SS11",3481,""
"56d684fffc7879000c77d87f",176,2,"Read","B","cat",NA,"SS12",NA,NA,121,"Study","Shirt","SS12",2435,""
"56d684fffc7879000c77d87f",181,2,"Read","B","",NA,"",NA,NA,0,"FreeRecall","","RECALL_Test",60879,"white, grey, funeral, blue, death, cat, coal, ink, "
"5ab87be55cd105000161a5a8",3,1,"Read","A","pane",NA,"Win_1",NA,NA,2,"Study","Window","Win_1",3200,""
"5ab87be55cd105000161a5a8",4,1,"Read","A","sill",NA,"Win_2",NA,NA,3,"Study","Window","Win_2",5202,""
"5ab87be55cd105000161a5a8",5,1,"Read","A","shutter",NA,"Win_3",NA,NA,4,"Study","Window","Win_3",6485,""
"5ab87be55cd105000161a5a8",6,1,"Read","A","curtain",NA,"Win_4",NA,NA,5,"Study","Window","Win_4",7592,""
"5ab87be55cd105000161a5a8",7,1,"Read","A","door",NA,"Win_5",NA,NA,6,"Study","Window","Win_5",1360,""
"5ab87be55cd105000161a5a8",8,1,"Read","A","ledge",NA,"Win_6",NA,NA,7,"Study","Window","Win_6",2396,""
"5ab87be55cd105000161a5a8",9,1,"Read","A","glass",NA,"Win_7",NA,NA,8,"Study","Window","Win_7",2905,""
"5ab87be55cd105000161a5a8",10,1,"Read","A","view",NA,"Win_8",NA,NA,9,"Study","Window","Win_8",3506,""
"5ab87be55cd105000161a5a8",11,1,"Read","A","screen",NA,"Win_9",NA,NA,10,"Study","Window","Win_9",3468,""
"5ab87be55cd105000161a5a8",12,1,"Read","A","shade",NA,"Win_10",NA,NA,11,"Study","Window","Win_10",3872,""
"5ab87be55cd105000161a5a8",13,1,"Read","A","open",NA,"Win_11",NA,NA,12,"Study","Window","Win_11",2586,""
"5ab87be55cd105000161a5a8",14,1,"Read","A","frame",NA,"Win_12",NA,NA,13,"Study","Window","Win_12",2280,""
"5ab87be55cd105000161a5a8",19,1,"Read","A","",NA,"",NA,NA,0,"FreeRecall","","RECALL_Test",60006,"sill, ledge, glass, door, shutter, pane, shade, frame, view, curtain, edge, "
"5ab87be55cd105000161a5a8",21,1,"Read","A","sandpaper",NA,"R1",NA,NA,14,"Study","Rough","R1",3527,""
"5ab87be55cd105000161a5a8",22,1,"Read","A","smooth",NA,"R2",NA,NA,15,"Study","Rough","R2",3344,""
"5ab87be55cd105000161a5a8",23,1,"Read","A","coarse",NA,"R3",NA,NA,16,"Study","Rough","R3",2556,""
"5ab87be55cd105000161a5a8",24,1,"Read","A","tough",NA,"R4",NA,NA,17,"Study","Rough","R4",6612,""
"5ab87be55cd105000161a5a8",25,1,"Read","A","rugged",NA,"R5",NA,NA,18,"Study","Rough","R5",2080,""
"5ab87be55cd105000161a5a8",26,1,"Read","A","bumpy",NA,"R6",NA,NA,19,"Study","Rough","R6",2150,""
"5ab87be55cd105000161a5a8",27,1,"Read","A","jagged",NA,"R7",NA,NA,20,"Study","Rough","R7",2680,""
"5ab87be55cd105000161a5a8",28,1,"Read","A","riders",NA,"R8",NA,NA,21,"Study","Rough","R8",2233,""
"5ab87be55cd105000161a5a8",29,1,"Read","A","uneven",NA,"R9",NA,NA,22,"Study","Rough","R9",7809,""
"5ab87be55cd105000161a5a8",30,1,"Read","A","road",NA,"R10",NA,NA,23,"Study","Rough","R10",2262,""
"5ab87be55cd105000161a5a8",31,1,"Read","A","ready",NA,"R11",NA,NA,24,"Study","Rough","R11",2434,""
"5ab87be55cd105000161a5a8",32,1,"Read","A","sand",NA,"R12",NA,NA,25,"Study","Rough","R12",2081,""
"5ab87be55cd105000161a5a8",37,1,"Read","A","",NA,"",NA,NA,0,"FreeRecall","","RECALL_Test",60074,"sand, sandpaper, smooth, rough, coarse, jagged, uneven, road, car"
"5ab87be55cd105000161a5a8",39,1,"Read","A","rage",NA,"A1",NA,NA,26,"Study","Anger","A1",3669,""
"5ab87be55cd105000161a5a8",40,1,"Read","A","mad",NA,"A2",NA,NA,27,"Study","Anger","A2",3098,""
"5ab87be55cd105000161a5a8",41,1,"Read","A","enrage",NA,"A3",NA,NA,28,"Study","Anger","A3",2354,""
"5ab87be55cd105000161a5a8",42,1,"Read","A","fury",NA,"A4",NA,NA,29,"Study","Anger","A4",3249,""
"5ab87be55cd105000161a5a8",43,1,"Read","A","temper",NA,"A5",NA,NA,30,"Study","Anger","A5",2889,""
"5ab87be55cd105000161a5a8",44,1,"Read","A","ire",NA,"A6",NA,NA,31,"Study","Anger","A6",2251,""
"5ab87be55cd105000161a5a8",45,1,"Read","A","wrath",NA,"A7",NA,NA,32,"Study","Anger","A7",5919,""
"5ab87be55cd105000161a5a8",46,1,"Read","A","mean",NA,"A8",NA,NA,33,"Study","Anger","A8",2495,""
"5ab87be55cd105000161a5a8",47,1,"Read","A","hatred",NA,"A9",NA,NA,34,"Study","Anger","A9",2436,""
"5ab87be55cd105000161a5a8",48,1,"Read","A","fight",NA,"A10",NA,NA,35,"Study","Anger","A10",2246,""
"5ab87be55cd105000161a5a8",49,1,"Read","A","hate",NA,"A11",NA,NA,36,"Study","Anger","A11",2418,""
"5ab87be55cd105000161a5a8",50,1,"Read","A","fear",NA,"A12",NA,NA,37,"Study","Anger","A12",1940,""
"5ab87be55cd105000161a5a8",55,1,"Read","A","",NA,"",NA,NA,0,"FreeRecall","","RECALL_Test",60355,"rage, anger, hate, hatred, fear, wrath, fury, temper, mad, fight, "
"5ab87be55cd105000161a5a8",57,1,"Read","A","garbage",NA,"T1",NA,NA,38,"Study","Trash","T1",2733,""
"5ab87be55cd105000161a5a8",58,1,"Read","A","rubbish",NA,"T2",NA,NA,39,"Study","Trash","T2",5555,""
"5ab87be55cd105000161a5a8",59,1,"Read","A","debris",NA,"T3",NA,NA,40,"Study","Trash","T3",5506,""
"5ab87be55cd105000161a5a8",60,1,"Read","A","dump",NA,"T4",NA,NA,41,"Study","Trash","T4",2770,""
"5ab87be55cd105000161a5a8",61,1,"Read","A","litter",NA,"T5",NA,NA,42,"Study","Trash","T5",4504,""
"5ab87be55cd105000161a5a8",62,1,"Read","A","landfill",NA,"T6",NA,NA,43,"Study","Trash","T6",3357,""
"5ab87be55cd105000161a5a8",63,1,"Read","A","junk",NA,"T7",NA,NA,44,"Study","Trash","T7",9619,""
"5ab87be55cd105000161a5a8",64,1,"Read","A","waste",NA,"T8",NA,NA,45,"Study","Trash","T8",2433,""
"5ab87be55cd105000161a5a8",65,1,"Read","A","sewage",NA,"T9",NA,NA,46,"Study","Trash","T9",2414,""
"5ab87be55cd105000161a5a8",66,1,"Read","A","pile",NA,"T10",NA,NA,47,"Study","Trash","T10",2375,""
"5ab87be55cd105000161a5a8",67,1,"Read","A","scraps",NA,"T11",NA,NA,48,"Study","Trash","T11",2038,""
"5ab87be55cd105000161a5a8",68,1,"Read","A","refuse",NA,"T12",NA,NA,49,"Study","Trash","T12",2626,""
"5ab87be55cd105000161a5a8",73,1,"Read","A","",NA,"",NA,NA,0,"FreeRecall","","RECALL_Test",60662,"rubbish, garbage, waste, landfill, scraps, detritus, debris, sewage, refuse, trash, "
"5ab87be55cd105000161a5a8",75,1,"Read","A","physician",NA,"D1",NA,NA,50,"Study","Doctor","D1",3390,""
"5ab87be55cd105000161a5a8",76,1,"Read","A","nurse",NA,"D2",NA,NA,51,"Study","Doctor","D2",2461,""
"5ab87be55cd105000161a5a8",77,1,"Read","A","stethoscope",NA,"D3",NA,NA,52,"Study","Doctor","D3",2260,""
"5ab87be55cd105000161a5a8",78,1,"Read","A","surgeon",NA,"D4",NA,NA,53,"Study","Doctor","D4",3355,""
"5ab87be55cd105000161a5a8",79,1,"Read","A","patient",NA,"D5",NA,NA,54,"Study","Doctor","D5",2055,""
"5ab87be55cd105000161a5a8",80,1,"Read","A","clinic",NA,"D6",NA,NA,55,"Study","Doctor","D6",1944,""
"5ab87be55cd105000161a5a8",81,1,"Read","A","dentist",NA,"D7",NA,NA,56,"Study","Doctor","D7",1988,""
"5ab87be55cd105000161a5a8",82,1,"Read","A","medicine",NA,"D8",NA,NA,57,"Study","Doctor","D8",1729,""
"5ab87be55cd105000161a5a8",83,1,"Read","A","lawyer",NA,"D9",NA,NA,58,"Study","Doctor","D9",2088,""
"5ab87be55cd105000161a5a8",84,1,"Read","A","health",NA,"D10",NA,NA,59,"Study","Doctor","D10",2520,""
"5ab87be55cd105000161a5a8",85,1,"Read","A","sick",NA,"D11",NA,NA,60,"Study","Doctor","D11",2241,""
"5ab87be55cd105000161a5a8",86,1,"Read","A","cure",NA,"D12",NA,NA,61,"Study","Doctor","D12",2939,""
"5ab87be55cd105000161a5a8",91,1,"Read","A","",NA,"",NA,NA,0,"FreeRecall","","RECALL_Test",60005,"dentist, patient, physician, surgeon, nurse, dentist, lawyer, health, sick, stethoscope, clinic, medicine"
"5ab87be55cd105000161a5a8",93,1,"Read","A","fast",NA,"S1",NA,NA,62,"Study","Slow","S1",2857,""
"5ab87be55cd105000161a5a8",94,1,"Read","A","snail",NA,"S2",NA,NA,63,"Study","Slow","S2",4974,""
"5ab87be55cd105000161a5a8",95,1,"Read","A","turtle",NA,"S3",NA,NA,64,"Study","Slow","S3",3740,""
"5ab87be55cd105000161a5a8",96,1,"Read","A","sluggish",NA,"S4",NA,NA,65,"Study","Slow","S4",3298,""
"5ab87be55cd105000161a5a8",97,1,"Read","A","quick",NA,"S5",NA,NA,66,"Study","Slow","S5",4209,""
"5ab87be55cd105000161a5a8",98,1,"Read","A","molasses",NA,"S6",NA,NA,67,"Study","Slow","S6",2417,""
"5ab87be55cd105000161a5a8",99,1,"Read","A","lethargic",NA,"S7",NA,NA,68,"Study","Slow","S7",2470,""
"5ab87be55cd105000161a5a8",100,1,"Read","A","speed",NA,"S8",NA,NA,69,"Study","Slow","S8",5446,""
"5ab87be55cd105000161a5a8",101,1,"Read","A","delay",NA,"S9",NA,NA,70,"Study","Slow","S9",2141,""
"5ab87be55cd105000161a5a8",102,1,"Read","A","hesitant",NA,"S10",NA,NA,71,"Study","Slow","S10",2839,""
"5ab87be55cd105000161a5a8",103,1,"Read","A","cautious",NA,"S11",NA,NA,72,"Study","Slow","S11",2085,""
"5ab87be55cd105000161a5a8",104,1,"Read","A","traffic",NA,"S12",NA,NA,73,"Study","Slow","S12",2145,""
"5ab87be55cd105000161a5a8",109,1,"Read","A","",NA,"",NA,NA,0,"FreeRecall","","RECALL_Test",60558,"delay, traffic, hesitant, speed, quick, fast, snail, sluggish, lethargic, molasses"
"5ab87be55cd105000161a5a8",111,1,"Read","A","mississippi",NA,"RR1",NA,NA,74,"Study","River","RR1",5649,""
"5ab87be55cd105000161a5a8",112,1,"Read","A","creek",NA,"RR2",NA,NA,75,"Study","River","RR2",3024,""
"5ab87be55cd105000161a5a8",113,1,"Read","A","stream",NA,"RR3",NA,NA,76,"Study","River","RR3",4095,""
"5ab87be55cd105000161a5a8",114,1,"Read","A","flow",NA,"RR4",NA,NA,77,"Study","River","RR4",6584,""
"5ab87be55cd105000161a5a8",115,1,"Read","A","bridge",NA,"RR5",NA,NA,78,"Study","River","RR5",3644,""
"5ab87be55cd105000161a5a8",116,1,"Read","A","brook",NA,"RR6",NA,NA,79,"Study","River","RR6",2318,""
"5ab87be55cd105000161a5a8",117,1,"Read","A","lake",NA,"RR7",NA,NA,80,"Study","River","RR7",2264,""
"5ab87be55cd105000161a5a8",118,1,"Read","A","barge",NA,"RR8",NA,NA,81,"Study","River","RR8",2557,""
"5ab87be55cd105000161a5a8",119,1,"Read","A","water",NA,"RR9",NA,NA,82,"Study","River","RR9",2166,""
"5ab87be55cd105000161a5a8",120,1,"Read","A","boat",NA,"RR10",NA,NA,83,"Study","River","RR10",5209,""
"5ab87be55cd105000161a5a8",121,1,"Read","A","tide",NA,"RR11",NA,NA,84,"Study","River","RR11",2126,""
"5ab87be55cd105000161a5a8",122,1,"Read","A","swim",NA,"RR12",NA,NA,85,"Study","River","RR12",3511,""
"5ab87be55cd105000161a5a8",127,1,"Read","A","",NA,"",NA,NA,0,"FreeRecall","","RECALL_Test",60084,"Mississippi, brook, tide, water, boat, barge, stream, creek, "
"5ab87be55cd105000161a5a8",129,1,"Read","A","rye",NA,"B1",NA,NA,86,"Study","Bread","B1",3058,""
"5ab87be55cd105000161a5a8",130,1,"Read","A","loaf",NA,"B2",NA,NA,87,"Study","Bread","B2",3070,""
"5ab87be55cd105000161a5a8",131,1,"Read","A","butter",NA,"B3",NA,NA,88,"Study","Bread","B3",2505,""
"5ab87be55cd105000161a5a8",132,1,"Read","A","toast",NA,"B4",NA,NA,89,"Study","Bread","B4",4076,""
"5ab87be55cd105000161a5a8",133,1,"Read","A","dough",NA,"B5",NA,NA,90,"Study","Bread","B5",3058,""
"5ab87be55cd105000161a5a8",134,1,"Read","A","crust",NA,"B6",NA,NA,91,"Study","Bread","B6",4258,""
"5ab87be55cd105000161a5a8",135,1,"Read","A","flour",NA,"B7",NA,NA,92,"Study","Bread","B7",7142,""
"5ab87be55cd105000161a5a8",136,1,"Read","A","sandwich",NA,"B8",NA,NA,93,"Study","Bread","B8",2789,""
"5ab87be55cd105000161a5a8",137,1,"Read","A","jam",NA,"B9",NA,NA,94,"Study","Bread","B9",3121,""
"5ab87be55cd105000161a5a8",138,1,"Read","A","jelly",NA,"B10",NA,NA,95,"Study","Bread","B10",2665,""
"5ab87be55cd105000161a5a8",139,1,"Read","A","slice",NA,"B11",NA,NA,96,"Study","Bread","B11",2348,""
"5ab87be55cd105000161a5a8",140,1,"Read","A","milk",NA,"B12",NA,NA,97,"Study","Bread","B12",2924,""
"5ab87be55cd105000161a5a8",145,1,"Read","A","",NA,"",NA,NA,0,"FreeRecall","","RECALL_Test",60741,"jam, butter, jelly, toast, crust, loaf, slice, sandwich, milk, rye, flour"
"5ab87be55cd105000161a5a8",147,1,"Read","A","banner",NA,"F1",NA,NA,98,"Study","Flag","F1",3349,""
"5ab87be55cd105000161a5a8",148,1,"Read","A","checkered",NA,"F2",NA,NA,99,"Study","Flag","F2",2616,""
"5ab87be55cd105000161a5a8",149,1,"Read","A","american",NA,"F3",NA,NA,100,"Study","Flag","F3",2705,""
"5ab87be55cd105000161a5a8",150,1,"Read","A","stripes",NA,"F4",NA,NA,101,"Study","Flag","F4",3071,""
"5ab87be55cd105000161a5a8",151,1,"Read","A","pole",NA,"F5",NA,NA,102,"Study","Flag","F5",3879,""
"5ab87be55cd105000161a5a8",152,1,"Read","A","anthem",NA,"F6",NA,NA,103,"Study","Flag","F6",6652,""
"5ab87be55cd105000161a5a8",153,1,"Read","A","emblem",NA,"F7",NA,NA,104,"Study","Flag","F7",3446,""
"5ab87be55cd105000161a5a8",154,1,"Read","A","national",NA,"F8",NA,NA,105,"Study","Flag","F8",2829,""
"5ab87be55cd105000161a5a8",155,1,"Read","A","freedom",NA,"F9",NA,NA,106,"Study","Flag","F9",3176,""
"5ab87be55cd105000161a5a8",156,1,"Read","A","symbol",NA,"F10",NA,NA,107,"Study","Flag","F10",4970,""
"5ab87be55cd105000161a5a8",157,1,"Read","A","wave",NA,"F11",NA,NA,108,"Study","Flag","F11",2264,""
"5ab87be55cd105000161a5a8",158,1,"Read","A","stars",NA,"F12",NA,NA,109,"Study","Flag","F12",2352,""
"5ab87be55cd105000161a5a8",163,1,"Read","A","",NA,"",NA,NA,0,"FreeRecall","","RECALL_Test",60381,"wave, checkered, banner, anthem, emblem, symbol, stars, pole, "
"5ab87be55cd105000161a5a8",165,1,"Read","A","blouse",NA,"SS1",NA,NA,110,"Study","Shirt","SS1",9561,""
"5ab87be55cd105000161a5a8",166,1,"Read","A","sleeves",NA,"SS2",NA,NA,111,"Study","Shirt","SS2",2170,""
"5ab87be55cd105000161a5a8",167,1,"Read","A","collar",NA,"SS3",NA,NA,112,"Study","Shirt","SS3",6174,""
"5ab87be55cd105000161a5a8",168,1,"Read","A","shorts",NA,"SS4",NA,NA,113,"Study","Shirt","SS4",5303,""
"5ab87be55cd105000161a5a8",169,1,"Read","A","button",NA,"SS5",NA,NA,114,"Study","Shirt","SS5",2226,""
"5ab87be55cd105000161a5a8",170,1,"Read","A","pants",NA,"SS6",NA,NA,115,"Study","Shirt","SS6",2075,""
"5ab87be55cd105000161a5a8",171,1,"Read","A","polo",NA,"SS7",NA,NA,116,"Study","Shirt","SS7",1890,""
"5ab87be55cd105000161a5a8",172,1,"Read","A","jersey",NA,"SS8",NA,NA,117,"Study","Shirt","SS8",7097,""
"5ab87be55cd105000161a5a8",173,1,"Read","A","vest",NA,"SS9",NA,NA,118,"Study","Shirt","SS9",2116,""
"5ab87be55cd105000161a5a8",174,1,"Read","A","cuffs",NA,"SS10",NA,NA,119,"Study","Shirt","SS10",2588,""
"5ab87be55cd105000161a5a8",175,1,"Read","A","tie",NA,"SS11",NA,NA,120,"Study","Shirt","SS11",2407,""
"5ab87be55cd105000161a5a8",176,1,"Read","A","pocket",NA,"SS12",NA,NA,121,"Study","Shirt","SS12",2807,""
"5ab87be55cd105000161a5a8",181,1,"Read","A","",NA,"",NA,NA,0,"FreeRecall","","RECALL_Test",60707,"blouse, collar, shirt, polo, sleeves, tie, pocket, cuffs, shorts, buttons,"
"5abe9da9a3ba7a0001b46a18",3,2,"Read","B","aroma",NA,"Win_1",NA,NA,2,"Study","Window","Win_1",2312,""
"5abe9da9a3ba7a0001b46a18",4,2,"Read","B","scent",NA,"Win_2",NA,NA,3,"Study","Window","Win_2",2129,""
"5abe9da9a3ba7a0001b46a18",5,2,"Read","B","whiff",NA,"Win_3",NA,NA,4,"Study","Window","Win_3",2077,""
"5abe9da9a3ba7a0001b46a18",6,2,"Read","B","stench",NA,"Win_4",NA,NA,5,"Study","Window","Win_4",2041,""
"5abe9da9a3ba7a0001b46a18",7,2,"Read","B","reek",NA,"Win_5",NA,NA,6,"Study","Window","Win_5",1895,""
"5abe9da9a3ba7a0001b46a18",8,2,"Read","B","sniff",NA,"Win_6",NA,NA,7,"Study","Window","Win_6",2133,""
"5abe9da9a3ba7a0001b46a18",9,2,"Read","B","perfume",NA,"Win_7",NA,NA,8,"Study","Window","Win_7",1931,""
"5abe9da9a3ba7a0001b46a18",10,2,"Read","B","fragrance",NA,"Win_8",NA,NA,9,"Study","Window","Win_8",2244,""
"5abe9da9a3ba7a0001b46a18",11,2,"Read","B","nose",NA,"Win_9",NA,NA,10,"Study","Window","Win_9",2038,""
"5abe9da9a3ba7a0001b46a18",12,2,"Read","B","rose",NA,"Win_10",NA,NA,11,"Study","Window","Win_10",1864,""
"5abe9da9a3ba7a0001b46a18",13,2,"Read","B","salts",NA,"Win_11",NA,NA,12,"Study","Window","Win_11",1980,""
"5abe9da9a3ba7a0001b46a18",14,2,"Read","B","breathe",NA,"Win_12",NA,NA,13,"Study","Window","Win_12",1909,""
"5abe9da9a3ba7a0001b46a18",19,2,"Read","B","",NA,"",NA,NA,0,"FreeRecall","","RECALL_Test",60004,"aroma, whiff, scent, nose, rose, perfume, stench"
"5abe9da9a3ba7a0001b46a18",21,2,"Read","B","hard",NA,"R1",NA,NA,14,"Study","Rough","R1",1825,""
"5abe9da9a3ba7a0001b46a18",22,2,"Read","B","loud",NA,"R2",NA,NA,15,"Study","Rough","R2",1879,""
"5abe9da9a3ba7a0001b46a18",23,2,"Read","B","tender",NA,"R3",NA,NA,16,"Study","Rough","R3",1862,""
"5abe9da9a3ba7a0001b46a18",24,2,"Read","B","fluffy",NA,"R4",NA,NA,17,"Study","Rough","R4",1848,""
"5abe9da9a3ba7a0001b46a18",25,2,"Read","B","pillow",NA,"R5",NA,NA,18,"Study","Rough","R5",1996,""
"5abe9da9a3ba7a0001b46a18",26,2,"Read","B","downy",NA,"R6",NA,NA,19,"Study","Rough","R6",1896,""
"5abe9da9a3ba7a0001b46a18",27,2,"Read","B","plush",NA,"R7",NA,NA,20,"Study","Rough","R7",2045,""
"5abe9da9a3ba7a0001b46a18",28,2,"Read","B","cotton",NA,"R8",NA,NA,21,"Study","Rough","R8",1912,""
"5abe9da9a3ba7a0001b46a18",29,2,"Read","B","skin",NA,"R9",NA,NA,22,"Study","Rough","R9",1861,""
"5abe9da9a3ba7a0001b46a18",30,2,"Read","B","fur",NA,"R10",NA,NA,23,"Study","Rough","R10",2086,""
"5abe9da9a3ba7a0001b46a18",31,2,"Read","B","touch",NA,"R11",NA,NA,24,"Study","Rough","R11",1521,""
"5abe9da9a3ba7a0001b46a18",32,2,"Read","B","furry",NA,"R12",NA,NA,25,"Study","Rough","R12",2182,""
"5abe9da9a3ba7a0001b46a18",37,2,"Read","B","",NA,"",NA,NA,0,"FreeRecall","","RECALL_Test",60001,"hush, furry, cotton"
"5abe9da9a3ba7a0001b46a18",39,2,"Read","B","honey",NA,"A1",NA,NA,26,"Study","Anger","A1",2033,""
"5abe9da9a3ba7a0001b46a18",40,2,"Read","B","bitter",NA,"A2",NA,NA,27,"Study","Anger","A2",2055,""
"5abe9da9a3ba7a0001b46a18",41,2,"Read","B","sugar",NA,"A3",NA,NA,28,"Study","Anger","A3",2338,""
"5abe9da9a3ba7a0001b46a18",42,2,"Read","B","sour",NA,"A4",NA,NA,29,"Study","Anger","A4",1919,""
"5abe9da9a3ba7a0001b46a18",43,2,"Read","B","candy",NA,"A5",NA,NA,30,"Study","Anger","A5",1936,""
"5abe9da9a3ba7a0001b46a18",44,2,"Read","B","tart",NA,"A6",NA,NA,31,"Study","Anger","A6",1958,""
"5abe9da9a3ba7a0001b46a18",45,2,"Read","B","chocolate",NA,"A7",NA,NA,32,"Study","Anger","A7",1998,""
"5abe9da9a3ba7a0001b46a18",46,2,"Read","B","nice",NA,"A8",NA,NA,33,"Study","Anger","A8",1936,""
"5abe9da9a3ba7a0001b46a18",47,2,"Read","B","taste",NA,"A9",NA,NA,34,"Study","Anger","A9",1776,""
"5abe9da9a3ba7a0001b46a18",48,2,"Read","B","cake",NA,"A10",NA,NA,35,"Study","Anger","A10",1941,""
"5abe9da9a3ba7a0001b46a18",49,2,"Read","B","good",NA,"A11",NA,NA,36,"Study","Anger","A11",1917,""
"5abe9da9a3ba7a0001b46a18",50,2,"Read","B","tooth",NA,"A12",NA,NA,37,"Study","Anger","A12",1786,""
"5abe9da9a3ba7a0001b46a18",55,2,"Read","B","",NA,"",NA,NA,0,"FreeRecall","","RECALL_Test",60005,"honey, sugar, cake, chocolate, cake, nice"
"5abe9da9a3ba7a0001b46a18",57,2,"Read","B","table",NA,"T1",NA,NA,38,"Study","Trash","T1",6706,""
"5abe9da9a3ba7a0001b46a18",58,2,"Read","B","swivel",NA,"T2",NA,NA,39,"Study","Trash","T2",2017,""
"5abe9da9a3ba7a0001b46a18",59,2,"Read","B","rocking",NA,"T3",NA,NA,40,"Study","Trash","T3",1991,""
"5abe9da9a3ba7a0001b46a18",60,2,"Read","B","recliner",NA,"T4",NA,NA,41,"Study","Trash","T4",1855,""
"5abe9da9a3ba7a0001b46a18",61,2,"Read","B","seat",NA,"T5",NA,NA,42,"Study","Trash","T5",1948,""
"5abe9da9a3ba7a0001b46a18",62,2,"Read","B","stool",NA,"T6",NA,NA,43,"Study","Trash","T6",3050,""
"5abe9da9a3ba7a0001b46a18",63,2,"Read","B","desk",NA,"T7",NA,NA,44,"Study","Trash","T7",1871,""
"5abe9da9a3ba7a0001b46a18",64,2,"Read","B","couch",NA,"T8",NA,NA,45,"Study","Trash","T8",1916,""
"5abe9da9a3ba7a0001b46a18",65,2,"Read","B","sit",NA,"T9",NA,NA,46,"Study","Trash","T9",2146,""
"5abe9da9a3ba7a0001b46a18",66,2,"Read","B","sofa",NA,"T10",NA,NA,47,"Study","Trash","T10",2103,""
"5abe9da9a3ba7a0001b46a18",67,2,"Read","B","bench",NA,"T11",NA,NA,48,"Study","Trash","T11",1858,""
"5abe9da9a3ba7a0001b46a18",68,2,"Read","B","sitting",NA,"T12",NA,NA,49,"Study","Trash","T12",1913,""
"5abe9da9a3ba7a0001b46a18",73,2,"Read","B","",NA,"",NA,NA,0,"FreeRecall","","RECALL_Test",60001,"stool, desk, couch, sofa, sitting, desk,stool"
"5abe9da9a3ba7a0001b46a18",75,2,"Read","B","climber",NA,"D1",NA,NA,50,"Study","Doctor","D1",3186,""
"5abe9da9a3ba7a0001b46a18",76,2,"Read","B","hill",NA,"D2",NA,NA,51,"Study","Doctor","D2",1999,""
"5abe9da9a3ba7a0001b46a18",77,2,"Read","B","climb",NA,"D3",NA,NA,52,"Study","Doctor","D3",1947,""
"5abe9da9a3ba7a0001b46a18",78,2,"Read","B","molehill",NA,"D4",NA,NA,53,"Study","Doctor","D4",1871,""
"5abe9da9a3ba7a0001b46a18",79,2,"Read","B","peak",NA,"D5",NA,NA,54,"Study","Doctor","D5",1947,""
"5abe9da9a3ba7a0001b46a18",80,2,"Read","B","valley",NA,"D6",NA,NA,55,"Study","Doctor","D6",1836,""
"5abe9da9a3ba7a0001b46a18",81,2,"Read","B","summit",NA,"D7",NA,NA,56,"Study","Doctor","D7",1959,""
"5abe9da9a3ba7a0001b46a18",82,2,"Read","B","steep",NA,"D8",NA,NA,57,"Study","Doctor","D8",2000,""
"5abe9da9a3ba7a0001b46a18",83,2,"Read","B","ski",NA,"D9",NA,NA,58,"Study","Doctor","D9",2074,""
"5abe9da9a3ba7a0001b46a18",84,2,"Read","B","bike",NA,"D10",NA,NA,59,"Study","Doctor","D10",1815,""
"5abe9da9a3ba7a0001b46a18",85,2,"Read","B","goat",NA,"D11",NA,NA,60,"Study","Doctor","D11",1314,""
"5abe9da9a3ba7a0001b46a18",86,2,"Read","B","glacier",NA,"D12",NA,NA,61,"Study","Doctor","D12",2022,""
"5abe9da9a3ba7a0001b46a18",91,2,"Read","B","",NA,"",NA,NA,0,"FreeRecall","","RECALL_Test",60006,"peak, hill, climber, glacier, peak, climb, peak district"
"5abe9da9a3ba7a0001b46a18",93,2,"Read","B","band",NA,"S1",NA,NA,62,"Study","Slow","S1",2139,""
"5abe9da9a3ba7a0001b46a18",94,2,"Read","B","concert",NA,"S2",NA,NA,63,"Study","Slow","S2",2031,""
"5abe9da9a3ba7a0001b46a18",95,2,"Read","B","jazz",NA,"S3",NA,NA,64,"Study","Slow","S3",1998,""
"5abe9da9a3ba7a0001b46a18",96,2,"Read","B","symphony",NA,"S4",NA,NA,65,"Study","Slow","S4",1909,""
"5abe9da9a3ba7a0001b46a18",97,2,"Read","B","orchestra",NA,"S5",NA,NA,66,"Study","Slow","S5",1773,""
"5abe9da9a3ba7a0001b46a18",98,2,"Read","B","rhythm",NA,"S6",NA,NA,67,"Study","Slow","S6",1812,""
"5abe9da9a3ba7a0001b46a18",99,2,"Read","B","radio",NA,"S7",NA,NA,68,"Study","Slow","S7",1906,""
"5abe9da9a3ba7a0001b46a18",100,2,"Read","B","melody",NA,"S8",NA,NA,69,"Study","Slow","S8",1319,""
"5abe9da9a3ba7a0001b46a18",101,2,"Read","B","piano",NA,"S9",NA,NA,70,"Study","Slow","S9",1889,""
"5abe9da9a3ba7a0001b46a18",102,2,"Read","B","sound",NA,"S10",NA,NA,71,"Study","Slow","S10",1904,""
"5abe9da9a3ba7a0001b46a18",103,2,"Read","B","instrument",NA,"S11",NA,NA,72,"Study","Slow","S11",1796,""
"5abe9da9a3ba7a0001b46a18",104,2,"Read","B","note",NA,"S12",NA,NA,73,"Study","Slow","S12",1447,""
"5abe9da9a3ba7a0001b46a18",109,2,"Read","B","",NA,"",NA,NA,0,"FreeRecall","","RECALL_Test",60005,"note, concert , jazz "
"5abe9da9a3ba7a0001b46a18",111,2,"Read","B","foam",NA,"RR1",NA,NA,74,"Study","River","RR1",3525,""
"5abe9da9a3ba7a0001b46a18",112,2,"Read","B","latex",NA,"RR2",NA,NA,75,"Study","River","RR2",1890,""
"5abe9da9a3ba7a0001b46a18",113,2,"Read","B","galoshes",NA,"RR3",NA,NA,76,"Study","River","RR3",1863,""
"5abe9da9a3ba7a0001b46a18",114,2,"Read","B","tire",NA,"RR4",NA,NA,77,"Study","River","RR4",2617,""
"5abe9da9a3ba7a0001b46a18",115,2,"Read","B","flexible",NA,"RR5",NA,NA,78,"Study","River","RR5",1835,""
"5abe9da9a3ba7a0001b46a18",116,2,"Read","B","elastic",NA,"RR6",NA,NA,79,"Study","River","RR6",1788,""
"5abe9da9a3ba7a0001b46a18",117,2,"Read","B","gloves",NA,"RR7",NA,NA,80,"Study","River","RR7",1878,""
"5abe9da9a3ba7a0001b46a18",118,2,"Read","B","eraser",NA,"RR8",NA,NA,81,"Study","River","RR8",2333,""
"5abe9da9a3ba7a0001b46a18",119,2,"Read","B","bounce",NA,"RR9",NA,NA,82,"Study","River","RR9",2107,""
"5abe9da9a3ba7a0001b46a18",120,2,"Read","B","ball",NA,"RR10",NA,NA,83,"Study","River","RR10",1952,""
"5abe9da9a3ba7a0001b46a18",121,2,"Read","B","soles",NA,"RR11",NA,NA,84,"Study","River","RR11",5340,""
"5abe9da9a3ba7a0001b46a18",122,2,"Read","B","springy",NA,"RR12",NA,NA,85,"Study","River","RR12",2386,""
"5abe9da9a3ba7a0001b46a18",127,2,"Read","B","",NA,"",NA,NA,0,"FreeRecall","","RECALL_Test",60002,"foam,latex ball, springy "
"5abe9da9a3ba7a0001b46a18",129,2,"Read","B","toe",NA,"B1",NA,NA,86,"Study","Bread","B1",1901,""
"5abe9da9a3ba7a0001b46a18",130,2,"Read","B","inch",NA,"B2",NA,NA,87,"Study","Bread","B2",2035,""
"5abe9da9a3ba7a0001b46a18",131,2,"Read","B","ankle",NA,"B3",NA,NA,88,"Study","Bread","B3",1901,""
"5abe9da9a3ba7a0001b46a18",132,2,"Read","B","shoe",NA,"B4",NA,NA,89,"Study","Bread","B4",1844,""
"5abe9da9a3ba7a0001b46a18",133,2,"Read","B","sandals",NA,"B5",NA,NA,90,"Study","Bread","B5",1989,""
"5abe9da9a3ba7a0001b46a18",134,2,"Read","B","sock",NA,"B6",NA,NA,91,"Study","Bread","B6",1892,""
"5abe9da9a3ba7a0001b46a18",135,2,"Read","B","hand",NA,"B7",NA,NA,92,"Study","Bread","B7",1941,""
"5abe9da9a3ba7a0001b46a18",136,2,"Read","B","boot",NA,"B8",NA,NA,93,"Study","Bread","B8",2020,""
"5abe9da9a3ba7a0001b46a18",137,2,"Read","B","yard",NA,"B9",NA,NA,94,"Study","Bread","B9",2524,""
"5abe9da9a3ba7a0001b46a18",138,2,"Read","B","kick",NA,"B10",NA,NA,95,"Study","Bread","B10",2124,""
"5abe9da9a3ba7a0001b46a18",139,2,"Read","B","knee",NA,"B11",NA,NA,96,"Study","Bread","B11",1908,""
"5abe9da9a3ba7a0001b46a18",140,2,"Read","B","walk",NA,"B12",NA,NA,97,"Study","Bread","B12",1825,""
"5abe9da9a3ba7a0001b46a18",145,2,"Read","B","",NA,"",NA,NA,0,"FreeRecall","","RECALL_Test",60006,"sock, hand, toe, walk"
"5abe9da9a3ba7a0001b46a18",147,2,"Read","B","boy",NA,"F1",NA,NA,98,"Study","Flag","F1",1872,""
"5abe9da9a3ba7a0001b46a18",148,2,"Read","B","dolls",NA,"F2",NA,NA,99,"Study","Flag","F2",1931,""
"5abe9da9a3ba7a0001b46a18",149,2,"Read","B","pretty",NA,"F3",NA,NA,100,"Study","Flag","F3",3108,""
"5abe9da9a3ba7a0001b46a18",150,2,"Read","B","female",NA,"F4",NA,NA,101,"Study","Flag","F4",3017,""
"5abe9da9a3ba7a0001b46a18",151,2,"Read","B","dress",NA,"F5",NA,NA,102,"Study","Flag","F5",2181,""
"5abe9da9a3ba7a0001b46a18",152,2,"Read","B","date",NA,"F6",NA,NA,103,"Study","Flag","F6",2050,""
"5abe9da9a3ba7a0001b46a18",153,2,"Read","B","beautiful",NA,"F7",NA,NA,104,"Study","Flag","F7",2668,""
"5abe9da9a3ba7a0001b46a18",154,2,"Read","B","daughter",NA,"F8",NA,NA,105,"Study","Flag","F8",1906,""
"5abe9da9a3ba7a0001b46a18",155,2,"Read","B","sister",NA,"F9",NA,NA,106,"Study","Flag","F9",1882,""
"5abe9da9a3ba7a0001b46a18",156,2,"Read","B","cute",NA,"F10",NA,NA,107,"Study","Flag","F10",1851,""
"5abe9da9a3ba7a0001b46a18",157,2,"Read","B","niece",NA,"F11",NA,NA,108,"Study","Flag","F11",1870,""
"5abe9da9a3ba7a0001b46a18",158,2,"Read","B","young",NA,"F12",NA,NA,109,"Study","Flag","F12",1945,""
"5abe9da9a3ba7a0001b46a18",163,2,"Read","B","",NA,"",NA,NA,0,"FreeRecall","","RECALL_Test",60002,"boys, dolls,pretty,nice,daughter,sister,young,female,cute"
"5abe9da9a3ba7a0001b46a18",165,2,"Read","B","white",NA,"SS1",NA,NA,110,"Study","Shirt","SS1",2402,""
"5abe9da9a3ba7a0001b46a18",166,2,"Read","B","gray",NA,"SS2",NA,NA,111,"Study","Shirt","SS2",2015,""
"5abe9da9a3ba7a0001b46a18",167,2,"Read","B","brown",NA,"SS3",NA,NA,112,"Study","Shirt","SS3",2083,""
"5abe9da9a3ba7a0001b46a18",168,2,"Read","B","coal",NA,"SS4",NA,NA,113,"Study","Shirt","SS4",1937,""
"5abe9da9a3ba7a0001b46a18",169,2,"Read","B","dark",NA,"SS5",NA,NA,114,"Study","Shirt","SS5",1637,""
"5abe9da9a3ba7a0001b46a18",170,2,"Read","B","color",NA,"SS6",NA,NA,115,"Study","Shirt","SS6",4392,""
"5abe9da9a3ba7a0001b46a18",171,2,"Read","B","funeral",NA,"SS7",NA,NA,116,"Study","Shirt","SS7",2228,""
"5abe9da9a3ba7a0001b46a18",172,2,"Read","B","blue",NA,"SS8",NA,NA,117,"Study","Shirt","SS8",1893,""
"5abe9da9a3ba7a0001b46a18",173,2,"Read","B","charred",NA,"SS9",NA,NA,118,"Study","Shirt","SS9",1914,""
"5abe9da9a3ba7a0001b46a18",174,2,"Read","B","ink",NA,"SS10",NA,NA,119,"Study","Shirt","SS10",2001,""
"5abe9da9a3ba7a0001b46a18",175,2,"Read","B","death",NA,"SS11",NA,NA,120,"Study","Shirt","SS11",2089,""
"5abe9da9a3ba7a0001b46a18",176,2,"Read","B","cat",NA,"SS12",NA,NA,121,"Study","Shirt","SS12",2090,""
"5abe9da9a3ba7a0001b46a18",181,2,"Read","B","",NA,"",NA,NA,0,"FreeRecall","","RECALL_Test",60004,"white,brown, grey,funeral, death, cat,blue"
"5b0d0beed282ff00015b9972",3,2,"Read","B","aroma",NA,"Win_1",NA,NA,2,"Study","Window","Win_1",3066,""
"5b0d0beed282ff00015b9972",4,2,"Read","B","scent",NA,"Win_2",NA,NA,3,"Study","Window","Win_2",2175,""
"5b0d0beed282ff00015b9972",5,2,"Read","B","whiff",NA,"Win_3",NA,NA,4,"Study","Window","Win_3",2182,""
"5b0d0beed282ff00015b9972",6,2,"Read","B","stench",NA,"Win_4",NA,NA,5,"Study","Window","Win_4",1818,""
"5b0d0beed282ff00015b9972",7,2,"Read","B","reek",NA,"Win_5",NA,NA,6,"Study","Window","Win_5",1870,""
"5b0d0beed282ff00015b9972",8,2,"Read","B","sniff",NA,"Win_6",NA,NA,7,"Study","Window","Win_6",1649,""
"5b0d0beed282ff00015b9972",9,2,"Read","B","perfume",NA,"Win_7",NA,NA,8,"Study","Window","Win_7",1682,""
"5b0d0beed282ff00015b9972",10,2,"Read","B","fragrance",NA,"Win_8",NA,NA,9,"Study","Window","Win_8",1702,""
"5b0d0beed282ff00015b9972",11,2,"Read","B","nose",NA,"Win_9",NA,NA,10,"Study","Window","Win_9",2390,""
"5b0d0beed282ff00015b9972",12,2,"Read","B","rose",NA,"Win_10",NA,NA,11,"Study","Window","Win_10",1657,""
"5b0d0beed282ff00015b9972",13,2,"Read","B","salts",NA,"Win_11",NA,NA,12,"Study","Window","Win_11",1832,""
"5b0d0beed282ff00015b9972",14,2,"Read","B","breathe",NA,"Win_12",NA,NA,13,"Study","Window","Win_12",2050,""
"5b0d0beed282ff00015b9972",19,2,"Read","B","",NA,"",NA,NA,0,"FreeRecall","","RECALL_Test",60011,"scent, aroma, stench, whiff, nose, salt, taste, "
"5b0d0beed282ff00015b9972",21,2,"Read","B","hard",NA,"R1",NA,NA,14,"Study","Rough","R1",3709,""
"5b0d0beed282ff00015b9972",22,2,"Read","B","loud",NA,"R2",NA,NA,15,"Study","Rough","R2",2248,""
"5b0d0beed282ff00015b9972",23,2,"Read","B","tender",NA,"R3",NA,NA,16,"Study","Rough","R3",2300,""
"5b0d0beed282ff00015b9972",24,2,"Read","B","fluffy",NA,"R4",NA,NA,17,"Study","Rough","R4",2178,""
"5b0d0beed282ff00015b9972",25,2,"Read","B","pillow",NA,"R5",NA,NA,18,"Study","Rough","R5",3464,""
"5b0d0beed282ff00015b9972",26,2,"Read","B","downy",NA,"R6",NA,NA,19,"Study","Rough","R6",2584,""
"5b0d0beed282ff00015b9972",27,2,"Read","B","plush",NA,"R7",NA,NA,20,"Study","Rough","R7",2481,""
"5b0d0beed282ff00015b9972",28,2,"Read","B","cotton",NA,"R8",NA,NA,21,"Study","Rough","R8",2328,""
"5b0d0beed282ff00015b9972",29,2,"Read","B","skin",NA,"R9",NA,NA,22,"Study","Rough","R9",1883,""
"5b0d0beed282ff00015b9972",30,2,"Read","B","fur",NA,"R10",NA,NA,23,"Study","Rough","R10",2600,""
"5b0d0beed282ff00015b9972",31,2,"Read","B","touch",NA,"R11",NA,NA,24,"Study","Rough","R11",3060,""
"5b0d0beed282ff00015b9972",32,2,"Read","B","furry",NA,"R12",NA,NA,25,"Study","Rough","R12",4917,""
"5b0d0beed282ff00015b9972",37,2,"Read","B","",NA,"",NA,NA,0,"FreeRecall","","RECALL_Test",60004,"loud, fluffy, hard, downy, cotton, touch, skin"
"5b0d0beed282ff00015b9972",39,2,"Read","B","honey",NA,"A1",NA,NA,26,"Study","Anger","A1",5072,""
"5b0d0beed282ff00015b9972",40,2,"Read","B","bitter",NA,"A2",NA,NA,27,"Study","Anger","A2",3725,""
"5b0d0beed282ff00015b9972",41,2,"Read","B","sugar",NA,"A3",NA,NA,28,"Study","Anger","A3",5479,""
"5b0d0beed282ff00015b9972",42,2,"Read","B","sour",NA,"A4",NA,NA,29,"Study","Anger","A4",2967,""
"5b0d0beed282ff00015b9972",43,2,"Read","B","candy",NA,"A5",NA,NA,30,"Study","Anger","A5",2670,""
"5b0d0beed282ff00015b9972",44,2,"Read","B","tart",NA,"A6",NA,NA,31,"Study","Anger","A6",2446,""
"5b0d0beed282ff00015b9972",45,2,"Read","B","chocolate",NA,"A7",NA,NA,32,"Study","Anger","A7",3517,""
"5b0d0beed282ff00015b9972",46,2,"Read","B","nice",NA,"A8",NA,NA,33,"Study","Anger","A8",2878,""
"5b0d0beed282ff00015b9972",47,2,"Read","B","taste",NA,"A9",NA,NA,34,"Study","Anger","A9",2214,""
"5b0d0beed282ff00015b9972",48,2,"Read","B","cake",NA,"A10",NA,NA,35,"Study","Anger","A10",1940,""
"5b0d0beed282ff00015b9972",49,2,"Read","B","good",NA,"A11",NA,NA,36,"Study","Anger","A11",2227,""
"5b0d0beed282ff00015b9972",50,2,"Read","B","tooth",NA,"A12",NA,NA,37,"Study","Anger","A12",2179,""
"5b0d0beed282ff00015b9972",55,2,"Read","B","",NA,"",NA,NA,0,"FreeRecall","","RECALL_Test",60166,"sour, candy, sugar, tooth, cake, good"
"5b0d0beed282ff00015b9972",57,2,"Read","B","table",NA,"T1",NA,NA,38,"Study","Trash","T1",2218,""
"5b0d0beed282ff00015b9972",58,2,"Read","B","swivel",NA,"T2",NA,NA,39,"Study","Trash","T2",2075,""
"5b0d0beed282ff00015b9972",59,2,"Read","B","rocking",NA,"T3",NA,NA,40,"Study","Trash","T3",2221,""
"5b0d0beed282ff00015b9972",60,2,"Read","B","recliner",NA,"T4",NA,NA,41,"Study","Trash","T4",1616,""
"5b0d0beed282ff00015b9972",61,2,"Read","B","seat",NA,"T5",NA,NA,42,"Study","Trash","T5",3941,""
"5b0d0beed282ff00015b9972",62,2,"Read","B","stool",NA,"T6",NA,NA,43,"Study","Trash","T6",2430,""
"5b0d0beed282ff00015b9972",63,2,"Read","B","desk",NA,"T7",NA,NA,44,"Study","Trash","T7",2079,""
"5b0d0beed282ff00015b9972",64,2,"Read","B","couch",NA,"T8",NA,NA,45,"Study","Trash","T8",3039,""
"5b0d0beed282ff00015b9972",65,2,"Read","B","sit",NA,"T9",NA,NA,46,"Study","Trash","T9",1908,""
"5b0d0beed282ff00015b9972",66,2,"Read","B","sofa",NA,"T10",NA,NA,47,"Study","Trash","T10",2972,""
"5b0d0beed282ff00015b9972",67,2,"Read","B","bench",NA,"T11",NA,NA,48,"Study","Trash","T11",1543,""
"5b0d0beed282ff00015b9972",68,2,"Read","B","sitting",NA,"T12",NA,NA,49,"Study","Trash","T12",2920,""
"5b0d0beed282ff00015b9972",73,2,"Read","B","",NA,"",NA,NA,0,"FreeRecall","","RECALL_Test",60004,"chair, seat, cushion, stool, sofa, pillow"
"5b0d0beed282ff00015b9972",75,2,"Read","B","climber",NA,"D1",NA,NA,50,"Study","Doctor","D1",11649,""
"5b0d0beed282ff00015b9972",76,2,"Read","B","hill",NA,"D2",NA,NA,51,"Study","Doctor","D2",2349,""
"5b0d0beed282ff00015b9972",77,2,"Read","B","climb",NA,"D3",NA,NA,52,"Study","Doctor","D3",2284,""
"5b0d0beed282ff00015b9972",78,2,"Read","B","molehill",NA,"D4",NA,NA,53,"Study","Doctor","D4",2498,""
"5b0d0beed282ff00015b9972",79,2,"Read","B","peak",NA,"D5",NA,NA,54,"Study","Doctor","D5",2524,""
"5b0d0beed282ff00015b9972",80,2,"Read","B","valley",NA,"D6",NA,NA,55,"Study","Doctor","D6",2213,""
"5b0d0beed282ff00015b9972",81,2,"Read","B","summit",NA,"D7",NA,NA,56,"Study","Doctor","D7",2134,""
"5b0d0beed282ff00015b9972",82,2,"Read","B","steep",NA,"D8",NA,NA,57,"Study","Doctor","D8",2306,""
"5b0d0beed282ff00015b9972",83,2,"Read","B","ski",NA,"D9",NA,NA,58,"Study","Doctor","D9",2400,""
"5b0d0beed282ff00015b9972",84,2,"Read","B","bike",NA,"D10",NA,NA,59,"Study","Doctor","D10",2472,""
"5b0d0beed282ff00015b9972",85,2,"Read","B","goat",NA,"D11",NA,NA,60,"Study","Doctor","D11",2321,""
"5b0d0beed282ff00015b9972",86,2,"Read","B","glacier",NA,"D12",NA,NA,61,"Study","Doctor","D12",2683,""
"5b0d0beed282ff00015b9972",91,2,"Read","B","",NA,"",NA,NA,0,"FreeRecall","","RECALL_Test",60016,"climb, climber, molehill, goat, peak, summit, ski"
"5b0d0beed282ff00015b9972",93,2,"Read","B","band",NA,"S1",NA,NA,62,"Study","Slow","S1",5311,""
"5b0d0beed282ff00015b9972",94,2,"Read","B","concert",NA,"S2",NA,NA,63,"Study","Slow","S2",4319,""
"5b0d0beed282ff00015b9972",95,2,"Read","B","jazz",NA,"S3",NA,NA,64,"Study","Slow","S3",2606,""
"5b0d0beed282ff00015b9972",96,2,"Read","B","symphony",NA,"S4",NA,NA,65,"Study","Slow","S4",3322,""
"5b0d0beed282ff00015b9972",97,2,"Read","B","orchestra",NA,"S5",NA,NA,66,"Study","Slow","S5",4039,""
"5b0d0beed282ff00015b9972",98,2,"Read","B","rhythm",NA,"S6",NA,NA,67,"Study","Slow","S6",3715,""
"5b0d0beed282ff00015b9972",99,2,"Read","B","radio",NA,"S7",NA,NA,68,"Study","Slow","S7",3624,""
"5b0d0beed282ff00015b9972",100,2,"Read","B","melody",NA,"S8",NA,NA,69,"Study","Slow","S8",2550,""
"5b0d0beed282ff00015b9972",101,2,"Read","B","piano",NA,"S9",NA,NA,70,"Study","Slow","S9",2279,""
"5b0d0beed282ff00015b9972",102,2,"Read","B","sound",NA,"S10",NA,NA,71,"Study","Slow","S10",2208,""
"5b0d0beed282ff00015b9972",103,2,"Read","B","instrument",NA,"S11",NA,NA,72,"Study","Slow","S11",1809,""
"5b0d0beed282ff00015b9972",104,2,"Read","B","note",NA,"S12",NA,NA,73,"Study","Slow","S12",2107,""
"5b0d0beed282ff00015b9972",109,2,"Read","B","",NA,"",NA,NA,0,"FreeRecall","","RECALL_Test",60441,"sound, piano, jazz, concert, radio, symphony, orchestra "
"5b0d0beed282ff00015b9972",111,2,"Read","B","foam",NA,"RR1",NA,NA,74,"Study","River","RR1",6524,""
"5b0d0beed282ff00015b9972",112,2,"Read","B","latex",NA,"RR2",NA,NA,75,"Study","River","RR2",2838,""
"5b0d0beed282ff00015b9972",113,2,"Read","B","galoshes",NA,"RR3",NA,NA,76,"Study","River","RR3",1927,""
"5b0d0beed282ff00015b9972",114,2,"Read","B","tire",NA,"RR4",NA,NA,77,"Study","River","RR4",2459,""
"5b0d0beed282ff00015b9972",115,2,"Read","B","flexible",NA,"RR5",NA,NA,78,"Study","River","RR5",2455,""
"5b0d0beed282ff00015b9972",116,2,"Read","B","elastic",NA,"RR6",NA,NA,79,"Study","River","RR6",2116,""
"5b0d0beed282ff00015b9972",117,2,"Read","B","gloves",NA,"RR7",NA,NA,80,"Study","River","RR7",2609,""
"5b0d0beed282ff00015b9972",118,2,"Read","B","eraser",NA,"RR8",NA,NA,81,"Study","River","RR8",2232,""
"5b0d0beed282ff00015b9972",119,2,"Read","B","bounce",NA,"RR9",NA,NA,82,"Study","River","RR9",2260,""
"5b0d0beed282ff00015b9972",120,2,"Read","B","ball",NA,"RR10",NA,NA,83,"Study","River","RR10",2326,""
"5b0d0beed282ff00015b9972",121,2,"Read","B","soles",NA,"RR11",NA,NA,84,"Study","River","RR11",1685,""
"5b0d0beed282ff00015b9972",122,2,"Read","B","springy",NA,"RR12",NA,NA,85,"Study","River","RR12",1760,""
"5b0d0beed282ff00015b9972",127,2,"Read","B","",NA,"",NA,NA,0,"FreeRecall","","RECALL_Test",60962,"bounce, foam, eraser, tire, elastic, flexible "
"5b0d0beed282ff00015b9972",129,2,"Read","B","toe",NA,"B1",NA,NA,86,"Study","Bread","B1",12986,""
"5b0d0beed282ff00015b9972",130,2,"Read","B","inch",NA,"B2",NA,NA,87,"Study","Bread","B2",1306,""
"5b0d0beed282ff00015b9972",131,2,"Read","B","ankle",NA,"B3",NA,NA,88,"Study","Bread","B3",3961,""
"5b0d0beed282ff00015b9972",132,2,"Read","B","shoe",NA,"B4",NA,NA,89,"Study","Bread","B4",8573,""
"5b0d0beed282ff00015b9972",133,2,"Read","B","sandals",NA,"B5",NA,NA,90,"Study","Bread","B5",3136,""
"5b0d0beed282ff00015b9972",134,2,"Read","B","sock",NA,"B6",NA,NA,91,"Study","Bread","B6",3357,""
"5b0d0beed282ff00015b9972",135,2,"Read","B","hand",NA,"B7",NA,NA,92,"Study","Bread","B7",2950,""
"5b0d0beed282ff00015b9972",136,2,"Read","B","boot",NA,"B8",NA,NA,93,"Study","Bread","B8",2299,""
"5b0d0beed282ff00015b9972",137,2,"Read","B","yard",NA,"B9",NA,NA,94,"Study","Bread","B9",2129,""
"5b0d0beed282ff00015b9972",138,2,"Read","B","kick",NA,"B10",NA,NA,95,"Study","Bread","B10",2241,""
"5b0d0beed282ff00015b9972",139,2,"Read","B","knee",NA,"B11",NA,NA,96,"Study","Bread","B11",2285,""
"5b0d0beed282ff00015b9972",140,2,"Read","B","walk",NA,"B12",NA,NA,97,"Study","Bread","B12",1814,""
"5b0d0beed282ff00015b9972",145,2,"Read","B","",NA,"",NA,NA,0,"FreeRecall","","RECALL_Test",60771,"toe, knee, sock, walk, shoe, hand, ankle"
"5b0d0beed282ff00015b9972",147,2,"Read","B","boy",NA,"F1",NA,NA,98,"Study","Flag","F1",1791,""
"5b0d0beed282ff00015b9972",148,2,"Read","B","dolls",NA,"F2",NA,NA,99,"Study","Flag","F2",1663,""
"5b0d0beed282ff00015b9972",149,2,"Read","B","pretty",NA,"F3",NA,NA,100,"Study","Flag","F3",1643,""
"5b0d0beed282ff00015b9972",150,2,"Read","B","female",NA,"F4",NA,NA,101,"Study","Flag","F4",1690,""
"5b0d0beed282ff00015b9972",151,2,"Read","B","dress",NA,"F5",NA,NA,102,"Study","Flag","F5",2162,""
"5b0d0beed282ff00015b9972",152,2,"Read","B","date",NA,"F6",NA,NA,103,"Study","Flag","F6",2177,""
"5b0d0beed282ff00015b9972",153,2,"Read","B","beautiful",NA,"F7",NA,NA,104,"Study","Flag","F7",1813,""
"5b0d0beed282ff00015b9972",154,2,"Read","B","daughter",NA,"F8",NA,NA,105,"Study","Flag","F8",3008,""
"5b0d0beed282ff00015b9972",155,2,"Read","B","sister",NA,"F9",NA,NA,106,"Study","Flag","F9",1845,""
"5b0d0beed282ff00015b9972",156,2,"Read","B","cute",NA,"F10",NA,NA,107,"Study","Flag","F10",1493,""
"5b0d0beed282ff00015b9972",157,2,"Read","B","niece",NA,"F11",NA,NA,108,"Study","Flag","F11",1499,""
"5b0d0beed282ff00015b9972",158,2,"Read","B","young",NA,"F12",NA,NA,109,"Study","Flag","F12",2644,""
"5b0d0beed282ff00015b9972",163,2,"Read","B","",NA,"",NA,NA,0,"FreeRecall","","RECALL_Test",60758,"boy, daughter, cute, young, date, sister"
"5b0d0beed282ff00015b9972",165,2,"Read","B","white",NA,"SS1",NA,NA,110,"Study","Shirt","SS1",1644,""
"5b0d0beed282ff00015b9972",166,2,"Read","B","gray",NA,"SS2",NA,NA,111,"Study","Shirt","SS2",1425,""
"5b0d0beed282ff00015b9972",167,2,"Read","B","brown",NA,"SS3",NA,NA,112,"Study","Shirt","SS3",1589,""
"5b0d0beed282ff00015b9972",168,2,"Read","B","coal",NA,"SS4",NA,NA,113,"Study","Shirt","SS4",1277,""
"5b0d0beed282ff00015b9972",169,2,"Read","B","dark",NA,"SS5",NA,NA,114,"Study","Shirt","SS5",1348,""
"5b0d0beed282ff00015b9972",170,2,"Read","B","color",NA,"SS6",NA,NA,115,"Study","Shirt","SS6",1536,""
"5b0d0beed282ff00015b9972",171,2,"Read","B","funeral",NA,"SS7",NA,NA,116,"Study","Shirt","SS7",1692,""
"5b0d0beed282ff00015b9972",172,2,"Read","B","blue",NA,"SS8",NA,NA,117,"Study","Shirt","SS8",1563,""
"5b0d0beed282ff00015b9972",173,2,"Read","B","charred",NA,"SS9",NA,NA,118,"Study","Shirt","SS9",1358,""
"5b0d0beed282ff00015b9972",174,2,"Read","B","ink",NA,"SS10",NA,NA,119,"Study","Shirt","SS10",1528,""
"5b0d0beed282ff00015b9972",175,2,"Read","B","death",NA,"SS11",NA,NA,120,"Study","Shirt","SS11",1306,""
"5b0d0beed282ff00015b9972",176,2,"Read","B","cat",NA,"SS12",NA,NA,121,"Study","Shirt","SS12",1598,""
"5b0d0beed282ff00015b9972",181,2,"Read","B","",NA,"",NA,NA,0,"FreeRecall","","RECALL_Test",60361,"cat, death, funeral, blue, white, gray, brown"
"5c3e18851580e9000122bdc9",3,1,"Read","A","pane",NA,"Win_1",NA,NA,2,"Study","Window","Win_1",2767,""
"5c3e18851580e9000122bdc9",4,1,"Read","A","sill",NA,"Win_2",NA,NA,3,"Study","Window","Win_2",2414,""
"5c3e18851580e9000122bdc9",5,1,"Read","A","shutter",NA,"Win_3",NA,NA,4,"Study","Window","Win_3",1729,""
"5c3e18851580e9000122bdc9",6,1,"Read","A","curtain",NA,"Win_4",NA,NA,5,"Study","Window","Win_4",1797,""
"5c3e18851580e9000122bdc9",7,1,"Read","A","door",NA,"Win_5",NA,NA,6,"Study","Window","Win_5",1771,""
"5c3e18851580e9000122bdc9",8,1,"Read","A","ledge",NA,"Win_6",NA,NA,7,"Study","Window","Win_6",1901,""
"5c3e18851580e9000122bdc9",9,1,"Read","A","glass",NA,"Win_7",NA,NA,8,"Study","Window","Win_7",2039,""
"5c3e18851580e9000122bdc9",10,1,"Read","A","view",NA,"Win_8",NA,NA,9,"Study","Window","Win_8",2001,""
"5c3e18851580e9000122bdc9",11,1,"Read","A","screen",NA,"Win_9",NA,NA,10,"Study","Window","Win_9",1961,""
"5c3e18851580e9000122bdc9",12,1,"Read","A","shade",NA,"Win_10",NA,NA,11,"Study","Window","Win_10",2070,""
"5c3e18851580e9000122bdc9",13,1,"Read","A","open",NA,"Win_11",NA,NA,12,"Study","Window","Win_11",3032,""
"5c3e18851580e9000122bdc9",14,1,"Read","A","frame",NA,"Win_12",NA,NA,13,"Study","Window","Win_12",2766,""
"5c3e18851580e9000122bdc9",19,1,"Read","A","",NA,"",NA,NA,0,"FreeRecall","","RECALL_Test",60001,"pane, door, frame, window, glass, open"
"5c3e18851580e9000122bdc9",21,1,"Read","A","sandpaper",NA,"R1",NA,NA,14,"Study","Rough","R1",2111,""
"5c3e18851580e9000122bdc9",22,1,"Read","A","smooth",NA,"R2",NA,NA,15,"Study","Rough","R2",2162,""
"5c3e18851580e9000122bdc9",23,1,"Read","A","coarse",NA,"R3",NA,NA,16,"Study","Rough","R3",1821,""
"5c3e18851580e9000122bdc9",24,1,"Read","A","tough",NA,"R4",NA,NA,17,"Study","Rough","R4",1783,""
"5c3e18851580e9000122bdc9",25,1,"Read","A","rugged",NA,"R5",NA,NA,18,"Study","Rough","R5",2159,""
"5c3e18851580e9000122bdc9",26,1,"Read","A","bumpy",NA,"R6",NA,NA,19,"Study","Rough","R6",2006,""
"5c3e18851580e9000122bdc9",27,1,"Read","A","jagged",NA,"R7",NA,NA,20,"Study","Rough","R7",2000,""
"5c3e18851580e9000122bdc9",28,1,"Read","A","riders",NA,"R8",NA,NA,21,"Study","Rough","R8",2230,""
"5c3e18851580e9000122bdc9",29,1,"Read","A","uneven",NA,"R9",NA,NA,22,"Study","Rough","R9",1820,""
"5c3e18851580e9000122bdc9",30,1,"Read","A","road",NA,"R10",NA,NA,23,"Study","Rough","R10",1997,""
"5c3e18851580e9000122bdc9",31,1,"Read","A","ready",NA,"R11",NA,NA,24,"Study","Rough","R11",2071,""
"5c3e18851580e9000122bdc9",32,1,"Read","A","sand",NA,"R12",NA,NA,25,"Study","Rough","R12",1944,""
"5c3e18851580e9000122bdc9",37,1,"Read","A","",NA,"",NA,NA,0,"FreeRecall","","RECALL_Test",60001,"sand, sandpaper, coarse, smooth, rider, rough"
"5c3e18851580e9000122bdc9",39,1,"Read","A","rage",NA,"A1",NA,NA,26,"Study","Anger","A1",2381,""
"5c3e18851580e9000122bdc9",40,1,"Read","A","mad",NA,"A2",NA,NA,27,"Study","Anger","A2",4131,""
"5c3e18851580e9000122bdc9",41,1,"Read","A","enrage",NA,"A3",NA,NA,28,"Study","Anger","A3",3315,""
"5c3e18851580e9000122bdc9",42,1,"Read","A","fury",NA,"A4",NA,NA,29,"Study","Anger","A4",6295,""
"5c3e18851580e9000122bdc9",43,1,"Read","A","temper",NA,"A5",NA,NA,30,"Study","Anger","A5",3159,""
"5c3e18851580e9000122bdc9",44,1,"Read","A","ire",NA,"A6",NA,NA,31,"Study","Anger","A6",4022,""
"5c3e18851580e9000122bdc9",45,1,"Read","A","wrath",NA,"A7",NA,NA,32,"Study","Anger","A7",6657,""
"5c3e18851580e9000122bdc9",46,1,"Read","A","mean",NA,"A8",NA,NA,33,"Study","Anger","A8",3348,""
"5c3e18851580e9000122bdc9",47,1,"Read","A","hatred",NA,"A9",NA,NA,34,"Study","Anger","A9",2497,""
"5c3e18851580e9000122bdc9",48,1,"Read","A","fight",NA,"A10",NA,NA,35,"Study","Anger","A10",1811,""
"5c3e18851580e9000122bdc9",49,1,"Read","A","hate",NA,"A11",NA,NA,36,"Study","Anger","A11",4615,""
"5c3e18851580e9000122bdc9",50,1,"Read","A","fear",NA,"A12",NA,NA,37,"Study","Anger","A12",1860,""
"5c3e18851580e9000122bdc9",55,1,"Read","A","",NA,"",NA,NA,0,"FreeRecall","","RECALL_Test",60004,"mad, rage, enraged, temper, ire, wrath, mean, anger"
"5c3e18851580e9000122bdc9",57,1,"Read","A","garbage",NA,"T1",NA,NA,38,"Study","Trash","T1",2019,""
"5c3e18851580e9000122bdc9",58,1,"Read","A","rubbish",NA,"T2",NA,NA,39,"Study","Trash","T2",2074,""
"5c3e18851580e9000122bdc9",59,1,"Read","A","debris",NA,"T3",NA,NA,40,"Study","Trash","T3",2164,""
"5c3e18851580e9000122bdc9",60,1,"Read","A","dump",NA,"T4",NA,NA,41,"Study","Trash","T4",2516,""
"5c3e18851580e9000122bdc9",61,1,"Read","A","litter",NA,"T5",NA,NA,42,"Study","Trash","T5",6633,""
"5c3e18851580e9000122bdc9",62,1,"Read","A","landfill",NA,"T6",NA,NA,43,"Study","Trash","T6",5711,""
"5c3e18851580e9000122bdc9",63,1,"Read","A","junk",NA,"T7",NA,NA,44,"Study","Trash","T7",7370,""
"5c3e18851580e9000122bdc9",64,1,"Read","A","waste",NA,"T8",NA,NA,45,"Study","Trash","T8",3499,""
"5c3e18851580e9000122bdc9",65,1,"Read","A","sewage",NA,"T9",NA,NA,46,"Study","Trash","T9",2766,""
"5c3e18851580e9000122bdc9",66,1,"Read","A","pile",NA,"T10",NA,NA,47,"Study","Trash","T10",1690,""
"5c3e18851580e9000122bdc9",67,1,"Read","A","scraps",NA,"T11",NA,NA,48,"Study","Trash","T11",2448,""
"5c3e18851580e9000122bdc9",68,1,"Read","A","refuse",NA,"T12",NA,NA,49,"Study","Trash","T12",2496,""
"5c3e18851580e9000122bdc9",73,1,"Read","A","",NA,"",NA,NA,0,"FreeRecall","","RECALL_Test",60002,"junk, waste, sewage, debris, pile, litter, refuse, garbage, dump"
"5c3e18851580e9000122bdc9",75,1,"Read","A","physician",NA,"D1",NA,NA,50,"Study","Doctor","D1",6793,""
"5c3e18851580e9000122bdc9",76,1,"Read","A","nurse",NA,"D2",NA,NA,51,"Study","Doctor","D2",5398,""
"5c3e18851580e9000122bdc9",77,1,"Read","A","stethoscope",NA,"D3",NA,NA,52,"Study","Doctor","D3",8341,""
"5c3e18851580e9000122bdc9",78,1,"Read","A","surgeon",NA,"D4",NA,NA,53,"Study","Doctor","D4",7417,""
"5c3e18851580e9000122bdc9",79,1,"Read","A","patient",NA,"D5",NA,NA,54,"Study","Doctor","D5",16018,""
"5c3e18851580e9000122bdc9",80,1,"Read","A","clinic",NA,"D6",NA,NA,55,"Study","Doctor","D6",18007,""
"5c3e18851580e9000122bdc9",81,1,"Read","A","dentist",NA,"D7",NA,NA,56,"Study","Doctor","D7",8009,""
"5c3e18851580e9000122bdc9",82,1,"Read","A","medicine",NA,"D8",NA,NA,57,"Study","Doctor","D8",8618,""
"5c3e18851580e9000122bdc9",83,1,"Read","A","lawyer",NA,"D9",NA,NA,58,"Study","Doctor","D9",2282,""
"5c3e18851580e9000122bdc9",84,1,"Read","A","health",NA,"D10",NA,NA,59,"Study","Doctor","D10",1807,""
"5c3e18851580e9000122bdc9",85,1,"Read","A","sick",NA,"D11",NA,NA,60,"Study","Doctor","D11",1853,""
"5c3e18851580e9000122bdc9",86,1,"Read","A","cure",NA,"D12",NA,NA,61,"Study","Doctor","D12",2493,""
"5c3e18851580e9000122bdc9",91,1,"Read","A","",NA,"",NA,NA,0,"FreeRecall","","RECALL_Test",60003,"sick, lawyer, dentist, surgeon, physician, stethoscope, clinic, patient, medicine"
"5c3e18851580e9000122bdc9",93,1,"Read","A","fast",NA,"S1",NA,NA,62,"Study","Slow","S1",1894,""
"5c3e18851580e9000122bdc9",94,1,"Read","A","snail",NA,"S2",NA,NA,63,"Study","Slow","S2",1975,""
"5c3e18851580e9000122bdc9",95,1,"Read","A","turtle",NA,"S3",NA,NA,64,"Study","Slow","S3",2532,""
"5c3e18851580e9000122bdc9",96,1,"Read","A","sluggish",NA,"S4",NA,NA,65,"Study","Slow","S4",5106,""
"5c3e18851580e9000122bdc9",97,1,"Read","A","quick",NA,"S5",NA,NA,66,"Study","Slow","S5",3762,""
"5c3e18851580e9000122bdc9",98,1,"Read","A","molasses",NA,"S6",NA,NA,67,"Study","Slow","S6",9302,""
"5c3e18851580e9000122bdc9",99,1,"Read","A","lethargic",NA,"S7",NA,NA,68,"Study","Slow","S7",2428,""
"5c3e18851580e9000122bdc9",100,1,"Read","A","speed",NA,"S8",NA,NA,69,"Study","Slow","S8",2862,""
"5c3e18851580e9000122bdc9",101,1,"Read","A","delay",NA,"S9",NA,NA,70,"Study","Slow","S9",3044,""
"5c3e18851580e9000122bdc9",102,1,"Read","A","hesitant",NA,"S10",NA,NA,71,"Study","Slow","S10",2288,""
"5c3e18851580e9000122bdc9",103,1,"Read","A","cautious",NA,"S11",NA,NA,72,"Study","Slow","S11",1899,""
"5c3e18851580e9000122bdc9",104,1,"Read","A","traffic",NA,"S12",NA,NA,73,"Study","Slow","S12",2581,""
"5c3e18851580e9000122bdc9",109,1,"Read","A","",NA,"",NA,NA,0,"FreeRecall","","RECALL_Test",60018,"fast, speed, quick, sluggish, molasses, snail, turtle, caution, delay"
"5c3e18851580e9000122bdc9",111,1,"Read","A","mississippi",NA,"RR1",NA,NA,74,"Study","River","RR1",1900,""
"5c3e18851580e9000122bdc9",112,1,"Read","A","creek",NA,"RR2",NA,NA,75,"Study","River","RR2",2107,""
"5c3e18851580e9000122bdc9",113,1,"Read","A","stream",NA,"RR3",NA,NA,76,"Study","River","RR3",3195,""
"5c3e18851580e9000122bdc9",114,1,"Read","A","flow",NA,"RR4",NA,NA,77,"Study","River","RR4",5534,""
"5c3e18851580e9000122bdc9",115,1,"Read","A","bridge",NA,"RR5",NA,NA,78,"Study","River","RR5",4433,""
"5c3e18851580e9000122bdc9",116,1,"Read","A","brook",NA,"RR6",NA,NA,79,"Study","River","RR6",5472,""
"5c3e18851580e9000122bdc9",117,1,"Read","A","lake",NA,"RR7",NA,NA,80,"Study","River","RR7",3573,""
"5c3e18851580e9000122bdc9",118,1,"Read","A","barge",NA,"RR8",NA,NA,81,"Study","River","RR8",10263,""
"5c3e18851580e9000122bdc9",119,1,"Read","A","water",NA,"RR9",NA,NA,82,"Study","River","RR9",1815,""
"5c3e18851580e9000122bdc9",120,1,"Read","A","boat",NA,"RR10",NA,NA,83,"Study","River","RR10",1939,""
"5c3e18851580e9000122bdc9",121,1,"Read","A","tide",NA,"RR11",NA,NA,84,"Study","River","RR11",2784,""
"5c3e18851580e9000122bdc9",122,1,"Read","A","swim",NA,"RR12",NA,NA,85,"Study","River","RR12",3730,""
"5c3e18851580e9000122bdc9",127,1,"Read","A","",NA,"",NA,NA,0,"FreeRecall","","RECALL_Test",60002,"barge, water, tide, swim, bridge, brook, mississippi, creek, stream, flow"
"5c3e18851580e9000122bdc9",129,1,"Read","A","rye",NA,"B1",NA,NA,86,"Study","Bread","B1",13771,""
"5c3e18851580e9000122bdc9",130,1,"Read","A","loaf",NA,"B2",NA,NA,87,"Study","Bread","B2",5348,""
"5c3e18851580e9000122bdc9",131,1,"Read","A","butter",NA,"B3",NA,NA,88,"Study","Bread","B3",11067,""
"5c3e18851580e9000122bdc9",132,1,"Read","A","toast",NA,"B4",NA,NA,89,"Study","Bread","B4",6129,""
"5c3e18851580e9000122bdc9",133,1,"Read","A","dough",NA,"B5",NA,NA,90,"Study","Bread","B5",3935,""
"5c3e18851580e9000122bdc9",134,1,"Read","A","crust",NA,"B6",NA,NA,91,"Study","Bread","B6",6151,""
"5c3e18851580e9000122bdc9",135,1,"Read","A","flour",NA,"B7",NA,NA,92,"Study","Bread","B7",3025,""
"5c3e18851580e9000122bdc9",136,1,"Read","A","sandwich",NA,"B8",NA,NA,93,"Study","Bread","B8",2524,""
"5c3e18851580e9000122bdc9",137,1,"Read","A","jam",NA,"B9",NA,NA,94,"Study","Bread","B9",3102,""
"5c3e18851580e9000122bdc9",138,1,"Read","A","jelly",NA,"B10",NA,NA,95,"Study","Bread","B10",2014,""
"5c3e18851580e9000122bdc9",139,1,"Read","A","slice",NA,"B11",NA,NA,96,"Study","Bread","B11",1819,""
"5c3e18851580e9000122bdc9",140,1,"Read","A","milk",NA,"B12",NA,NA,97,"Study","Bread","B12",1889,""
"5c3e18851580e9000122bdc9",145,1,"Read","A","",NA,"",NA,NA,0,"FreeRecall","","RECALL_Test",60001,"rye, toast, loaf, jam, jelly, milk, dough, flour, slice"
"5c3e18851580e9000122bdc9",147,1,"Read","A","banner",NA,"F1",NA,NA,98,"Study","Flag","F1",3470,""
"5c3e18851580e9000122bdc9",148,1,"Read","A","checkered",NA,"F2",NA,NA,99,"Study","Flag","F2",2816,""
"5c3e18851580e9000122bdc9",149,1,"Read","A","american",NA,"F3",NA,NA,100,"Study","Flag","F3",2167,""
"5c3e18851580e9000122bdc9",150,1,"Read","A","stripes",NA,"F4",NA,NA,101,"Study","Flag","F4",7182,""
"5c3e18851580e9000122bdc9",151,1,"Read","A","pole",NA,"F5",NA,NA,102,"Study","Flag","F5",3957,""
"5c3e18851580e9000122bdc9",152,1,"Read","A","anthem",NA,"F6",NA,NA,103,"Study","Flag","F6",4473,""
"5c3e18851580e9000122bdc9",153,1,"Read","A","emblem",NA,"F7",NA,NA,104,"Study","Flag","F7",7269,""
"5c3e18851580e9000122bdc9",154,1,"Read","A","national",NA,"F8",NA,NA,105,"Study","Flag","F8",7069,""
"5c3e18851580e9000122bdc9",155,1,"Read","A","freedom",NA,"F9",NA,NA,106,"Study","Flag","F9",2467,""
"5c3e18851580e9000122bdc9",156,1,"Read","A","symbol",NA,"F10",NA,NA,107,"Study","Flag","F10",2206,""
"5c3e18851580e9000122bdc9",157,1,"Read","A","wave",NA,"F11",NA,NA,108,"Study","Flag","F11",3954,""
"5c3e18851580e9000122bdc9",158,1,"Read","A","stars",NA,"F12",NA,NA,109,"Study","Flag","F12",2035,""
"5c3e18851580e9000122bdc9",163,1,"Read","A","",NA,"",NA,NA,0,"FreeRecall","","RECALL_Test",60003,"american, stripes, checkered, pole, anthem, national, emblem, stars"
"5c3e18851580e9000122bdc9",165,1,"Read","A","blouse",NA,"SS1",NA,NA,110,"Study","Shirt","SS1",1867,""
"5c3e18851580e9000122bdc9",166,1,"Read","A","sleeves",NA,"SS2",NA,NA,111,"Study","Shirt","SS2",2450,""
"5c3e18851580e9000122bdc9",167,1,"Read","A","collar",NA,"SS3",NA,NA,112,"Study","Shirt","SS3",2040,""
"5c3e18851580e9000122bdc9",168,1,"Read","A","shorts",NA,"SS4",NA,NA,113,"Study","Shirt","SS4",4656,""
"5c3e18851580e9000122bdc9",169,1,"Read","A","button",NA,"SS5",NA,NA,114,"Study","Shirt","SS5",4098,""
"5c3e18851580e9000122bdc9",170,1,"Read","A","pants",NA,"SS6",NA,NA,115,"Study","Shirt","SS6",19112,""
"5c3e18851580e9000122bdc9",171,1,"Read","A","polo",NA,"SS7",NA,NA,116,"Study","Shirt","SS7",1687,""
"5c3e18851580e9000122bdc9",172,1,"Read","A","jersey",NA,"SS8",NA,NA,117,"Study","Shirt","SS8",1724,""
"5c3e18851580e9000122bdc9",173,1,"Read","A","vest",NA,"SS9",NA,NA,118,"Study","Shirt","SS9",1784,""
"5c3e18851580e9000122bdc9",174,1,"Read","A","cuffs",NA,"SS10",NA,NA,119,"Study","Shirt","SS10",1593,""
"5c3e18851580e9000122bdc9",175,1,"Read","A","tie",NA,"SS11",NA,NA,120,"Study","Shirt","SS11",1665,""
"5c3e18851580e9000122bdc9",176,1,"Read","A","pocket",NA,"SS12",NA,NA,121,"Study","Shirt","SS12",2220,""
"5c3e18851580e9000122bdc9",181,1,"Read","A","",NA,"",NA,NA,0,"FreeRecall","","RECALL_Test",60003,"polo, cuffs, shirt, shorts, blouse, pants, buttons, collar"
"5c617b872026f300018082d1",3,1,"Read","A","pane",NA,"Win_1",NA,NA,2,"Study","Window","Win_1",3582,""
"5c617b872026f300018082d1",4,1,"Read","A","sill",NA,"Win_2",NA,NA,3,"Study","Window","Win_2",4965,""
"5c617b872026f300018082d1",5,1,"Read","A","shutter",NA,"Win_3",NA,NA,4,"Study","Window","Win_3",2357,""
"5c617b872026f300018082d1",6,1,"Read","A","curtain",NA,"Win_4",NA,NA,5,"Study","Window","Win_4",2423,""
"5c617b872026f300018082d1",7,1,"Read","A","door",NA,"Win_5",NA,NA,6,"Study","Window","Win_5",2297,""
"5c617b872026f300018082d1",8,1,"Read","A","ledge",NA,"Win_6",NA,NA,7,"Study","Window","Win_6",2545,""
"5c617b872026f300018082d1",9,1,"Read","A","glass",NA,"Win_7",NA,NA,8,"Study","Window","Win_7",2942,""
"5c617b872026f300018082d1",10,1,"Read","A","view",NA,"Win_8",NA,NA,9,"Study","Window","Win_8",2184,""
"5c617b872026f300018082d1",11,1,"Read","A","screen",NA,"Win_9",NA,NA,10,"Study","Window","Win_9",2339,""
"5c617b872026f300018082d1",12,1,"Read","A","shade",NA,"Win_10",NA,NA,11,"Study","Window","Win_10",3429,""
"5c617b872026f300018082d1",13,1,"Read","A","open",NA,"Win_11",NA,NA,12,"Study","Window","Win_11",2580,""
"5c617b872026f300018082d1",14,1,"Read","A","frame",NA,"Win_12",NA,NA,13,"Study","Window","Win_12",3336,""
"5c617b872026f300018082d1",19,1,"Read","A","",NA,"",NA,NA,0,"FreeRecall","","RECALL_Test",60012,"Window, pane, sill, ledge, shutter, door, open, frame, glass"
"5c617b872026f300018082d1",21,1,"Read","A","sandpaper",NA,"R1",NA,NA,14,"Study","Rough","R1",3606,""
"5c617b872026f300018082d1",22,1,"Read","A","smooth",NA,"R2",NA,NA,15,"Study","Rough","R2",2275,""
"5c617b872026f300018082d1",23,1,"Read","A","coarse",NA,"R3",NA,NA,16,"Study","Rough","R3",2422,""
"5c617b872026f300018082d1",24,1,"Read","A","tough",NA,"R4",NA,NA,17,"Study","Rough","R4",2205,""
"5c617b872026f300018082d1",25,1,"Read","A","rugged",NA,"R5",NA,NA,18,"Study","Rough","R5",2708,""
"5c617b872026f300018082d1",26,1,"Read","A","bumpy",NA,"R6",NA,NA,19,"Study","Rough","R6",2129,""
"5c617b872026f300018082d1",27,1,"Read","A","jagged",NA,"R7",NA,NA,20,"Study","Rough","R7",3160,""
"5c617b872026f300018082d1",28,1,"Read","A","riders",NA,"R8",NA,NA,21,"Study","Rough","R8",2515,""
"5c617b872026f300018082d1",29,1,"Read","A","uneven",NA,"R9",NA,NA,22,"Study","Rough","R9",2439,""
"5c617b872026f300018082d1",30,1,"Read","A","road",NA,"R10",NA,NA,23,"Study","Rough","R10",1993,""
"5c617b872026f300018082d1",31,1,"Read","A","ready",NA,"R11",NA,NA,24,"Study","Rough","R11",2594,""
"5c617b872026f300018082d1",32,1,"Read","A","sand",NA,"R12",NA,NA,25,"Study","Rough","R12",2101,""
"5c617b872026f300018082d1",37,1,"Read","A","",NA,"",NA,NA,0,"FreeRecall","","RECALL_Test",60012,"Sandpaper, sand, smooth, rough, coarse, bumpy, jagged"
"5c617b872026f300018082d1",39,1,"Read","A","rage",NA,"A1",NA,NA,26,"Study","Anger","A1",2443,""
"5c617b872026f300018082d1",40,1,"Read","A","mad",NA,"A2",NA,NA,27,"Study","Anger","A2",1992,""
"5c617b872026f300018082d1",41,1,"Read","A","enrage",NA,"A3",NA,NA,28,"Study","Anger","A3",2908,""
"5c617b872026f300018082d1",42,1,"Read","A","fury",NA,"A4",NA,NA,29,"Study","Anger","A4",3053,""
"5c617b872026f300018082d1",43,1,"Read","A","temper",NA,"A5",NA,NA,30,"Study","Anger","A5",2696,""
"5c617b872026f300018082d1",44,1,"Read","A","ire",NA,"A6",NA,NA,31,"Study","Anger","A6",2122,""
"5c617b872026f300018082d1",45,1,"Read","A","wrath",NA,"A7",NA,NA,32,"Study","Anger","A7",1879,""
"5c617b872026f300018082d1",46,1,"Read","A","mean",NA,"A8",NA,NA,33,"Study","Anger","A8",1724,""
"5c617b872026f300018082d1",47,1,"Read","A","hatred",NA,"A9",NA,NA,34,"Study","Anger","A9",1712,""
"5c617b872026f300018082d1",48,1,"Read","A","fight",NA,"A10",NA,NA,35,"Study","Anger","A10",1651,""
"5c617b872026f300018082d1",49,1,"Read","A","hate",NA,"A11",NA,NA,36,"Study","Anger","A11",2094,""
"5c617b872026f300018082d1",50,1,"Read","A","fear",NA,"A12",NA,NA,37,"Study","Anger","A12",2628,""
"5c617b872026f300018082d1",55,1,"Read","A","",NA,"",NA,NA,0,"FreeRecall","","RECALL_Test",60004,"Angry, rage, mad, enrage, fury, temper"
"5c617b872026f300018082d1",57,1,"Read","A","garbage",NA,"T1",NA,NA,38,"Study","Trash","T1",2767,""
"5c617b872026f300018082d1",58,1,"Read","A","rubbish",NA,"T2",NA,NA,39,"Study","Trash","T2",2240,""
"5c617b872026f300018082d1",59,1,"Read","A","debris",NA,"T3",NA,NA,40,"Study","Trash","T3",1968,""
"5c617b872026f300018082d1",60,1,"Read","A","dump",NA,"T4",NA,NA,41,"Study","Trash","T4",1651,""
"5c617b872026f300018082d1",61,1,"Read","A","litter",NA,"T5",NA,NA,42,"Study","Trash","T5",1850,""
"5c617b872026f300018082d1",62,1,"Read","A","landfill",NA,"T6",NA,NA,43,"Study","Trash","T6",1787,""
"5c617b872026f300018082d1",63,1,"Read","A","junk",NA,"T7",NA,NA,44,"Study","Trash","T7",1640,""
"5c617b872026f300018082d1",64,1,"Read","A","waste",NA,"T8",NA,NA,45,"Study","Trash","T8",1907,""
"5c617b872026f300018082d1",65,1,"Read","A","sewage",NA,"T9",NA,NA,46,"Study","Trash","T9",1635,""
"5c617b872026f300018082d1",66,1,"Read","A","pile",NA,"T10",NA,NA,47,"Study","Trash","T10",1589,""
"5c617b872026f300018082d1",67,1,"Read","A","scraps",NA,"T11",NA,NA,48,"Study","Trash","T11",1603,""
"5c617b872026f300018082d1",68,1,"Read","A","refuse",NA,"T12",NA,NA,49,"Study","Trash","T12",1534,""
"5c617b872026f300018082d1",73,1,"Read","A","",NA,"",NA,NA,0,"FreeRecall","","RECALL_Test",60014,"Garbage, rubbish, dump, trash, landfill, debris, waste"
"5c617b872026f300018082d1",75,1,"Read","A","physician",NA,"D1",NA,NA,50,"Study","Doctor","D1",2656,""
"5c617b872026f300018082d1",76,1,"Read","A","nurse",NA,"D2",NA,NA,51,"Study","Doctor","D2",2159,""
"5c617b872026f300018082d1",77,1,"Read","A","stethoscope",NA,"D3",NA,NA,52,"Study","Doctor","D3",1657,""
"5c617b872026f300018082d1",78,1,"Read","A","surgeon",NA,"D4",NA,NA,53,"Study","Doctor","D4",1608,""
"5c617b872026f300018082d1",79,1,"Read","A","patient",NA,"D5",NA,NA,54,"Study","Doctor","D5",1707,""
"5c617b872026f300018082d1",80,1,"Read","A","clinic",NA,"D6",NA,NA,55,"Study","Doctor","D6",1569,""
"5c617b872026f300018082d1",81,1,"Read","A","dentist",NA,"D7",NA,NA,56,"Study","Doctor","D7",1610,""
"5c617b872026f300018082d1",82,1,"Read","A","medicine",NA,"D8",NA,NA,57,"Study","Doctor","D8",1623,""
"5c617b872026f300018082d1",83,1,"Read","A","lawyer",NA,"D9",NA,NA,58,"Study","Doctor","D9",1602,""
"5c617b872026f300018082d1",84,1,"Read","A","health",NA,"D10",NA,NA,59,"Study","Doctor","D10",1709,""
"5c617b872026f300018082d1",85,1,"Read","A","sick",NA,"D11",NA,NA,60,"Study","Doctor","D11",1670,""
"5c617b872026f300018082d1",86,1,"Read","A","cure",NA,"D12",NA,NA,61,"Study","Doctor","D12",1600,""
"5c617b872026f300018082d1",91,1,"Read","A","",NA,"",NA,NA,0,"FreeRecall","","RECALL_Test",60015,"Dentist, nurse, physician, surgeon, stethoscope, clinic, lawyer, sick"
"5c617b872026f300018082d1",93,1,"Read","A","fast",NA,"S1",NA,NA,62,"Study","Slow","S1",3402,""
"5c617b872026f300018082d1",94,1,"Read","A","snail",NA,"S2",NA,NA,63,"Study","Slow","S2",1657,""
"5c617b872026f300018082d1",95,1,"Read","A","turtle",NA,"S3",NA,NA,64,"Study","Slow","S3",2184,""
"5c617b872026f300018082d1",96,1,"Read","A","sluggish",NA,"S4",NA,NA,65,"Study","Slow","S4",1615,""
"5c617b872026f300018082d1",97,1,"Read","A","quick",NA,"S5",NA,NA,66,"Study","Slow","S5",1618,""
"5c617b872026f300018082d1",98,1,"Read","A","molasses",NA,"S6",NA,NA,67,"Study","Slow","S6",1880,""
"5c617b872026f300018082d1",99,1,"Read","A","lethargic",NA,"S7",NA,NA,68,"Study","Slow","S7",1657,""
"5c617b872026f300018082d1",100,1,"Read","A","speed",NA,"S8",NA,NA,69,"Study","Slow","S8",1787,""
"5c617b872026f300018082d1",101,1,"Read","A","delay",NA,"S9",NA,NA,70,"Study","Slow","S9",1557,""
"5c617b872026f300018082d1",102,1,"Read","A","hesitant",NA,"S10",NA,NA,71,"Study","Slow","S10",1641,""
"5c617b872026f300018082d1",103,1,"Read","A","cautious",NA,"S11",NA,NA,72,"Study","Slow","S11",1563,""
"5c617b872026f300018082d1",104,1,"Read","A","traffic",NA,"S12",NA,NA,73,"Study","Slow","S12",2043,""
"5c617b872026f300018082d1",109,1,"Read","A","",NA,"",NA,NA,0,"FreeRecall","","RECALL_Test",60016,"Race, speed, fast, lethargic, sluggish"
"5c617b872026f300018082d1",111,1,"Read","A","mississippi",NA,"RR1",NA,NA,74,"Study","River","RR1",3111,""
"5c617b872026f300018082d1",112,1,"Read","A","creek",NA,"RR2",NA,NA,75,"Study","River","RR2",1789,""
"5c617b872026f300018082d1",113,1,"Read","A","stream",NA,"RR3",NA,NA,76,"Study","River","RR3",1619,""
"5c617b872026f300018082d1",114,1,"Read","A","flow",NA,"RR4",NA,NA,77,"Study","River","RR4",1829,""
"5c617b872026f300018082d1",115,1,"Read","A","bridge",NA,"RR5",NA,NA,78,"Study","River","RR5",1564,""
"5c617b872026f300018082d1",116,1,"Read","A","brook",NA,"RR6",NA,NA,79,"Study","River","RR6",1770,""
"5c617b872026f300018082d1",117,1,"Read","A","lake",NA,"RR7",NA,NA,80,"Study","River","RR7",1581,""
"5c617b872026f300018082d1",118,1,"Read","A","barge",NA,"RR8",NA,NA,81,"Study","River","RR8",1767,""
"5c617b872026f300018082d1",119,1,"Read","A","water",NA,"RR9",NA,NA,82,"Study","River","RR9",1584,""
"5c617b872026f300018082d1",120,1,"Read","A","boat",NA,"RR10",NA,NA,83,"Study","River","RR10",1552,""
"5c617b872026f300018082d1",121,1,"Read","A","tide",NA,"RR11",NA,NA,84,"Study","River","RR11",1560,""
"5c617b872026f300018082d1",122,1,"Read","A","swim",NA,"RR12",NA,NA,85,"Study","River","RR12",1563,""
"5c617b872026f300018082d1",127,1,"Read","A","",NA,"",NA,NA,0,"FreeRecall","","RECALL_Test",60015,"Brook, stream, river, water, barge, lake, Mississippi, creek"
"5c617b872026f300018082d1",129,1,"Read","A","rye",NA,"B1",NA,NA,86,"Study","Bread","B1",1932,""
"5c617b872026f300018082d1",130,1,"Read","A","loaf",NA,"B2",NA,NA,87,"Study","Bread","B2",1628,""
"5c617b872026f300018082d1",131,1,"Read","A","butter",NA,"B3",NA,NA,88,"Study","Bread","B3",1686,""
"5c617b872026f300018082d1",132,1,"Read","A","toast",NA,"B4",NA,NA,89,"Study","Bread","B4",1640,""
"5c617b872026f300018082d1",133,1,"Read","A","dough",NA,"B5",NA,NA,90,"Study","Bread","B5",1562,""
"5c617b872026f300018082d1",134,1,"Read","A","crust",NA,"B6",NA,NA,91,"Study","Bread","B6",1560,""
"5c617b872026f300018082d1",135,1,"Read","A","flour",NA,"B7",NA,NA,92,"Study","Bread","B7",1571,""
"5c617b872026f300018082d1",136,1,"Read","A","sandwich",NA,"B8",NA,NA,93,"Study","Bread","B8",1555,""
"5c617b872026f300018082d1",137,1,"Read","A","jam",NA,"B9",NA,NA,94,"Study","Bread","B9",1585,""
"5c617b872026f300018082d1",138,1,"Read","A","jelly",NA,"B10",NA,NA,95,"Study","Bread","B10",1720,""
"5c617b872026f300018082d1",139,1,"Read","A","slice",NA,"B11",NA,NA,96,"Study","Bread","B11",1601,""
"5c617b872026f300018082d1",140,1,"Read","A","milk",NA,"B12",NA,NA,97,"Study","Bread","B12",1572,""
"5c617b872026f300018082d1",145,1,"Read","A","",NA,"",NA,NA,0,"FreeRecall","","RECALL_Test",60016,"Dough, toast, slice, butter, sandwich"
"5c617b872026f300018082d1",147,1,"Read","A","banner",NA,"F1",NA,NA,98,"Study","Flag","F1",5086,""
"5c617b872026f300018082d1",148,1,"Read","A","checkered",NA,"F2",NA,NA,99,"Study","Flag","F2",1683,""
"5c617b872026f300018082d1",149,1,"Read","A","american",NA,"F3",NA,NA,100,"Study","Flag","F3",1574,""
"5c617b872026f300018082d1",150,1,"Read","A","stripes",NA,"F4",NA,NA,101,"Study","Flag","F4",1791,""
"5c617b872026f300018082d1",151,1,"Read","A","pole",NA,"F5",NA,NA,102,"Study","Flag","F5",1567,""
"5c617b872026f300018082d1",152,1,"Read","A","anthem",NA,"F6",NA,NA,103,"Study","Flag","F6",1556,""
"5c617b872026f300018082d1",153,1,"Read","A","emblem",NA,"F7",NA,NA,104,"Study","Flag","F7",1554,""
"5c617b872026f300018082d1",154,1,"Read","A","national",NA,"F8",NA,NA,105,"Study","Flag","F8",1581,""
"5c617b872026f300018082d1",155,1,"Read","A","freedom",NA,"F9",NA,NA,106,"Study","Flag","F9",1567,""
"5c617b872026f300018082d1",156,1,"Read","A","symbol",NA,"F10",NA,NA,107,"Study","Flag","F10",1570,""
"5c617b872026f300018082d1",157,1,"Read","A","wave",NA,"F11",NA,NA,108,"Study","Flag","F11",1529,""
"5c617b872026f300018082d1",158,1,"Read","A","stars",NA,"F12",NA,NA,109,"Study","Flag","F12",1610,""
"5c617b872026f300018082d1",163,1,"Read","A","",NA,"",NA,NA,0,"FreeRecall","","RECALL_Test",60010,"American, stars, stripes, emblem, pole"
"5c617b872026f300018082d1",165,1,"Read","A","blouse",NA,"SS1",NA,NA,110,"Study","Shirt","SS1",2422,""
"5c617b872026f300018082d1",166,1,"Read","A","sleeves",NA,"SS2",NA,NA,111,"Study","Shirt","SS2",1596,""
"5c617b872026f300018082d1",167,1,"Read","A","collar",NA,"SS3",NA,NA,112,"Study","Shirt","SS3",1562,""
"5c617b872026f300018082d1",168,1,"Read","A","shorts",NA,"SS4",NA,NA,113,"Study","Shirt","SS4",1560,""
"5c617b872026f300018082d1",169,1,"Read","A","button",NA,"SS5",NA,NA,114,"Study","Shirt","SS5",1583,""
"5c617b872026f300018082d1",170,1,"Read","A","pants",NA,"SS6",NA,NA,115,"Study","Shirt","SS6",1556,""
"5c617b872026f300018082d1",171,1,"Read","A","polo",NA,"SS7",NA,NA,116,"Study","Shirt","SS7",1553,""
"5c617b872026f300018082d1",172,1,"Read","A","jersey",NA,"SS8",NA,NA,117,"Study","Shirt","SS8",1534,""
"5c617b872026f300018082d1",173,1,"Read","A","vest",NA,"SS9",NA,NA,118,"Study","Shirt","SS9",1560,""
"5c617b872026f300018082d1",174,1,"Read","A","cuffs",NA,"SS10",NA,NA,119,"Study","Shirt","SS10",1547,""
"5c617b872026f300018082d1",175,1,"Read","A","tie",NA,"SS11",NA,NA,120,"Study","Shirt","SS11",1672,""
"5c617b872026f300018082d1",176,1,"Read","A","pocket",NA,"SS12",NA,NA,121,"Study","Shirt","SS12",1561,""
"5c617b872026f300018082d1",181,1,"Read","A","",NA,"",NA,NA,0,"FreeRecall","","RECALL_Test",60006,"Pocket, blouse, collar, jersey, trousers, cuffs"
"5cf12ddbf17e370017a278c5",3,1,"Read","A","pane",NA,"Win_1",NA,NA,2,"Study","Window","Win_1",2922,""
"5cf12ddbf17e370017a278c5",4,1,"Read","A","sill",NA,"Win_2",NA,NA,3,"Study","Window","Win_2",2214,""
"5cf12ddbf17e370017a278c5",5,1,"Read","A","shutter",NA,"Win_3",NA,NA,4,"Study","Window","Win_3",3483,""
"5cf12ddbf17e370017a278c5",6,1,"Read","A","curtain",NA,"Win_4",NA,NA,5,"Study","Window","Win_4",4913,""
"5cf12ddbf17e370017a278c5",7,1,"Read","A","door",NA,"Win_5",NA,NA,6,"Study","Window","Win_5",3187,""
"5cf12ddbf17e370017a278c5",8,1,"Read","A","ledge",NA,"Win_6",NA,NA,7,"Study","Window","Win_6",4085,""
"5cf12ddbf17e370017a278c5",9,1,"Read","A","glass",NA,"Win_7",NA,NA,8,"Study","Window","Win_7",12917,""
"5cf12ddbf17e370017a278c5",10,1,"Read","A","view",NA,"Win_8",NA,NA,9,"Study","Window","Win_8",4557,""
"5cf12ddbf17e370017a278c5",11,1,"Read","A","screen",NA,"Win_9",NA,NA,10,"Study","Window","Win_9",5677,""
"5cf12ddbf17e370017a278c5",12,1,"Read","A","shade",NA,"Win_10",NA,NA,11,"Study","Window","Win_10",9099,""
"5cf12ddbf17e370017a278c5",13,1,"Read","A","open",NA,"Win_11",NA,NA,12,"Study","Window","Win_11",1707,""
"5cf12ddbf17e370017a278c5",14,1,"Read","A","frame",NA,"Win_12",NA,NA,13,"Study","Window","Win_12",1672,""
"5cf12ddbf17e370017a278c5",19,1,"Read","A","",NA,"",NA,NA,0,"FreeRecall","","RECALL_Test",60002,"Pane, Steel, Window, View, Glass, Door, Ledge, Scene, Screen, Curtain, Blinds, Shutters, Object, "
"5cf12ddbf17e370017a278c5",21,1,"Read","A","sandpaper",NA,"R1",NA,NA,14,"Study","Rough","R1",2532,""
"5cf12ddbf17e370017a278c5",22,1,"Read","A","smooth",NA,"R2",NA,NA,15,"Study","Rough","R2",3255,""
"5cf12ddbf17e370017a278c5",23,1,"Read","A","coarse",NA,"R3",NA,NA,16,"Study","Rough","R3",3681,""
"5cf12ddbf17e370017a278c5",24,1,"Read","A","tough",NA,"R4",NA,NA,17,"Study","Rough","R4",5680,""
"5cf12ddbf17e370017a278c5",25,1,"Read","A","rugged",NA,"R5",NA,NA,18,"Study","Rough","R5",6333,""
"5cf12ddbf17e370017a278c5",26,1,"Read","A","bumpy",NA,"R6",NA,NA,19,"Study","Rough","R6",1840,""
"5cf12ddbf17e370017a278c5",27,1,"Read","A","jagged",NA,"R7",NA,NA,20,"Study","Rough","R7",2114,""
"5cf12ddbf17e370017a278c5",28,1,"Read","A","riders",NA,"R8",NA,NA,21,"Study","Rough","R8",3715,""
"5cf12ddbf17e370017a278c5",29,1,"Read","A","uneven",NA,"R9",NA,NA,22,"Study","Rough","R9",2240,""
"5cf12ddbf17e370017a278c5",30,1,"Read","A","road",NA,"R10",NA,NA,23,"Study","Rough","R10",1989,""
"5cf12ddbf17e370017a278c5",31,1,"Read","A","ready",NA,"R11",NA,NA,24,"Study","Rough","R11",1793,""
"5cf12ddbf17e370017a278c5",32,1,"Read","A","sand",NA,"R12",NA,NA,25,"Study","Rough","R12",1626,""
"5cf12ddbf17e370017a278c5",37,1,"Read","A","",NA,"",NA,NA,0,"FreeRecall","","RECALL_Test",60001,"Sandpaper, Sand, Tough, Rough, Uneven, Ready, Road, Ridder, Rugged, Smooth, Jagged, Sharp, "
"5cf12ddbf17e370017a278c5",39,1,"Read","A","rage",NA,"A1",NA,NA,26,"Study","Anger","A1",2097,""
"5cf12ddbf17e370017a278c5",40,1,"Read","A","mad",NA,"A2",NA,NA,27,"Study","Anger","A2",1716,""
"5cf12ddbf17e370017a278c5",41,1,"Read","A","enrage",NA,"A3",NA,NA,28,"Study","Anger","A3",2921,""
"5cf12ddbf17e370017a278c5",42,1,"Read","A","fury",NA,"A4",NA,NA,29,"Study","Anger","A4",1784,""
"5cf12ddbf17e370017a278c5",43,1,"Read","A","temper",NA,"A5",NA,NA,30,"Study","Anger","A5",5669,""
"5cf12ddbf17e370017a278c5",44,1,"Read","A","ire",NA,"A6",NA,NA,31,"Study","Anger","A6",2281,""
"5cf12ddbf17e370017a278c5",45,1,"Read","A","wrath",NA,"A7",NA,NA,32,"Study","Anger","A7",1914,""
"5cf12ddbf17e370017a278c5",46,1,"Read","A","mean",NA,"A8",NA,NA,33,"Study","Anger","A8",2186,""
"5cf12ddbf17e370017a278c5",47,1,"Read","A","hatred",NA,"A9",NA,NA,34,"Study","Anger","A9",1647,""
"5cf12ddbf17e370017a278c5",48,1,"Read","A","fight",NA,"A10",NA,NA,35,"Study","Anger","A10",1689,""
"5cf12ddbf17e370017a278c5",49,1,"Read","A","hate",NA,"A11",NA,NA,36,"Study","Anger","A11",1711,""
"5cf12ddbf17e370017a278c5",50,1,"Read","A","fear",NA,"A12",NA,NA,37,"Study","Anger","A12",1704,""
"5cf12ddbf17e370017a278c5",55,1,"Read","A","",NA,"",NA,NA,0,"FreeRecall","","RECALL_Test",60001,"Rage, Enrage, Ire, Fight, Mad, Angry, Wrath, Fury, Fright, Scared, "
"5cf12ddbf17e370017a278c5",57,1,"Read","A","garbage",NA,"T1",NA,NA,38,"Study","Trash","T1",1857,""
"5cf12ddbf17e370017a278c5",58,1,"Read","A","rubbish",NA,"T2",NA,NA,39,"Study","Trash","T2",1641,""
"5cf12ddbf17e370017a278c5",59,1,"Read","A","debris",NA,"T3",NA,NA,40,"Study","Trash","T3",2113,""
"5cf12ddbf17e370017a278c5",60,1,"Read","A","dump",NA,"T4",NA,NA,41,"Study","Trash","T4",1690,""
"5cf12ddbf17e370017a278c5",61,1,"Read","A","litter",NA,"T5",NA,NA,42,"Study","Trash","T5",1838,""
"5cf12ddbf17e370017a278c5",62,1,"Read","A","landfill",NA,"T6",NA,NA,43,"Study","Trash","T6",1751,""
"5cf12ddbf17e370017a278c5",63,1,"Read","A","junk",NA,"T7",NA,NA,44,"Study","Trash","T7",1946,""
"5cf12ddbf17e370017a278c5",64,1,"Read","A","waste",NA,"T8",NA,NA,45,"Study","Trash","T8",1618,""
"5cf12ddbf17e370017a278c5",65,1,"Read","A","sewage",NA,"T9",NA,NA,46,"Study","Trash","T9",1612,""
"5cf12ddbf17e370017a278c5",66,1,"Read","A","pile",NA,"T10",NA,NA,47,"Study","Trash","T10",1587,""
"5cf12ddbf17e370017a278c5",67,1,"Read","A","scraps",NA,"T11",NA,NA,48,"Study","Trash","T11",1942,""
"5cf12ddbf17e370017a278c5",68,1,"Read","A","refuse",NA,"T12",NA,NA,49,"Study","Trash","T12",2086,""
"5cf12ddbf17e370017a278c5",73,1,"Read","A","",NA,"",NA,NA,0,"FreeRecall","","RECALL_Test",60001,"Pile, Landfill, Rubbish, Garbage, Waste, Refuse, Junk, Bin, "
