Username,ID,ExperimentName,Session,Trial,Date,TimeDif,"Condition Number","Stimuli File","Order File","Condition Description","Condition Notes",Stimuli*Cue,Stimuli*Answer,Stimuli*Shuffle,"Stimuli*Stimuli Notes",Stimuli*Value,Procedure*Item,"Procedure*Trial Type","Procedure*Max Time","Procedure*Min Time",Procedure*Text,"Procedure*Procedure Notes",Procedure*Shuffle,Response*RT,Response*Response,Response*Accuracy,Response*RTfirst,Response*RTlast,Response*strictAcc,Response*lenientAcc,Response*focus,Response*JOL,Response*Focus
55d4d11258c35800113dc2ab,3zdn2xb0mg,Ex2A_Prolific,1,1,2023-12-20T21:06:29+00:00,7.4256579875946,8,Stim_B.csv,I_JOL_B.csv,"Item D",Item,,,,,,0,Instruct,-,5,"In this section, you will be presented with a series of words. Please study each word carefully. Your memory will be tested!",Initial_Instruct,Instruct1,7028,,,-1,-1,,,,,1
55d4d11258c35800113dc2ab,3zdn2xb0mg,Ex2A_Prolific,1,2,2023-12-20T21:06:49+00:00,20.239382982254,8,Stim_B.csv,I_JOL_B.csv,"Item D",Item,,,,,,0,Instruct,-,5,"As you study, you will be asked to rate your ability to remember each item on a later memory test using a 0-100 scale. For example, if you study the word DOG, a rating of 0 indicates that you would not remember DOG at test, while a rating of 100 indicates full certainty that you would remember the word DOG at test.",,Instruct13,19714,,,-1,-1,,,,,1
55d4d11258c35800113dc2ab,3zdn2xb0mg,Ex2A_Prolific,1,3,2023-12-20T21:06:57+00:00,7.3873019218445,8,Stim_B.csv,I_JOL_B.csv,"Item D",Item,,,,,,0,Instruct,-,5,"When making your ratings, it is criticial that you use the full range of the scale. You will be disqualified for only giving ratings of 0 or 100!",,Instruct15,6146,,,-1,-1,,,,,1
55d4d11258c35800113dc2ab,3zdn2xb0mg,Ex2A_Prolific,1,4,2023-12-20T21:06:59+00:00,2.6079931259155,8,Stim_B.csv,I_JOL_B.csv,"Item D",Item,,,,,,0,Instruct,User,-,"You will now begin the study. Click next when you are ready to begin.",,Instruct16,2088,,,-1,-1,,,,,1
55d4d11258c35800113dc2ab,3zdn2xb0mg,Ex2A_Prolific,1,5,2023-12-20T21:07:36+00:00,36.93172287941,8,Stim_B.csv,I_JOL_B.csv,"Item D",Item,Pear,Pear,R1,Related,5,12,JOL,User,1,"How likely are you to correctly recall the second item in the pair?|Type your response on a scale from 0-100 and then press Enter.",Unrelated,U1,36225,,,30303,30303,,,,0,1
55d4d11258c35800113dc2ab,3zdn2xb0mg,Ex2A_Prolific,1,6,2023-12-20T21:07:54+00:00,17.118391990662,8,Stim_B.csv,I_JOL_B.csv,"Item D",Item,Cherry,Cherry,R1,Related,11,5,JOL,User,1,"How likely are you to correctly recall the second item in the pair?|Type your response on a scale from 0-100 and then press Enter.",Unrelated,U1,16430,,,14968,15346,,,,100,1
55d4d11258c35800113dc2ab,3zdn2xb0mg,Ex2A_Prolific,1,7,2023-12-20T21:08:02+00:00,8.4364190101624,8,Stim_B.csv,I_JOL_B.csv,"Item D",Item,Orange,Orange,R1,Related,2,8,JOL,User,1,"How likely are you to correctly recall the second item in the pair?|Type your response on a scale from 0-100 and then press Enter.",Unrelated,U1,7805,,,2538,2923,,,,100,1
55d4d11258c35800113dc2ab,3zdn2xb0mg,Ex2A_Prolific,1,8,2023-12-20T21:08:06+00:00,3.9934520721436,8,Stim_B.csv,I_JOL_B.csv,"Item D",Item,Plum,Plum,R1,Related,9,3,JOL,User,1,"How likely are you to correctly recall the second item in the pair?|Type your response on a scale from 0-100 and then press Enter.",Unrelated,U1,3405,,,2396,2878,,,,100,1
55d4d11258c35800113dc2ab,3zdn2xb0mg,Ex2A_Prolific,1,9,2023-12-20T21:08:10+00:00,3.5858318805695,8,Stim_B.csv,I_JOL_B.csv,"Item D",Item,Apple,Apple,R1,Related,1,4,JOL,User,1,"How likely are you to correctly recall the second item in the pair?|Type your response on a scale from 0-100 and then press Enter.",Unrelated,U1,3004,,,2147,2542,,,,100,1
55d4d11258c35800113dc2ab,3zdn2xb0mg,Ex2A_Prolific,1,10,2023-12-20T21:08:12+00:00,2.4353771209717,8,Stim_B.csv,I_JOL_B.csv,"Item D",Item,Banana,Banana,R1,Related,3,2,JOL,User,1,"How likely are you to correctly recall the second item in the pair?|Type your response on a scale from 0-100 and then press Enter.",Unrelated,U1,1923,,,1071,1449,,,,100,1
55d4d11258c35800113dc2ab,3zdn2xb0mg,Ex2A_Prolific,1,11,2023-12-20T21:08:16+00:00,3.6801118850708,8,Stim_B.csv,I_JOL_B.csv,"Item D",Item,Lemon,Lemon,R1,Related,12,13,JOL,User,1,"How likely are you to correctly recall the second item in the pair?|Type your response on a scale from 0-100 and then press Enter.",Unrelated,U1,3044,,,2175,2520,,,,100,1
55d4d11258c35800113dc2ab,3zdn2xb0mg,Ex2A_Prolific,1,12,2023-12-20T21:08:20+00:00,4.4405992031097,8,Stim_B.csv,I_JOL_B.csv,"Item D",Item,Kiwi,Kiwi,R1,Related,8,7,JOL,User,1,"How likely are you to correctly recall the second item in the pair?|Type your response on a scale from 0-100 and then press Enter.",Unrelated,U1,3953,,,2502,2852,,,,90,1
55d4d11258c35800113dc2ab,3zdn2xb0mg,Ex2A_Prolific,1,13,2023-12-20T21:08:23+00:00,2.7740488052368,8,Stim_B.csv,I_JOL_B.csv,"Item D",Item,Peach,Peach,R1,Related,6,6,JOL,User,1,"How likely are you to correctly recall the second item in the pair?|Type your response on a scale from 0-100 and then press Enter.",Unrelated,U1,2244,,,1551,1917,,,,100,1
55d4d11258c35800113dc2ab,3zdn2xb0mg,Ex2A_Prolific,1,14,2023-12-20T21:08:26+00:00,3.1054060459137,8,Stim_B.csv,I_JOL_B.csv,"Item D",Item,Mango,Mango,R1,Related,10,9,JOL,User,1,"How likely are you to correctly recall the second item in the pair?|Type your response on a scale from 0-100 and then press Enter.",Unrelated,U1,2600,,,2096,2284,,,,100,1
55d4d11258c35800113dc2ab,3zdn2xb0mg,Ex2A_Prolific,1,15,2023-12-20T21:08:29+00:00,3.0415389537811,8,Stim_B.csv,I_JOL_B.csv,"Item D",Item,Grape,Grape,R1,Related,4,10,JOL,User,1,"How likely are you to correctly recall the second item in the pair?|Type your response on a scale from 0-100 and then press Enter.",Unrelated,U1,2532,,,1891,2253,,,,100,1
55d4d11258c35800113dc2ab,3zdn2xb0mg,Ex2A_Prolific,1,16,2023-12-20T21:08:32+00:00,2.5020041465759,8,Stim_B.csv,I_JOL_B.csv,"Item D",Item,Strawberry,Strawberry,R1,Related,7,11,JOL,User,1,"How likely are you to correctly recall the second item in the pair?|Type your response on a scale from 0-100 and then press Enter.",Unrelated,U1,1943,,,1195,1576,,,,100,1
55d4d11258c35800113dc2ab,3zdn2xb0mg,Ex2A_Prolific,1,17,2023-12-20T21:08:35+00:00,3.6412289142609,8,Stim_B.csv,I_JOL_B.csv,"Item D",Item,,,,,,0,Instruct,User,-,"You have completed this section. Please click next.",,Instruct166,3143,,,-1,-1,,,,,1
55d4d11258c35800113dc2ab,3zdn2xb0mg,Ex2A_Prolific,1,18,2023-12-20T21:09:06+00:00,30.527078151703,8,Stim_B.csv,I_JOL_B.csv,"Item D",Item,,,,,,0,FreeRecall,30,30,"Please type as many words as you can that begin with the letter ""K"". The computer will automatically advance to the next screen in 30 seconds.",Unrelated,FILLER,30004,"Kiwi Kumquat Kangaroo Kite Keurig",0,6372,25015,0,0,,,0.833
55d4d11258c35800113dc2ab,3zdn2xb0mg,Ex2A_Prolific,1,19,2023-12-20T21:09:10+00:00,4.6086959838867,8,Stim_B.csv,I_JOL_B.csv,"Item D",Item,,,,,,0,Instruct,User,-,"You have completed this section. Please click next.",,Instruct166,4083,,,-1,-1,,,,,0.048
55d4d11258c35800113dc2ab,3zdn2xb0mg,Ex2A_Prolific,1,20,2023-12-20T21:10:16+00:00,65.692963838577,8,Stim_B.csv,I_JOL_B.csv,"Item D",Item,,,,,,0,FreeRecall,65,65,"Please type from memory the words studied in the previous list. Spelling will not count against you and you can recall the words in any order. This test is timed for ONE MINUTE, and the computer will automatically advance once time is up.",Unrelated,RECALL_Test1,65001,"strawberry banana apple pear plum kiwi cherry grape orange",0,10855,46607,0,0,,,0.972
55d4d11258c35800113dc2ab,3zdn2xb0mg,Ex2A_Prolific,1,21,2023-12-20T21:10:21+00:00,5.166491985321,8,Stim_B.csv,I_JOL_B.csv,"Item D",Item,,,,,,0,Instruct,User,3,"You will now be presented with a new study list. Click next when you are ready to begin.",,NEXT_LIST,4556,,,-1,-1,,,,,1
55d4d11258c35800113dc2ab,3zdn2xb0mg,Ex2A_Prolific,1,22,2023-12-20T21:10:29+00:00,8.1801171302795,8,Stim_B.csv,I_JOL_B.csv,"Item D",Item,Hawk,Hawk,U1,Unrelated,24,16,JOL,User,1,"How likely are you to correctly recall the second item in the pair?|Type your response on a scale from 0-100 and then press Enter.",Related,R1,7608,,,3151,6602,,,,80,1
55d4d11258c35800113dc2ab,3zdn2xb0mg,Ex2A_Prolific,1,23,2023-12-20T21:10:32+00:00,2.71808385849,8,Stim_B.csv,I_JOL_B.csv,"Item D",Item,Yellow,Yellow,U1,Unrelated,19,21,JOL,User,1,"How likely are you to correctly recall the second item in the pair?|Type your response on a scale from 0-100 and then press Enter.",Related,R1,2218,,,1404,1780,,,,100,1
55d4d11258c35800113dc2ab,3zdn2xb0mg,Ex2A_Prolific,1,24,2023-12-20T21:10:36+00:00,4.0321221351624,8,Stim_B.csv,I_JOL_B.csv,"Item D",Item,Document,Document,U1,Unrelated,15,23,JOL,User,1,"How likely are you to correctly recall the second item in the pair?|Type your response on a scale from 0-100 and then press Enter.",Related,R1,3437,,,2912,3145,,,,50,1
55d4d11258c35800113dc2ab,3zdn2xb0mg,Ex2A_Prolific,1,25,2023-12-20T21:10:41+00:00,4.9896378517151,8,Stim_B.csv,I_JOL_B.csv,"Item D",Item,Flea,Flea,U1,Unrelated,21,25,JOL,User,1,"How likely are you to correctly recall the second item in the pair?|Type your response on a scale from 0-100 and then press Enter.",Related,R1,3626,,,2998,3348,,,,100,1
55d4d11258c35800113dc2ab,3zdn2xb0mg,Ex2A_Prolific,1,26,2023-12-20T21:10:45+00:00,3.8390810489655,8,Stim_B.csv,I_JOL_B.csv,"Item D",Item,Bean,Bean,U1,Unrelated,22,17,JOL,User,1,"How likely are you to correctly recall the second item in the pair?|Type your response on a scale from 0-100 and then press Enter.",Related,R1,3257,,,2692,2940,,,,40,1
55d4d11258c35800113dc2ab,3zdn2xb0mg,Ex2A_Prolific,1,27,2023-12-20T21:10:48+00:00,2.9251871109009,8,Stim_B.csv,I_JOL_B.csv,"Item D",Item,Frog,Frog,U1,Unrelated,13,22,JOL,User,1,"How likely are you to correctly recall the second item in the pair?|Type your response on a scale from 0-100 and then press Enter.",Related,R1,2325,,,1812,2044,,,,50,1
55d4d11258c35800113dc2ab,3zdn2xb0mg,Ex2A_Prolific,1,28,2023-12-20T21:10:53+00:00,4.6755239963531,8,Stim_B.csv,I_JOL_B.csv,"Item D",Item,Slow,Slow,U1,Unrelated,23,20,JOL,User,1,"How likely are you to correctly recall the second item in the pair?|Type your response on a scale from 0-100 and then press Enter.",Related,R1,4122,,,3652,3838,,,,10,1
55d4d11258c35800113dc2ab,3zdn2xb0mg,Ex2A_Prolific,1,29,2023-12-20T21:10:58+00:00,5.7605469226837,8,Stim_B.csv,I_JOL_B.csv,"Item D",Item,Kayak,Kayak,U1,Unrelated,20,14,JOL,User,1,"How likely are you to correctly recall the second item in the pair?|Type your response on a scale from 0-100 and then press Enter.",Related,R1,5237,,,4602,4959,,,,100,1
55d4d11258c35800113dc2ab,3zdn2xb0mg,Ex2A_Prolific,1,30,2023-12-20T21:11:02+00:00,3.6684160232544,8,Stim_B.csv,I_JOL_B.csv,"Item D",Item,Dirt,Dirt,U1,Unrelated,16,15,JOL,User,1,"How likely are you to correctly recall the second item in the pair?|Type your response on a scale from 0-100 and then press Enter.",Related,R1,3122,,,2489,2731,,,,30,1
55d4d11258c35800113dc2ab,3zdn2xb0mg,Ex2A_Prolific,1,31,2023-12-20T21:11:06+00:00,4.49085688591,8,Stim_B.csv,I_JOL_B.csv,"Item D",Item,Shirt,Shirt,U1,Unrelated,18,18,JOL,User,1,"How likely are you to correctly recall the second item in the pair?|Type your response on a scale from 0-100 and then press Enter.",Related,R1,3947,,,3438,3679,,,,50,1
55d4d11258c35800113dc2ab,3zdn2xb0mg,Ex2A_Prolific,1,32,2023-12-20T21:11:09+00:00,2.3748462200165,8,Stim_B.csv,I_JOL_B.csv,"Item D",Item,Bed,Bed,U1,Unrelated,14,24,JOL,User,1,"How likely are you to correctly recall the second item in the pair?|Type your response on a scale from 0-100 and then press Enter.",Related,R1,1884,,,1259,1616,,,,100,1
55d4d11258c35800113dc2ab,3zdn2xb0mg,Ex2A_Prolific,1,33,2023-12-20T21:11:12+00:00,2.8407988548279,8,Stim_B.csv,I_JOL_B.csv,"Item D",Item,Mint,Mint,U1,Unrelated,17,19,JOL,User,1,"How likely are you to correctly recall the second item in the pair?|Type your response on a scale from 0-100 and then press Enter.",Related,R1,2251,,,1747,1747,,,,5,1
55d4d11258c35800113dc2ab,3zdn2xb0mg,Ex2A_Prolific,1,34,2023-12-20T21:11:15+00:00,3.037789106369,8,Stim_B.csv,I_JOL_B.csv,"Item D",Item,,,,,,0,Instruct,User,-,"You have completed this section. Please click next.",,Instruct166,2516,,,-1,-1,,,,,1
55d4d11258c35800113dc2ab,3zdn2xb0mg,Ex2A_Prolific,1,35,2023-12-20T21:11:45+00:00,30.548806905746,8,Stim_B.csv,I_JOL_B.csv,"Item D",Item,,,,,,0,FreeRecall,30,30,"Please type as many words as you can that begin with the letter ""C"". The computer will automatically advance to the next screen in 30 seconds.",Related,FILLER,30002,"candle candy camera chair chalk cork clear",0,2931,28407,0,0,,,0.947
55d4d11258c35800113dc2ab,3zdn2xb0mg,Ex2A_Prolific,1,36,2023-12-20T21:11:49+00:00,3.8569049835205,8,Stim_B.csv,I_JOL_B.csv,"Item D",Item,,,,,,0,Instruct,User,-,"You will now complete a memory test for the words you just studied. Spelling will not count against you and you can recall the words in any order. This test will be timed for one minute, and the computer will automatically advance once time is up. Click next when you are ready to begin.",,Instruct1666,3285,,,-1,-1,,,,,1
55d4d11258c35800113dc2ab,3zdn2xb0mg,Ex2A_Prolific,1,37,2023-12-20T21:12:55+00:00,65.694328069687,8,Stim_B.csv,I_JOL_B.csv,"Item D",Item,,,,,,0,FreeRecall,65,65,"Please type from memory the words studied in the previous list. Spelling will not count against you and you can recall the words in any order. This test is timed for ONE MINUTE, and the computer will automatically advance once time is up.",Related,RECALL_Test2,65002,"hawk yellow shirt kayak dirt slow ",0,2412,45856,0,0,,,1
55d4d11258c35800113dc2ab,3zdn2xb0mg,Ex2A_Prolific,1,38,2023-12-20T21:12:59+00:00,4.5320520401001,8,Stim_B.csv,I_JOL_B.csv,"Item D",Item,,,,,,0,Instruct,User,3,"You will now be presented with a new study list. Click next when you are ready to begin.",,NEXT_LIST,3866,,,-1,-1,,,,,1
55d4d11258c35800113dc2ab,3zdn2xb0mg,Ex2A_Prolific,1,39,2023-12-20T21:13:07+00:00,7.2392740249634,8,Stim_B.csv,I_JOL_B.csv,"Item D",Item,Roof,Roof,R2,Related,36,28,JOL,User,1,"How likely are you to correctly recall the second item in the pair?|Type your response on a scale from 0-100 and then press Enter.",Unrelated,U2,6684,,,6135,6282,,,,50,1
55d4d11258c35800113dc2ab,3zdn2xb0mg,Ex2A_Prolific,1,40,2023-12-20T21:13:11+00:00,4.1084690093994,8,Stim_B.csv,I_JOL_B.csv,"Item D",Item,Ceiling,Ceiling,R2,Related,25,33,JOL,User,1,"How likely are you to correctly recall the second item in the pair?|Type your response on a scale from 0-100 and then press Enter.",Unrelated,U2,3543,,,2567,2783,,,,50,1
55d4d11258c35800113dc2ab,3zdn2xb0mg,Ex2A_Prolific,1,41,2023-12-20T21:13:14+00:00,3.1391348838806,8,Stim_B.csv,I_JOL_B.csv,"Item D",Item,Attic,Attic,R2,Related,34,27,JOL,User,1,"How likely are you to correctly recall the second item in the pair?|Type your response on a scale from 0-100 and then press Enter.",Unrelated,U2,2599,,,1755,1903,,,,50,1
55d4d11258c35800113dc2ab,3zdn2xb0mg,Ex2A_Prolific,1,42,2023-12-20T21:13:17+00:00,3.5908160209656,8,Stim_B.csv,I_JOL_B.csv,"Item D",Item,Floor,Floor,R2,Related,31,34,JOL,User,1,"How likely are you to correctly recall the second item in the pair?|Type your response on a scale from 0-100 and then press Enter.",Unrelated,U2,3026,,,2447,2616,,,,50,1
55d4d11258c35800113dc2ab,3zdn2xb0mg,Ex2A_Prolific,1,43,2023-12-20T21:13:21+00:00,3.9505100250244,8,Stim_B.csv,I_JOL_B.csv,"Item D",Item,Stairs,Stairs,R2,Related,32,26,JOL,User,1,"How likely are you to correctly recall the second item in the pair?|Type your response on a scale from 0-100 and then press Enter.",Unrelated,U2,3381,,,2506,2749,,,,20,1
55d4d11258c35800113dc2ab,3zdn2xb0mg,Ex2A_Prolific,1,44,2023-12-20T21:13:26+00:00,4.9039969444275,8,Stim_B.csv,I_JOL_B.csv,"Item D",Item,Basement,Basement,R2,Related,26,36,JOL,User,1,"How likely are you to correctly recall the second item in the pair?|Type your response on a scale from 0-100 and then press Enter.",Unrelated,U2,4295,,,3656,3863,,,,40,1
55d4d11258c35800113dc2ab,3zdn2xb0mg,Ex2A_Prolific,1,45,2023-12-20T21:13:31+00:00,4.2737019062042,8,Stim_B.csv,I_JOL_B.csv,"Item D",Item,Bathroom,Bathroom,R2,Related,27,29,JOL,User,1,"How likely are you to correctly recall the second item in the pair?|Type your response on a scale from 0-100 and then press Enter.",Unrelated,U2,3707,,,3118,3290,,,,50,1
55d4d11258c35800113dc2ab,3zdn2xb0mg,Ex2A_Prolific,1,46,2023-12-20T21:13:35+00:00,4.3113181591034,8,Stim_B.csv,I_JOL_B.csv,"Item D",Item,Door,Door,R2,Related,30,37,JOL,User,1,"How likely are you to correctly recall the second item in the pair?|Type your response on a scale from 0-100 and then press Enter.",Unrelated,U2,3778,,,3123,3356,,,,10,1
55d4d11258c35800113dc2ab,3zdn2xb0mg,Ex2A_Prolific,1,47,2023-12-20T21:13:38+00:00,3.35142993927,8,Stim_B.csv,I_JOL_B.csv,"Item D",Item,Elevator,Elevator,R2,Related,33,32,JOL,User,1,"How likely are you to correctly recall the second item in the pair?|Type your response on a scale from 0-100 and then press Enter.",Unrelated,U2,2795,,,2136,2339,,,,30,1
55d4d11258c35800113dc2ab,3zdn2xb0mg,Ex2A_Prolific,1,48,2023-12-20T21:13:42+00:00,4.0635681152344,8,Stim_B.csv,I_JOL_B.csv,"Item D",Item,Hallway,Hallway,R2,Related,35,30,JOL,User,1,"How likely are you to correctly recall the second item in the pair?|Type your response on a scale from 0-100 and then press Enter.",Unrelated,U2,3559,,,2872,3169,,,,50,1
55d4d11258c35800113dc2ab,3zdn2xb0mg,Ex2A_Prolific,1,49,2023-12-20T21:13:46+00:00,3.767924785614,8,Stim_B.csv,I_JOL_B.csv,"Item D",Item,Window,Window,R2,Related,28,35,JOL,User,1,"How likely are you to correctly recall the second item in the pair?|Type your response on a scale from 0-100 and then press Enter.",Unrelated,U2,3184,,,2620,2803,,,,60,1
55d4d11258c35800113dc2ab,3zdn2xb0mg,Ex2A_Prolific,1,50,2023-12-20T21:13:50+00:00,3.8924741744995,8,Stim_B.csv,I_JOL_B.csv,"Item D",Item,Wall,Wall,R2,Related,29,31,JOL,User,1,"How likely are you to correctly recall the second item in the pair?|Type your response on a scale from 0-100 and then press Enter.",Unrelated,U2,3332,,,2545,2936,,,,100,1
55d4d11258c35800113dc2ab,3zdn2xb0mg,Ex2A_Prolific,1,51,2023-12-20T21:13:56+00:00,6.2243769168854,8,Stim_B.csv,I_JOL_B.csv,"Item D",Item,,,,,,0,Instruct,User,-,"You have completed this section. Please click next.",,Instruct166,5444,,,-1,-1,,,,,0.571
55d4d11258c35800113dc2ab,3zdn2xb0mg,Ex2A_Prolific,1,52,2023-12-20T21:14:27+00:00,30.557611942291,8,Stim_B.csv,I_JOL_B.csv,"Item D",Item,,,,,,0,FreeRecall,30,30,"Please type as many words as you can that begin with the letter ""M"". The computer will automatically advance to the next screen in 30 seconds.",Unrelated,FILLER,30001,"market milk misty mirror magic m",0,2698,29748,0,0,,,0.86
55d4d11258c35800113dc2ab,3zdn2xb0mg,Ex2A_Prolific,1,53,2023-12-20T21:14:31+00:00,4.2223641872406,8,Stim_B.csv,I_JOL_B.csv,"Item D",Item,,,,,,0,Instruct,User,-,"You have completed this section. Please click next.",,Instruct166,3637,,,-1,-1,,,,,1
55d4d11258c35800113dc2ab,3zdn2xb0mg,Ex2A_Prolific,1,54,2023-12-20T21:15:37+00:00,66.31014084816,8,Stim_B.csv,I_JOL_B.csv,"Item D",Item,,,,,,0,FreeRecall,65,65,"Please type from memory the words studied in the previous list. Spelling will not count against you and you can recall the words in any order. This test is timed for ONE MINUTE, and the computer will automatically advance once time is up.",Unrelated,RECALL_Test3,65001,"ceiling attic wall roof stairs bathroom floor basement window door hallway ",0,4793,42981,0,0,,,1
55d4d11258c35800113dc2ab,3zdn2xb0mg,Ex2A_Prolific,1,55,2023-12-20T21:15:43+00:00,6.1700799465179,8,Stim_B.csv,I_JOL_B.csv,"Item D",Item,,,,,,0,Instruct,User,3,"You will now be presented with a new study list. Click next when you are ready to begin.",,NEXT_LIST,5152,,,-1,-1,,,,,1
55d4d11258c35800113dc2ab,3zdn2xb0mg,Ex2A_Prolific,1,56,2023-12-20T21:15:51+00:00,8.1052072048187,8,Stim_B.csv,I_JOL_B.csv,"Item D",Item,Card,Card,U2,Unrelated,37,45,JOL,User,1,"How likely are you to correctly recall the second item in the pair?|Type your response on a scale from 0-100 and then press Enter.",Related,R2,7245,,,6199,6436,,,,50,1
55d4d11258c35800113dc2ab,3zdn2xb0mg,Ex2A_Prolific,1,57,2023-12-20T21:15:54+00:00,2.9356420040131,8,Stim_B.csv,I_JOL_B.csv,"Item D",Item,Basket,Basket,U2,Unrelated,41,40,JOL,User,1,"How likely are you to correctly recall the second item in the pair?|Type your response on a scale from 0-100 and then press Enter.",Related,R2,2071,,,1775,1776,,,,5,1
55d4d11258c35800113dc2ab,3zdn2xb0mg,Ex2A_Prolific,1,58,2023-12-20T21:15:58+00:00,3.6804578304291,8,Stim_B.csv,I_JOL_B.csv,"Item D",Item,Flute,Flute,U2,Unrelated,38,48,JOL,User,1,"How likely are you to correctly recall the second item in the pair?|Type your response on a scale from 0-100 and then press Enter.",Related,R2,2883,,,2359,2359,,,,5,1
55d4d11258c35800113dc2ab,3zdn2xb0mg,Ex2A_Prolific,1,59,2023-12-20T21:16:04+00:00,5.8897361755371,8,Stim_B.csv,I_JOL_B.csv,"Item D",Item,Tent,Tent,U2,Unrelated,46,46,JOL,User,1,"How likely are you to correctly recall the second item in the pair?|Type your response on a scale from 0-100 and then press Enter.",Related,R2,5060,,,4550,4776,,,,10,1
55d4d11258c35800113dc2ab,3zdn2xb0mg,Ex2A_Prolific,1,60,2023-12-20T21:16:08+00:00,4.2623717784882,8,Stim_B.csv,I_JOL_B.csv,"Item D",Item,Drill,Drill,U2,Unrelated,45,49,JOL,User,1,"How likely are you to correctly recall the second item in the pair?|Type your response on a scale from 0-100 and then press Enter.",Related,R2,3432,,,2803,2804,,,,5,1
55d4d11258c35800113dc2ab,3zdn2xb0mg,Ex2A_Prolific,1,61,2023-12-20T21:16:12+00:00,3.4860830307007,8,Stim_B.csv,I_JOL_B.csv,"Item D",Item,Phone,Phone,U2,Unrelated,47,41,JOL,User,1,"How likely are you to correctly recall the second item in the pair?|Type your response on a scale from 0-100 and then press Enter.",Related,R2,2700,,,1732,1984,,,,50,1
55d4d11258c35800113dc2ab,3zdn2xb0mg,Ex2A_Prolific,1,62,2023-12-20T21:16:15+00:00,3.6635329723358,8,Stim_B.csv,I_JOL_B.csv,"Item D",Item,Mother,Mother,U2,Unrelated,44,47,JOL,User,1,"How likely are you to correctly recall the second item in the pair?|Type your response on a scale from 0-100 and then press Enter.",Related,R2,2875,,,2284,2572,,,,50,1
55d4d11258c35800113dc2ab,3zdn2xb0mg,Ex2A_Prolific,1,63,2023-12-20T21:16:19+00:00,3.2207741737366,8,Stim_B.csv,I_JOL_B.csv,"Item D",Item,Cook,Cook,U2,Unrelated,42,39,JOL,User,1,"How likely are you to correctly recall the second item in the pair?|Type your response on a scale from 0-100 and then press Enter.",Related,R2,2419,,,1850,2087,,,,50,1
55d4d11258c35800113dc2ab,3zdn2xb0mg,Ex2A_Prolific,1,64,2023-12-20T21:16:26+00:00,7.1749668121338,8,Stim_B.csv,I_JOL_B.csv,"Item D",Item,Cloud,Cloud,U2,Unrelated,40,38,JOL,User,1,"How likely are you to correctly recall the second item in the pair?|Type your response on a scale from 0-100 and then press Enter.",Related,R2,6312,,,6041,6041,,,,5,1
55d4d11258c35800113dc2ab,3zdn2xb0mg,Ex2A_Prolific,1,65,2023-12-20T21:16:29+00:00,2.7317891120911,8,Stim_B.csv,I_JOL_B.csv,"Item D",Item,Rest,Rest,U2,Unrelated,48,44,JOL,User,1,"How likely are you to correctly recall the second item in the pair?|Type your response on a scale from 0-100 and then press Enter.",Related,R2,1889,,,1569,1569,,,,2,1
55d4d11258c35800113dc2ab,3zdn2xb0mg,Ex2A_Prolific,1,66,2023-12-20T21:16:31+00:00,2.7597839832306,8,Stim_B.csv,I_JOL_B.csv,"Item D",Item,Salt,Salt,U2,Unrelated,39,42,JOL,User,1,"How likely are you to correctly recall the second item in the pair?|Type your response on a scale from 0-100 and then press Enter.",Related,R2,1876,,,1567,1567,,,,0,1
55d4d11258c35800113dc2ab,3zdn2xb0mg,Ex2A_Prolific,1,67,2023-12-20T21:16:34+00:00,2.5705299377441,8,Stim_B.csv,I_JOL_B.csv,"Item D",Item,Fossil,Fossil,U2,Unrelated,43,43,JOL,User,1,"How likely are you to correctly recall the second item in the pair?|Type your response on a scale from 0-100 and then press Enter.",Related,R2,1682,,,1376,1376,,,,0,1
55d4d11258c35800113dc2ab,3zdn2xb0mg,Ex2A_Prolific,1,68,2023-12-20T21:16:37+00:00,3.1231741905212,8,Stim_B.csv,I_JOL_B.csv,"Item D",Item,,,,,,0,Instruct,User,-,"You have completed this section. Please click next.",,Instruct166,2088,,,-1,-1,,,,,1
55d4d11258c35800113dc2ab,3zdn2xb0mg,Ex2A_Prolific,1,69,2023-12-20T21:17:08+00:00,30.803206920624,8,Stim_B.csv,I_JOL_B.csv,"Item D",Item,,,,,,0,FreeRecall,30,30,"Please type as many words as you can that begin with the letter ""L"". The computer will automatically advance to the next screen in 30 seconds.",Related,FILLER,30008,"lower lost leap love lawyer litter listen log ",0,2927,27994,0,0,,,1
55d4d11258c35800113dc2ab,3zdn2xb0mg,Ex2A_Prolific,1,70,2023-12-20T21:17:15+00:00,7.4012160301208,8,Stim_B.csv,I_JOL_B.csv,"Item D",Item,,,,,,0,Instruct,User,-,"You will now complete a memory test for the words you just studied. Spelling will not count against you and you can recall the words in any order. This test will be timed for one minute, and the computer will automatically advance once time is up. Click next when you are ready to begin.",,Instruct1666,5662,,,-1,-1,,,,,1
55d4d11258c35800113dc2ab,3zdn2xb0mg,Ex2A_Prolific,1,71,2023-12-20T21:18:21+00:00,66.156985044479,8,Stim_B.csv,I_JOL_B.csv,"Item D",Item,,,,,,0,FreeRecall,65,65,"Please type from memory the words studied in the previous list. Spelling will not count against you and you can recall the words in any order. This test is timed for ONE MINUTE, and the computer will automatically advance once time is up.",Related,RECALL_Test4,65005,"salt mother card basket flute fossil phone",0,2441,62859,0,0,,,1
55d4d11258c35800113dc2ab,3zdn2xb0mg,Ex2A_Prolific,1,72,2023-12-20T21:18:24+00:00,2.979640007019,8,Stim_B.csv,I_JOL_B.csv,"Item D",Item,,,,,,0,Instruct,User,-,"You have completed this section. Please click next.",,Instruct7,2001,,,-1,-1,,,,,1
55d4d11258c35800113dc2ab,3zdn2xb0mg,Ex2A_Prolific,1,73,2023-12-20T21:18:28+00:00,3.6744627952576,8,Stim_B.csv,I_JOL_B.csv,"Item D",Item,,,,,,0,Instruct,User,-,"The following screen will ask you a few questions abour your experience today. You must complete these questions to receive credit.",,Instruct8,2867,,,-1,-1,,,,,1
