Username,ID,ExperimentName,Session,Trial,Date,TimeDif,"Condition Number","Stimuli File","Order File","Condition Description","Condition Notes",Stimuli*Cue,Stimuli*Answer,Stimuli*Shuffle,"Stimuli*Stimuli Notes",Stimuli*Value,Procedure*Item,"Procedure*Trial Type","Procedure*Max Time","Procedure*Min Time",Procedure*Text,"Procedure*Procedure Notes",Procedure*Shuffle,Response*RT,Response*Response,Response*Accuracy,Response*RTfirst,Response*RTlast,Response*strictAcc,Response*lenientAcc,Response*focus,Response*JOL,Response*Focus
600d14cfdc7ef74ca39fd9ed,ilcrxidpzl,Ex2A_Prolific,1,1,2023-12-20T19:13:17+00:00,11.071431875229,8,Stim_B.csv,I_JOL_B.csv,"Item D",Item,,,,,,0,Instruct,-,5,"In this section, you will be presented with a series of words. Please study each word carefully. Your memory will be tested!",Initial_Instruct,Instruct1,10936,,,-1,-1,,,,,0.745
600d14cfdc7ef74ca39fd9ed,ilcrxidpzl,Ex2A_Prolific,1,2,2023-12-20T19:13:30+00:00,13.031780004501,8,Stim_B.csv,I_JOL_B.csv,"Item D",Item,,,,,,0,Instruct,-,5,"As you study, you will be asked to rate your ability to remember each item on a later memory test using a 0-100 scale. For example, if you study the word DOG, a rating of 0 indicates that you would not remember DOG at test, while a rating of 100 indicates full certainty that you would remember the word DOG at test.",,Instruct13,12857,,,-1,-1,,,,,0.215
600d14cfdc7ef74ca39fd9ed,ilcrxidpzl,Ex2A_Prolific,1,3,2023-12-20T19:14:24+00:00,54.123547077179,8,Stim_B.csv,I_JOL_B.csv,"Item D",Item,,,,,,0,Instruct,-,5,"When making your ratings, it is criticial that you use the full range of the scale. You will be disqualified for only giving ratings of 0 or 100!",,Instruct15,53959,,,-1,-1,,,,,0.144
600d14cfdc7ef74ca39fd9ed,ilcrxidpzl,Ex2A_Prolific,1,4,2023-12-20T19:14:30+00:00,6.0582249164581,8,Stim_B.csv,I_JOL_B.csv,"Item D",Item,,,,,,0,Instruct,User,-,"You will now begin the study. Click next when you are ready to begin.",,Instruct16,5878,,,-1,-1,,,,,0.5
600d14cfdc7ef74ca39fd9ed,ilcrxidpzl,Ex2A_Prolific,1,5,2023-12-20T19:14:48+00:00,17.91682100296,8,Stim_B.csv,I_JOL_B.csv,"Item D",Item,Plum,Plum,R1,Related,9,9,JOL,User,1,"How likely are you to correctly recall the second item in the pair?|Type your response on a scale from 0-100 and then press Enter.",Unrelated,U1,17749,,,9974,10325,,,,65,0.663
600d14cfdc7ef74ca39fd9ed,ilcrxidpzl,Ex2A_Prolific,1,6,2023-12-20T19:14:57+00:00,8.5519261360168,8,Stim_B.csv,I_JOL_B.csv,"Item D",Item,Lemon,Lemon,R1,Related,12,7,JOL,User,1,"How likely are you to correctly recall the second item in the pair?|Type your response on a scale from 0-100 and then press Enter.",Unrelated,U1,8382,,,2019,2765,,,,77,0.452
600d14cfdc7ef74ca39fd9ed,ilcrxidpzl,Ex2A_Prolific,1,7,2023-12-20T19:15:03+00:00,6.375941991806,8,Stim_B.csv,I_JOL_B.csv,"Item D",Item,Peach,Peach,R1,Related,6,6,JOL,User,1,"How likely are you to correctly recall the second item in the pair?|Type your response on a scale from 0-100 and then press Enter.",Unrelated,U1,6196,,,1878,1995,,,,23,0.387
600d14cfdc7ef74ca39fd9ed,ilcrxidpzl,Ex2A_Prolific,1,8,2023-12-20T19:15:11+00:00,8.529923915863,8,Stim_B.csv,I_JOL_B.csv,"Item D",Item,Banana,Banana,R1,Related,3,13,JOL,User,1,"How likely are you to correctly recall the second item in the pair?|Type your response on a scale from 0-100 and then press Enter.",Unrelated,U1,8363,,,3024,3273,,,,89,0.31
600d14cfdc7ef74ca39fd9ed,ilcrxidpzl,Ex2A_Prolific,1,9,2023-12-20T19:15:19+00:00,7.9065968990326,8,Stim_B.csv,I_JOL_B.csv,"Item D",Item,Pear,Pear,R1,Related,5,11,JOL,User,1,"How likely are you to correctly recall the second item in the pair?|Type your response on a scale from 0-100 and then press Enter.",Unrelated,U1,7742,,,2589,2983,,,,71,0.41
600d14cfdc7ef74ca39fd9ed,ilcrxidpzl,Ex2A_Prolific,1,10,2023-12-20T19:15:27+00:00,7.3383700847626,8,Stim_B.csv,I_JOL_B.csv,"Item D",Item,Apple,Apple,R1,Related,1,2,JOL,User,1,"How likely are you to correctly recall the second item in the pair?|Type your response on a scale from 0-100 and then press Enter.",Unrelated,U1,7173,,,2054,2559,,,,86,0.444
600d14cfdc7ef74ca39fd9ed,ilcrxidpzl,Ex2A_Prolific,1,11,2023-12-20T19:15:34+00:00,7.2219591140747,8,Stim_B.csv,I_JOL_B.csv,"Item D",Item,Strawberry,Strawberry,R1,Related,7,3,JOL,User,1,"How likely are you to correctly recall the second item in the pair?|Type your response on a scale from 0-100 and then press Enter.",Unrelated,U1,7058,,,6391,6673,,,,62,0.25
600d14cfdc7ef74ca39fd9ed,ilcrxidpzl,Ex2A_Prolific,1,12,2023-12-20T19:15:44+00:00,10.569617986679,8,Stim_B.csv,I_JOL_B.csv,"Item D",Item,Grape,Grape,R1,Related,4,12,JOL,User,1,"How likely are you to correctly recall the second item in the pair?|Type your response on a scale from 0-100 and then press Enter.",Unrelated,U1,10396,,,9905,10052,,,,44,0.154
600d14cfdc7ef74ca39fd9ed,ilcrxidpzl,Ex2A_Prolific,1,13,2023-12-20T19:15:53+00:00,8.8148880004883,8,Stim_B.csv,I_JOL_B.csv,"Item D",Item,Cherry,Cherry,R1,Related,11,10,JOL,User,1,"How likely are you to correctly recall the second item in the pair?|Type your response on a scale from 0-100 and then press Enter.",Unrelated,U1,8638,,,8069,8197,,,,35,0.364
600d14cfdc7ef74ca39fd9ed,ilcrxidpzl,Ex2A_Prolific,1,14,2023-12-20T19:16:04+00:00,10.373614788055,8,Stim_B.csv,I_JOL_B.csv,"Item D",Item,Mango,Mango,R1,Related,10,8,JOL,User,1,"How likely are you to correctly recall the second item in the pair?|Type your response on a scale from 0-100 and then press Enter.",Unrelated,U1,10154,,,9664,9760,,,,70,0.314
600d14cfdc7ef74ca39fd9ed,ilcrxidpzl,Ex2A_Prolific,1,15,2023-12-20T19:16:11+00:00,7.1849911212921,8,Stim_B.csv,I_JOL_B.csv,"Item D",Item,Kiwi,Kiwi,R1,Related,8,5,JOL,User,1,"How likely are you to correctly recall the second item in the pair?|Type your response on a scale from 0-100 and then press Enter.",Unrelated,U1,7016,,,4400,4451,,,,14,0.306
600d14cfdc7ef74ca39fd9ed,ilcrxidpzl,Ex2A_Prolific,1,16,2023-12-20T19:16:17+00:00,6.4813549518585,8,Stim_B.csv,I_JOL_B.csv,"Item D",Item,Orange,Orange,R1,Related,2,4,JOL,User,1,"How likely are you to correctly recall the second item in the pair?|Type your response on a scale from 0-100 and then press Enter.",Unrelated,U1,6308,,,2167,2795,,,,96,0.5
600d14cfdc7ef74ca39fd9ed,ilcrxidpzl,Ex2A_Prolific,1,17,2023-12-20T19:16:19+00:00,1.7626891136169,8,Stim_B.csv,I_JOL_B.csv,"Item D",Item,,,,,,0,Instruct,User,-,"You have completed this section. Please click next.",,Instruct166,1603,,,-1,-1,,,,,1
600d14cfdc7ef74ca39fd9ed,ilcrxidpzl,Ex2A_Prolific,1,18,2023-12-20T19:16:49+00:00,30.223516941071,8,Stim_B.csv,I_JOL_B.csv,"Item D",Item,,,,,,0,FreeRecall,30,30,"Please type as many words as you can that begin with the letter ""K"". The computer will automatically advance to the next screen in 30 seconds.",Unrelated,FILLER,30008,"Kale, Kite, Knot, ",0,10046,26425,0,0,,,1
600d14cfdc7ef74ca39fd9ed,ilcrxidpzl,Ex2A_Prolific,1,19,2023-12-20T19:17:03+00:00,13.59344792366,8,Stim_B.csv,I_JOL_B.csv,"Item D",Item,,,,,,0,Instruct,User,-,"You have completed this section. Please click next.",,Instruct166,13412,,,-1,-1,,,,,0.176
600d14cfdc7ef74ca39fd9ed,ilcrxidpzl,Ex2A_Prolific,1,20,2023-12-20T19:18:08+00:00,65.309520959854,8,Stim_B.csv,I_JOL_B.csv,"Item D",Item,,,,,,0,FreeRecall,65,65,"Please type from memory the words studied in the previous list. Spelling will not count against you and you can recall the words in any order. This test is timed for ONE MINUTE, and the computer will automatically advance once time is up.",Unrelated,RECALL_Test1,65001,"Orange, Apple, Banana, Lemon, Manga, Strawberry ",0,7159,40678,0,0,,,0.662
600d14cfdc7ef74ca39fd9ed,ilcrxidpzl,Ex2A_Prolific,1,21,2023-12-20T19:18:20+00:00,11.730673074722,8,Stim_B.csv,I_JOL_B.csv,"Item D",Item,,,,,,0,Instruct,User,3,"You will now be presented with a new study list. Click next when you are ready to begin.",,NEXT_LIST,11546,,,-1,-1,,,,,0.128
600d14cfdc7ef74ca39fd9ed,ilcrxidpzl,Ex2A_Prolific,1,22,2023-12-20T19:18:28+00:00,8.2171199321747,8,Stim_B.csv,I_JOL_B.csv,"Item D",Item,Flea,Flea,U1,Unrelated,21,19,JOL,User,1,"How likely are you to correctly recall the second item in the pair?|Type your response on a scale from 0-100 and then press Enter.",Related,R1,8048,,,7652,7723,,,,32,0.39
600d14cfdc7ef74ca39fd9ed,ilcrxidpzl,Ex2A_Prolific,1,23,2023-12-20T19:18:34+00:00,6.003228187561,8,Stim_B.csv,I_JOL_B.csv,"Item D",Item,Mint,Mint,U1,Unrelated,17,17,JOL,User,1,"How likely are you to correctly recall the second item in the pair?|Type your response on a scale from 0-100 and then press Enter.",Related,R1,5831,,,4966,5475,,,,82,0.367
600d14cfdc7ef74ca39fd9ed,ilcrxidpzl,Ex2A_Prolific,1,24,2023-12-20T19:18:39+00:00,4.7670907974243,8,Stim_B.csv,I_JOL_B.csv,"Item D",Item,Dirt,Dirt,U1,Unrelated,16,24,JOL,User,1,"How likely are you to correctly recall the second item in the pair?|Type your response on a scale from 0-100 and then press Enter.",Related,R1,4594,,,3618,3814,,,,67,0.348
600d14cfdc7ef74ca39fd9ed,ilcrxidpzl,Ex2A_Prolific,1,25,2023-12-20T19:18:45+00:00,6.368880033493,8,Stim_B.csv,I_JOL_B.csv,"Item D",Item,Yellow,Yellow,U1,Unrelated,19,23,JOL,User,1,"How likely are you to correctly recall the second item in the pair?|Type your response on a scale from 0-100 and then press Enter.",Related,R1,6175,,,5449,5945,,,,91,0.29
600d14cfdc7ef74ca39fd9ed,ilcrxidpzl,Ex2A_Prolific,1,26,2023-12-20T19:18:50+00:00,4.7229261398315,8,Stim_B.csv,I_JOL_B.csv,"Item D",Item,Bean,Bean,U1,Unrelated,22,18,JOL,User,1,"How likely are you to correctly recall the second item in the pair?|Type your response on a scale from 0-100 and then press Enter.",Related,R1,4544,,,3875,4041,,,,22,0.304
600d14cfdc7ef74ca39fd9ed,ilcrxidpzl,Ex2A_Prolific,1,27,2023-12-20T19:18:55+00:00,5.3893959522247,8,Stim_B.csv,I_JOL_B.csv,"Item D",Item,Slow,Slow,U1,Unrelated,23,22,JOL,User,1,"How likely are you to correctly recall the second item in the pair?|Type your response on a scale from 0-100 and then press Enter.",Related,R1,5220,,,3773,3940,,,,61,0.444
600d14cfdc7ef74ca39fd9ed,ilcrxidpzl,Ex2A_Prolific,1,28,2023-12-20T19:19:05+00:00,9.4244599342346,8,Stim_B.csv,I_JOL_B.csv,"Item D",Item,Hawk,Hawk,U1,Unrelated,24,25,JOL,User,1,"How likely are you to correctly recall the second item in the pair?|Type your response on a scale from 0-100 and then press Enter.",Related,R1,9228,,,4474,4627,,,,44,0.217
600d14cfdc7ef74ca39fd9ed,ilcrxidpzl,Ex2A_Prolific,1,29,2023-12-20T19:19:10+00:00,4.9905049800873,8,Stim_B.csv,I_JOL_B.csv,"Item D",Item,Shirt,Shirt,U1,Unrelated,18,20,JOL,User,1,"How likely are you to correctly recall the second item in the pair?|Type your response on a scale from 0-100 and then press Enter.",Related,R1,4818,,,4398,4480,,,,71,0.24
600d14cfdc7ef74ca39fd9ed,ilcrxidpzl,Ex2A_Prolific,1,30,2023-12-20T19:19:16+00:00,6.5539050102234,8,Stim_B.csv,I_JOL_B.csv,"Item D",Item,Kayak,Kayak,U1,Unrelated,20,16,JOL,User,1,"How likely are you to correctly recall the second item in the pair?|Type your response on a scale from 0-100 and then press Enter.",Related,R1,6381,,,4607,4607,,,,8,0.156
600d14cfdc7ef74ca39fd9ed,ilcrxidpzl,Ex2A_Prolific,1,31,2023-12-20T19:19:23+00:00,6.5748691558838,8,Stim_B.csv,I_JOL_B.csv,"Item D",Item,Document,Document,U1,Unrelated,15,15,JOL,User,1,"How likely are you to correctly recall the second item in the pair?|Type your response on a scale from 0-100 and then press Enter.",Related,R1,6411,,,5634,5720,,,,71,0.212
600d14cfdc7ef74ca39fd9ed,ilcrxidpzl,Ex2A_Prolific,1,32,2023-12-20T19:19:29+00:00,5.5803740024567,8,Stim_B.csv,I_JOL_B.csv,"Item D",Item,Bed,Bed,U1,Unrelated,14,14,JOL,User,1,"How likely are you to correctly recall the second item in the pair?|Type your response on a scale from 0-100 and then press Enter.",Related,R1,5408,,,4837,4991,,,,85,0.286
600d14cfdc7ef74ca39fd9ed,ilcrxidpzl,Ex2A_Prolific,1,33,2023-12-20T19:19:33+00:00,4.6141848564148,8,Stim_B.csv,I_JOL_B.csv,"Item D",Item,Frog,Frog,U1,Unrelated,13,21,JOL,User,1,"How likely are you to correctly recall the second item in the pair?|Type your response on a scale from 0-100 and then press Enter.",Related,R1,4449,,,4035,4094,,,,52,0.261
600d14cfdc7ef74ca39fd9ed,ilcrxidpzl,Ex2A_Prolific,1,34,2023-12-20T19:19:35+00:00,1.3860580921173,8,Stim_B.csv,I_JOL_B.csv,"Item D",Item,,,,,,0,Instruct,User,-,"You have completed this section. Please click next.",,Instruct166,1226,,,-1,-1,,,,,1
600d14cfdc7ef74ca39fd9ed,ilcrxidpzl,Ex2A_Prolific,1,35,2023-12-20T19:20:05+00:00,30.197996854782,8,Stim_B.csv,I_JOL_B.csv,"Item D",Item,,,,,,0,FreeRecall,30,30,"Please type as many words as you can that begin with the letter ""C"". The computer will automatically advance to the next screen in 30 seconds.",Related,FILLER,30001,"Cat, crayon, colour, camping, crate, create, code, canon, ",0,1781,27123,0,0,,,1
600d14cfdc7ef74ca39fd9ed,ilcrxidpzl,Ex2A_Prolific,1,36,2023-12-20T19:20:12+00:00,7.2218990325928,8,Stim_B.csv,I_JOL_B.csv,"Item D",Item,,,,,,0,Instruct,User,-,"You will now complete a memory test for the words you just studied. Spelling will not count against you and you can recall the words in any order. This test will be timed for one minute, and the computer will automatically advance once time is up. Click next when you are ready to begin.",,Instruct1666,7050,,,-1,-1,,,,,1
600d14cfdc7ef74ca39fd9ed,ilcrxidpzl,Ex2A_Prolific,1,37,2023-12-20T19:21:17+00:00,65.306943178177,8,Stim_B.csv,I_JOL_B.csv,"Item D",Item,,,,,,0,FreeRecall,65,65,"Please type from memory the words studied in the previous list. Spelling will not count against you and you can recall the words in any order. This test is timed for ONE MINUTE, and the computer will automatically advance once time is up.",Related,RECALL_Test2,65002,"Bed, yellow, shirt, document, mint, slow, dirt ",0,1877,35166,0,0,,,0.572
600d14cfdc7ef74ca39fd9ed,ilcrxidpzl,Ex2A_Prolific,1,38,2023-12-20T19:21:53+00:00,35.558304786682,8,Stim_B.csv,I_JOL_B.csv,"Item D",Item,,,,,,0,Instruct,User,3,"You will now be presented with a new study list. Click next when you are ready to begin.",,NEXT_LIST,35368,,,-1,-1,,,,,0
600d14cfdc7ef74ca39fd9ed,ilcrxidpzl,Ex2A_Prolific,1,39,2023-12-20T19:22:02+00:00,9.0320920944214,8,Stim_B.csv,I_JOL_B.csv,"Item D",Item,Hallway,Hallway,R2,Related,35,36,JOL,User,1,"How likely are you to correctly recall the second item in the pair?|Type your response on a scale from 0-100 and then press Enter.",Unrelated,U2,8859,,,5540,5646,,,,31,0.4
600d14cfdc7ef74ca39fd9ed,ilcrxidpzl,Ex2A_Prolific,1,40,2023-12-20T19:22:12+00:00,10.461395978928,8,Stim_B.csv,I_JOL_B.csv,"Item D",Item,Elevator,Elevator,R2,Related,33,34,JOL,User,1,"How likely are you to correctly recall the second item in the pair?|Type your response on a scale from 0-100 and then press Enter.",Unrelated,U2,10262,,,6874,7789,,,,63,0.404
600d14cfdc7ef74ca39fd9ed,ilcrxidpzl,Ex2A_Prolific,1,41,2023-12-20T19:22:21+00:00,8.553337097168,8,Stim_B.csv,I_JOL_B.csv,"Item D",Item,Window,Window,R2,Related,28,29,JOL,User,1,"How likely are you to correctly recall the second item in the pair?|Type your response on a scale from 0-100 and then press Enter.",Unrelated,U2,8365,,,7398,7609,,,,76,0.286
600d14cfdc7ef74ca39fd9ed,ilcrxidpzl,Ex2A_Prolific,1,42,2023-12-20T19:22:29+00:00,7.9831328392029,8,Stim_B.csv,I_JOL_B.csv,"Item D",Item,Floor,Floor,R2,Related,31,26,JOL,User,1,"How likely are you to correctly recall the second item in the pair?|Type your response on a scale from 0-100 and then press Enter.",Unrelated,U2,7815,,,5228,5657,,,,71,0.35
600d14cfdc7ef74ca39fd9ed,ilcrxidpzl,Ex2A_Prolific,1,43,2023-12-20T19:22:37+00:00,7.8208181858063,8,Stim_B.csv,I_JOL_B.csv,"Item D",Item,Wall,Wall,R2,Related,29,33,JOL,User,1,"How likely are you to correctly recall the second item in the pair?|Type your response on a scale from 0-100 and then press Enter.",Unrelated,U2,7642,,,6923,7358,,,,81,0.205
600d14cfdc7ef74ca39fd9ed,ilcrxidpzl,Ex2A_Prolific,1,44,2023-12-20T19:22:42+00:00,4.979859828949,8,Stim_B.csv,I_JOL_B.csv,"Item D",Item,Basement,Basement,R2,Related,26,32,JOL,User,1,"How likely are you to correctly recall the second item in the pair?|Type your response on a scale from 0-100 and then press Enter.",Unrelated,U2,4800,,,4415,4481,,,,61,0.167
600d14cfdc7ef74ca39fd9ed,ilcrxidpzl,Ex2A_Prolific,1,45,2023-12-20T19:22:49+00:00,7.0179941654205,8,Stim_B.csv,I_JOL_B.csv,"Item D",Item,Ceiling,Ceiling,R2,Related,25,28,JOL,User,1,"How likely are you to correctly recall the second item in the pair?|Type your response on a scale from 0-100 and then press Enter.",Unrelated,U2,6846,,,6489,6545,,,,26,0.143
600d14cfdc7ef74ca39fd9ed,ilcrxidpzl,Ex2A_Prolific,1,46,2023-12-20T19:22:55+00:00,6.3686180114746,8,Stim_B.csv,I_JOL_B.csv,"Item D",Item,Attic,Attic,R2,Related,34,37,JOL,User,1,"How likely are you to correctly recall the second item in the pair?|Type your response on a scale from 0-100 and then press Enter.",Unrelated,U2,6198,,,4046,4132,,,,16,0.194
600d14cfdc7ef74ca39fd9ed,ilcrxidpzl,Ex2A_Prolific,1,47,2023-12-20T19:23:01+00:00,6.3498640060425,8,Stim_B.csv,I_JOL_B.csv,"Item D",Item,Roof,Roof,R2,Related,36,35,JOL,User,1,"How likely are you to correctly recall the second item in the pair?|Type your response on a scale from 0-100 and then press Enter.",Unrelated,U2,6186,,,4991,5510,,,,84,0.323
600d14cfdc7ef74ca39fd9ed,ilcrxidpzl,Ex2A_Prolific,1,48,2023-12-20T19:23:09+00:00,7.4462289810181,8,Stim_B.csv,I_JOL_B.csv,"Item D",Item,Bathroom,Bathroom,R2,Related,27,30,JOL,User,1,"How likely are you to correctly recall the second item in the pair?|Type your response on a scale from 0-100 and then press Enter.",Unrelated,U2,7275,,,4094,4144,,,,97,0.27
600d14cfdc7ef74ca39fd9ed,ilcrxidpzl,Ex2A_Prolific,1,49,2023-12-20T19:23:15+00:00,6.323930978775,8,Stim_B.csv,I_JOL_B.csv,"Item D",Item,Stairs,Stairs,R2,Related,32,31,JOL,User,1,"How likely are you to correctly recall the second item in the pair?|Type your response on a scale from 0-100 and then press Enter.",Unrelated,U2,6086,,,5708,5775,,,,75,0.226
600d14cfdc7ef74ca39fd9ed,ilcrxidpzl,Ex2A_Prolific,1,50,2023-12-20T19:23:20+00:00,4.7916779518127,8,Stim_B.csv,I_JOL_B.csv,"Item D",Item,Door,Door,R2,Related,30,27,JOL,User,1,"How likely are you to correctly recall the second item in the pair?|Type your response on a scale from 0-100 and then press Enter.",Unrelated,U2,4610,,,3831,4083,,,,66,0.375
600d14cfdc7ef74ca39fd9ed,ilcrxidpzl,Ex2A_Prolific,1,51,2023-12-20T19:23:26+00:00,5.614443063736,8,Stim_B.csv,I_JOL_B.csv,"Item D",Item,,,,,,0,Instruct,User,-,"You have completed this section. Please click next.",,Instruct166,5441,,,-1,-1,,,,,0.107
600d14cfdc7ef74ca39fd9ed,ilcrxidpzl,Ex2A_Prolific,1,52,2023-12-20T19:23:56+00:00,30.218410968781,8,Stim_B.csv,I_JOL_B.csv,"Item D",Item,,,,,,0,FreeRecall,30,30,"Please type as many words as you can that begin with the letter ""L"". The computer will automatically advance to the next screen in 30 seconds.",Related,FILLER,30001,"Loser, love lust, lost, lemon, light, laser, lay, lie, lion, leea",0,1880,29689,0,0,,,1
600d14cfdc7ef74ca39fd9ed,ilcrxidpzl,Ex2A_Prolific,1,53,2023-12-20T19:24:00+00:00,3.7431769371033,8,Stim_B.csv,I_JOL_B.csv,"Item D",Item,,,,,,0,Instruct,User,-,"You have completed this section. Please click next.",,Instruct166,3556,,,-1,-1,,,,,1
600d14cfdc7ef74ca39fd9ed,ilcrxidpzl,Ex2A_Prolific,1,54,2023-12-20T19:25:05+00:00,65.306708097458,8,Stim_B.csv,I_JOL_B.csv,"Item D",Item,,,,,,0,FreeRecall,65,65,"Please type from memory the words studied in the previous list. Spelling will not count against you and you can recall the words in any order. This test is timed for ONE MINUTE, and the computer will automatically advance once time is up.",Unrelated,RECALL_Test3,65001,"Wall, bathroom, roof, stairs, window, door ",0,4047,28665,0,0,,,0.468
600d14cfdc7ef74ca39fd9ed,ilcrxidpzl,Ex2A_Prolific,1,55,2023-12-20T19:25:14+00:00,9.1634709835052,8,Stim_B.csv,I_JOL_B.csv,"Item D",Item,,,,,,0,Instruct,User,3,"You will now be presented with a new study list. Click next when you are ready to begin.",,NEXT_LIST,8993,,,-1,-1,,,,,0
600d14cfdc7ef74ca39fd9ed,ilcrxidpzl,Ex2A_Prolific,1,56,2023-12-20T19:25:19+00:00,4.6189939975739,8,Stim_B.csv,I_JOL_B.csv,"Item D",Item,Drill,Drill,U2,Unrelated,45,44,JOL,User,1,"How likely are you to correctly recall the second item in the pair?|Type your response on a scale from 0-100 and then press Enter.",Related,R2,4434,,,3983,4165,,,,44,0.217
600d14cfdc7ef74ca39fd9ed,ilcrxidpzl,Ex2A_Prolific,1,57,2023-12-20T19:25:26+00:00,7.2142758369446,8,Stim_B.csv,I_JOL_B.csv,"Item D",Item,Fossil,Fossil,U2,Unrelated,43,46,JOL,User,1,"How likely are you to correctly recall the second item in the pair?|Type your response on a scale from 0-100 and then press Enter.",Related,R2,7052,,,5972,6345,,,,70,0.278
600d14cfdc7ef74ca39fd9ed,ilcrxidpzl,Ex2A_Prolific,1,58,2023-12-20T19:25:33+00:00,6.7218401432037,8,Stim_B.csv,I_JOL_B.csv,"Item D",Item,Salt,Salt,U2,Unrelated,39,43,JOL,User,1,"How likely are you to correctly recall the second item in the pair?|Type your response on a scale from 0-100 and then press Enter.",Related,R2,6519,,,6144,6205,,,,65,0.182
600d14cfdc7ef74ca39fd9ed,ilcrxidpzl,Ex2A_Prolific,1,59,2023-12-20T19:25:38+00:00,5.9597449302673,8,Stim_B.csv,I_JOL_B.csv,"Item D",Item,Mother,Mother,U2,Unrelated,44,49,JOL,User,1,"How likely are you to correctly recall the second item in the pair?|Type your response on a scale from 0-100 and then press Enter.",Related,R2,5770,,,5201,5383,,,,99,0.379
600d14cfdc7ef74ca39fd9ed,ilcrxidpzl,Ex2A_Prolific,1,60,2023-12-20T19:25:43+00:00,4.9961309432983,8,Stim_B.csv,I_JOL_B.csv,"Item D",Item,Phone,Phone,U2,Unrelated,47,41,JOL,User,1,"How likely are you to correctly recall the second item in the pair?|Type your response on a scale from 0-100 and then press Enter.",Related,R2,4816,,,4447,4495,,,,89,0.24
600d14cfdc7ef74ca39fd9ed,ilcrxidpzl,Ex2A_Prolific,1,61,2023-12-20T19:25:48+00:00,4.9733061790466,8,Stim_B.csv,I_JOL_B.csv,"Item D",Item,Cloud,Cloud,U2,Unrelated,40,45,JOL,User,1,"How likely are you to correctly recall the second item in the pair?|Type your response on a scale from 0-100 and then press Enter.",Related,R2,4807,,,4396,4451,,,,78,0.24
600d14cfdc7ef74ca39fd9ed,ilcrxidpzl,Ex2A_Prolific,1,62,2023-12-20T19:25:55+00:00,6.3000349998474,8,Stim_B.csv,I_JOL_B.csv,"Item D",Item,Tent,Tent,U2,Unrelated,46,39,JOL,User,1,"How likely are you to correctly recall the second item in the pair?|Type your response on a scale from 0-100 and then press Enter.",Related,R2,6122,,,5784,5858,,,,32,0.161
600d14cfdc7ef74ca39fd9ed,ilcrxidpzl,Ex2A_Prolific,1,63,2023-12-20T19:25:59+00:00,4.3877379894257,8,Stim_B.csv,I_JOL_B.csv,"Item D",Item,Flute,Flute,U2,Unrelated,38,40,JOL,User,1,"How likely are you to correctly recall the second item in the pair?|Type your response on a scale from 0-100 and then press Enter.",Related,R2,4205,,,3742,3933,,,,45,0.273
600d14cfdc7ef74ca39fd9ed,ilcrxidpzl,Ex2A_Prolific,1,64,2023-12-20T19:26:04+00:00,5.0273599624634,8,Stim_B.csv,I_JOL_B.csv,"Item D",Item,Cook,Cook,U2,Unrelated,42,47,JOL,User,1,"How likely are you to correctly recall the second item in the pair?|Type your response on a scale from 0-100 and then press Enter.",Related,R2,4860,,,4104,4326,,,,74,0.28
600d14cfdc7ef74ca39fd9ed,ilcrxidpzl,Ex2A_Prolific,1,65,2023-12-20T19:26:09+00:00,4.6621279716492,8,Stim_B.csv,I_JOL_B.csv,"Item D",Item,Basket,Basket,U2,Unrelated,41,38,JOL,User,1,"How likely are you to correctly recall the second item in the pair?|Type your response on a scale from 0-100 and then press Enter.",Related,R2,4476,,,3546,3995,,,,29,0.261
600d14cfdc7ef74ca39fd9ed,ilcrxidpzl,Ex2A_Prolific,1,66,2023-12-20T19:26:13+00:00,4.1385939121246,8,Stim_B.csv,I_JOL_B.csv,"Item D",Item,Card,Card,U2,Unrelated,37,42,JOL,User,1,"How likely are you to correctly recall the second item in the pair?|Type your response on a scale from 0-100 and then press Enter.",Related,R2,3967,,,3644,3729,,,,51,0.2
600d14cfdc7ef74ca39fd9ed,ilcrxidpzl,Ex2A_Prolific,1,67,2023-12-20T19:26:17+00:00,3.9229910373688,8,Stim_B.csv,I_JOL_B.csv,"Item D",Item,Rest,Rest,U2,Unrelated,48,48,JOL,User,1,"How likely are you to correctly recall the second item in the pair?|Type your response on a scale from 0-100 and then press Enter.",Related,R2,3761,,,3440,3490,,,,76,0.211
600d14cfdc7ef74ca39fd9ed,ilcrxidpzl,Ex2A_Prolific,1,68,2023-12-20T19:26:20+00:00,2.7476179599762,8,Stim_B.csv,I_JOL_B.csv,"Item D",Item,,,,,,0,Instruct,User,-,"You have completed this section. Please click next.",,Instruct166,2586,,,-1,-1,,,,,0.308
600d14cfdc7ef74ca39fd9ed,ilcrxidpzl,Ex2A_Prolific,1,69,2023-12-20T19:26:50+00:00,30.170350074768,8,Stim_B.csv,I_JOL_B.csv,"Item D",Item,,,,,,0,FreeRecall,30,30,"Please type as many words as you can that begin with the letter ""M"". The computer will automatically advance to the next screen in 30 seconds.",Unrelated,FILLER,30001,"Mother, mom, maid, mistress, many, more, mine, marry, mind, ",0,1372,27347,0,0,,,0.973
600d14cfdc7ef74ca39fd9ed,ilcrxidpzl,Ex2A_Prolific,1,70,2023-12-20T19:26:56+00:00,5.7520439624786,8,Stim_B.csv,I_JOL_B.csv,"Item D",Item,,,,,,0,Instruct,User,-,"You will now complete a memory test for the words you just studied. Spelling will not count against you and you can recall the words in any order. This test will be timed for one minute, and the computer will automatically advance once time is up. Click next when you are ready to begin.",,Instruct1666,5590,,,-1,-1,,,,,0
600d14cfdc7ef74ca39fd9ed,ilcrxidpzl,Ex2A_Prolific,1,71,2023-12-20T19:28:01+00:00,65.303540945053,8,Stim_B.csv,I_JOL_B.csv,"Item D",Item,,,,,,0,FreeRecall,65,65,"Please type from memory the words studied in the previous list. Spelling will not count against you and you can recall the words in any order. This test is timed for ONE MINUTE, and the computer will automatically advance once time is up.",Related,RECALL_Test4,65001,"Rest, mother, card, cook, phone, fossil, ",0,1934,11870,0,0,,,0.892
600d14cfdc7ef74ca39fd9ed,ilcrxidpzl,Ex2A_Prolific,1,72,2023-12-20T19:28:05+00:00,4.4012570381165,8,Stim_B.csv,I_JOL_B.csv,"Item D",Item,,,,,,0,Instruct,User,-,"You have completed this section. Please click next.",,Instruct7,4189,,,-1,-1,,,,,0.429
600d14cfdc7ef74ca39fd9ed,ilcrxidpzl,Ex2A_Prolific,1,73,2023-12-20T19:28:09+00:00,3.7705860137939,8,Stim_B.csv,I_JOL_B.csv,"Item D",Item,,,,,,0,Instruct,User,-,"The following screen will ask you a few questions abour your experience today. You must complete these questions to receive credit.",,Instruct8,3581,,,-1,-1,,,,,1
