Username,ID,ExperimentName,Session,Trial,Date,TimeDif,"Condition Number","Stimuli File","Order File","Condition Description","Condition Notes",Stimuli*Cue,Stimuli*Answer,Stimuli*Shuffle,"Stimuli*Stimuli Notes",Stimuli*Value,Procedure*Item,"Procedure*Trial Type","Procedure*Max Time","Procedure*Min Time",Procedure*Text,"Procedure*Procedure Notes",Procedure*Shuffle,Response*RT,Response*Response,Response*Accuracy,Response*RTfirst,Response*RTlast,Response*strictAcc,Response*lenientAcc,Response*focus,Response*JOL,Response*Focus
5cee69353057030001b33fc4,bsbkbtk3a3,Ex2A_Prolific,1,1,2023-12-20T21:26:34+00:00,6.025710105896,3,Stim_A.csv,G_JOL_B.csv,"Global C",Global,,,,,,0,Instruct,-,5,"In this section, you will be presented with a series of words. Please study each word carefully. Your memory will be tested!",Initial_Instruct,Instruct1,5914,,,-1,-1,,,,,1
5cee69353057030001b33fc4,bsbkbtk3a3,Ex2A_Prolific,1,2,2023-12-20T21:26:55+00:00,21.602949857712,3,Stim_A.csv,G_JOL_B.csv,"Global C",Global,,,,,,0,Instruct,User,5,"After studying each LIST of words, you will be asked to rate your ability to remember ALL of the words in the list on a later test. You will make these ratings using a scale of 0 to 100. A rating of 0 = WILL NOT REMEMBER, while a rating of 100 = WILL DEFINITELY REMEMBER. Please try to be as accurate as possible with these ratings!",,BLIPBLOOP,21417,,,-1,-1,,,,,1
5cee69353057030001b33fc4,bsbkbtk3a3,Ex2A_Prolific,1,3,2023-12-20T21:26:57+00:00,1.4145569801331,3,Stim_A.csv,G_JOL_B.csv,"Global C",Global,,,,,,0,Instruct,User,-,"You will now begin the study. Click next when you are ready to begin.",,Instruct16,1258,,,-1,-1,,,,,1
5cee69353057030001b33fc4,bsbkbtk3a3,Ex2A_Prolific,1,4,2023-12-20T21:27:00+00:00,2.8182990550995,3,Stim_A.csv,G_JOL_B.csv,"Global C",Global,Rock,Rock,R1,Related,5,8,Study,User,1,,Related,R1,2632,,,-1,-1,,,,,1
5cee69353057030001b33fc4,bsbkbtk3a3,Ex2A_Prolific,1,5,2023-12-20T21:27:03+00:00,3.0749690532684,3,Stim_A.csv,G_JOL_B.csv,"Global C",Global,Lake,Lake,R1,Related,10,11,Study,User,1,,Related,R1,2913,,,-1,-1,,,,,1
5cee69353057030001b33fc4,bsbkbtk3a3,Ex2A_Prolific,1,6,2023-12-20T21:27:07+00:00,3.81294298172,3,Stim_A.csv,G_JOL_B.csv,"Global C",Global,Cave,Cave,R1,Related,11,5,Study,User,1,,Related,R1,3660,,,-1,-1,,,,,1
5cee69353057030001b33fc4,bsbkbtk3a3,Ex2A_Prolific,1,7,2023-12-20T21:27:10+00:00,3.5866720676422,3,Stim_A.csv,G_JOL_B.csv,"Global C",Global,Hill,Hill,R1,Related,6,9,Study,User,1,,Related,R1,3422,,,-1,-1,,,,,1
5cee69353057030001b33fc4,bsbkbtk3a3,Ex2A_Prolific,1,8,2023-12-20T21:27:13+00:00,3.0679838657379,3,Stim_A.csv,G_JOL_B.csv,"Global C",Global,Glacier,Glacier,R1,Related,12,6,Study,User,1,,Related,R1,2911,,,-1,-1,,,,,1
5cee69353057030001b33fc4,bsbkbtk3a3,Ex2A_Prolific,1,9,2023-12-20T21:27:17+00:00,3.9147961139679,3,Stim_A.csv,G_JOL_B.csv,"Global C",Global,Volcano,Volcano,R1,Related,4,3,Study,User,1,,Related,R1,3746,,,-1,-1,,,,,1
5cee69353057030001b33fc4,bsbkbtk3a3,Ex2A_Prolific,1,10,2023-12-20T21:27:20+00:00,3.1433198451996,3,Stim_A.csv,G_JOL_B.csv,"Global C",Global,Canyon,Canyon,R1,Related,3,13,Study,User,1,,Related,R1,2984,,,-1,-1,,,,,1
5cee69353057030001b33fc4,bsbkbtk3a3,Ex2A_Prolific,1,11,2023-12-20T21:27:24+00:00,3.7157611846924,3,Stim_A.csv,G_JOL_B.csv,"Global C",Global,River,River,R1,Related,2,7,Study,User,1,,Related,R1,3555,,,-1,-1,,,,,1
5cee69353057030001b33fc4,bsbkbtk3a3,Ex2A_Prolific,1,12,2023-12-20T21:27:29+00:00,4.8853240013123,3,Stim_A.csv,G_JOL_B.csv,"Global C",Global,Ocean,Ocean,R1,Related,8,12,Study,User,1,,Related,R1,4723,,,-1,-1,,,,,1
5cee69353057030001b33fc4,bsbkbtk3a3,Ex2A_Prolific,1,13,2023-12-20T21:27:33+00:00,3.6046547889709,3,Stim_A.csv,G_JOL_B.csv,"Global C",Global,Valley,Valley,R1,Related,1,4,Study,User,1,,Related,R1,3413,,,-1,-1,,,,,1
5cee69353057030001b33fc4,bsbkbtk3a3,Ex2A_Prolific,1,14,2023-12-20T21:27:35+00:00,2.834370136261,3,Stim_A.csv,G_JOL_B.csv,"Global C",Global,Island,Island,R1,Related,9,10,Study,User,1,,Related,R1,2679,,,-1,-1,,,,,1
5cee69353057030001b33fc4,bsbkbtk3a3,Ex2A_Prolific,1,15,2023-12-20T21:27:38+00:00,2.5847110748291,3,Stim_A.csv,G_JOL_B.csv,"Global C",Global,Mountain,Mountain,R1,Related,7,2,Study,User,1,,Related,R1,2430,,,-1,-1,,,,,1
5cee69353057030001b33fc4,bsbkbtk3a3,Ex2A_Prolific,1,16,2023-12-20T21:27:44+00:00,5.8685548305511,3,Stim_A.csv,G_JOL_B.csv,"Global C",Global,,,,,,0,Instruct,User,-,"You have completed this section and will now be asked to judge your ability to remember the list items. You will have five seconds to type your rating. Please click next to continue.",,Next_List1,5713,,,-1,-1,,,,,1
5cee69353057030001b33fc4,bsbkbtk3a3,Ex2A_Prolific,1,17,2023-12-20T21:27:50+00:00,6.1987161636353,3,Stim_A.csv,G_JOL_B.csv,"Global C",Global,,,,,,0,JOL_GLOBAL,6,6,"How likely are you to correctly recall each of the items you just studied?|Type your response on a scale from 0-100 and then press Enter (0 = WILL NOT REMEMBER; 100 = DEFINITELY WILL REMEMBER).",Related,JOL1,6001,,,3883,3986,,,,30,1
5cee69353057030001b33fc4,bsbkbtk3a3,Ex2A_Prolific,1,18,2023-12-20T21:27:52+00:00,2.300488948822,3,Stim_A.csv,G_JOL_B.csv,"Global C",Global,,,,,,0,Instruct,User,-,"You have completed this section. Please click next.",,Instruct166,2138,,,-1,-1,,,,,1
5cee69353057030001b33fc4,bsbkbtk3a3,Ex2A_Prolific,1,19,2023-12-20T21:28:22+00:00,30.166553020477,3,Stim_A.csv,G_JOL_B.csv,"Global C",Global,,,,,,0,FreeRecall,30,30,"Please type as many words as you can that begin with the letter ""C"". The computer will automatically advance to the next screen in 30 seconds.",,FILLER,30002,"Canyon crayon creek clock ",0,8854,29675,0,0,,,1
5cee69353057030001b33fc4,bsbkbtk3a3,Ex2A_Prolific,1,20,2023-12-20T21:28:26+00:00,3.7112069129944,3,Stim_A.csv,G_JOL_B.csv,"Global C",Global,,,,,,0,Instruct,User,-,"You have completed this section. Please click next.",,Instruct166,3556,,,-1,-1,,,,,1
5cee69353057030001b33fc4,bsbkbtk3a3,Ex2A_Prolific,1,21,2023-12-20T21:29:31+00:00,65.295371055603,3,Stim_A.csv,G_JOL_B.csv,"Global C",Global,,,,,,0,FreeRecall,65,65,"Please type from memory the words studied in the previous list. Spelling will not count against you and you can recall the words in any order. This test is timed for ONE MINUTE, and the computer will automatically advance once time is up.",Related,RECALL_Test1,65001,"rock hill cave canyon volcano glacier valley ocean cave river ",0,7391,50188,0,0,,,1
5cee69353057030001b33fc4,bsbkbtk3a3,Ex2A_Prolific,1,22,2023-12-20T21:29:35+00:00,3.968456029892,3,Stim_A.csv,G_JOL_B.csv,"Global C",Global,,,,,,0,Instruct,User,3,"You will now be presented with a new study list. Click next when you are ready to begin.",,NEXT_LIST,3785,,,-1,-1,,,,,1
5cee69353057030001b33fc4,bsbkbtk3a3,Ex2A_Prolific,1,23,2023-12-20T21:29:38+00:00,2.1911928653717,3,Stim_A.csv,G_JOL_B.csv,"Global C",Global,Pants,Pants,U1,Unrelated,17,20,Study,User,1,,Unrelated,U1,2018,,,-1,-1,,,,,1
5cee69353057030001b33fc4,bsbkbtk3a3,Ex2A_Prolific,1,24,2023-12-20T21:29:41+00:00,3.1697361469269,3,Stim_A.csv,G_JOL_B.csv,"Global C",Global,Mayor,Mayor,U1,Unrelated,14,24,Study,User,1,,Unrelated,U1,3009,,,-1,-1,,,,,1
5cee69353057030001b33fc4,bsbkbtk3a3,Ex2A_Prolific,1,25,2023-12-20T21:29:43+00:00,2.0795369148254,3,Stim_A.csv,G_JOL_B.csv,"Global C",Global,Parrot,Parrot,U1,Unrelated,21,15,Study,User,1,,Unrelated,U1,1931,,,-1,-1,,,,,1
5cee69353057030001b33fc4,bsbkbtk3a3,Ex2A_Prolific,1,26,2023-12-20T21:29:46+00:00,3.34161901474,3,Stim_A.csv,G_JOL_B.csv,"Global C",Global,Jeep,Jeep,U1,Unrelated,23,22,Study,User,1,,Unrelated,U1,3187,,,-1,-1,,,,,1
5cee69353057030001b33fc4,bsbkbtk3a3,Ex2A_Prolific,1,27,2023-12-20T21:29:50+00:00,3.3424880504608,3,Stim_A.csv,G_JOL_B.csv,"Global C",Global,Dollar,Dollar,U1,Unrelated,20,17,Study,User,1,,Unrelated,U1,3188,,,-1,-1,,,,,1
5cee69353057030001b33fc4,bsbkbtk3a3,Ex2A_Prolific,1,28,2023-12-20T21:29:52+00:00,2.442370891571,3,Stim_A.csv,G_JOL_B.csv,"Global C",Global,Student,Student,U1,Unrelated,15,16,Study,User,1,,Unrelated,U1,2287,,,-1,-1,,,,,1
5cee69353057030001b33fc4,bsbkbtk3a3,Ex2A_Prolific,1,29,2023-12-20T21:29:56+00:00,3.7132549285889,3,Stim_A.csv,G_JOL_B.csv,"Global C",Global,Rifle,Rifle,U1,Unrelated,13,18,Study,User,1,,Unrelated,U1,3559,,,-1,-1,,,,,1
5cee69353057030001b33fc4,bsbkbtk3a3,Ex2A_Prolific,1,30,2023-12-20T21:29:59+00:00,3.6606910228729,3,Stim_A.csv,G_JOL_B.csv,"Global C",Global,Oxygen,Oxygen,U1,Unrelated,18,14,Study,User,1,,Unrelated,U1,3487,,,-1,-1,,,,,1
5cee69353057030001b33fc4,bsbkbtk3a3,Ex2A_Prolific,1,31,2023-12-20T21:30:03+00:00,3.4776101112366,3,Stim_A.csv,G_JOL_B.csv,"Global C",Global,Hockey,Hockey,U1,Unrelated,16,19,Study,User,1,,Unrelated,U1,3327,,,-1,-1,,,,,1
5cee69353057030001b33fc4,bsbkbtk3a3,Ex2A_Prolific,1,32,2023-12-20T21:30:06+00:00,3.5425930023193,3,Stim_A.csv,G_JOL_B.csv,"Global C",Global,Ballet,Ballet,U1,Unrelated,24,23,Study,User,1,,Unrelated,U1,3365,,,-1,-1,,,,,1
5cee69353057030001b33fc4,bsbkbtk3a3,Ex2A_Prolific,1,33,2023-12-20T21:30:09+00:00,2.8085379600525,3,Stim_A.csv,G_JOL_B.csv,"Global C",Global,Milk,Milk,U1,Unrelated,22,21,Study,User,1,,Unrelated,U1,2645,,,-1,-1,,,,,1
5cee69353057030001b33fc4,bsbkbtk3a3,Ex2A_Prolific,1,34,2023-12-20T21:30:12+00:00,2.5181491374969,3,Stim_A.csv,G_JOL_B.csv,"Global C",Global,Guitar,Guitar,U1,Unrelated,19,25,Study,User,1,,Unrelated,U1,2357,,,-1,-1,,,,,1
5cee69353057030001b33fc4,bsbkbtk3a3,Ex2A_Prolific,1,35,2023-12-20T21:30:15+00:00,3.2241268157959,3,Stim_A.csv,G_JOL_B.csv,"Global C",Global,,,,,,0,Instruct,User,-,"You have completed this section and will now be asked to judge your ability to remember the list items. You will have five seconds to type your rating. Please click next to continue.",,Next_List1,3061,,,-1,-1,,,,,1
5cee69353057030001b33fc4,bsbkbtk3a3,Ex2A_Prolific,1,36,2023-12-20T21:30:21+00:00,6.184296131134,3,Stim_A.csv,G_JOL_B.csv,"Global C",Global,,,,,,0,JOL_GLOBAL,6,6,"How likely are you to correctly recall each of the items you just studied?|Type your response on a scale from 0-100 and then press Enter (0 = WILL NOT REMEMBER; 100 = DEFINITELY WILL REMEMBER).",Unrelated,JOL2,6002,,,1609,1609,,,,0,1
5cee69353057030001b33fc4,bsbkbtk3a3,Ex2A_Prolific,1,37,2023-12-20T21:30:22+00:00,1.1100540161133,3,Stim_A.csv,G_JOL_B.csv,"Global C",Global,,,,,,0,Instruct,User,-,"You have completed this section. Please click next.",,Instruct166,945,,,-1,-1,,,,,1
5cee69353057030001b33fc4,bsbkbtk3a3,Ex2A_Prolific,1,38,2023-12-20T21:30:52+00:00,30.17417883873,3,Stim_A.csv,G_JOL_B.csv,"Global C",Global,,,,,,0,FreeRecall,30,30,"Please type as many words as you can that begin with the letter ""K"". The computer will automatically advance to the next screen in 30 seconds.",,FILLER,30001,"kick klondike kangaroo kook knee knuckle ",0,4445,29899,0,0,,,1
5cee69353057030001b33fc4,bsbkbtk3a3,Ex2A_Prolific,1,39,2023-12-20T21:30:56+00:00,3.7206370830536,3,Stim_A.csv,G_JOL_B.csv,"Global C",Global,,,,,,0,Instruct,User,-,"You have completed this section. Please click next.",,Instruct166,3555,,,-1,-1,,,,,1
5cee69353057030001b33fc4,bsbkbtk3a3,Ex2A_Prolific,1,40,2023-12-20T21:32:01+00:00,65.307560920715,3,Stim_A.csv,G_JOL_B.csv,"Global C",Global,,,,,,0,FreeRecall,65,65,"Please type from memory the words studied in the previous list. Spelling will not count against you and you can recall the words in any order. This test is timed for ONE MINUTE, and the computer will automatically advance once time is up.",Unrelated,RECALL_Test2,65001,"pants mayor Jeep hockey oxygen guitar ",0,2156,25666,0,0,,,1
5cee69353057030001b33fc4,bsbkbtk3a3,Ex2A_Prolific,1,41,2023-12-20T21:32:05+00:00,3.6985399723053,3,Stim_A.csv,G_JOL_B.csv,"Global C",Global,,,,,,0,Instruct,User,3,"You will now be presented with a new study list. Click next when you are ready to begin.",,NEXT_LIST,3484,,,-1,-1,,,,,1
5cee69353057030001b33fc4,bsbkbtk3a3,Ex2A_Prolific,1,42,2023-12-20T21:32:07+00:00,2.0427951812744,3,Stim_A.csv,G_JOL_B.csv,"Global C",Global,Cow,Cow,R2,Related,36,32,Study,User,1,,Related,R2,1812,,,-1,-1,,,,,1
5cee69353057030001b33fc4,bsbkbtk3a3,Ex2A_Prolific,1,43,2023-12-20T21:32:11+00:00,3.3235878944397,3,Stim_A.csv,G_JOL_B.csv,"Global C",Global,Bear,Bear,R2,Related,35,29,Study,User,1,,Related,R2,3138,,,-1,-1,,,,,1
5cee69353057030001b33fc4,bsbkbtk3a3,Ex2A_Prolific,1,44,2023-12-20T21:32:13+00:00,2.7962820529938,3,Stim_A.csv,G_JOL_B.csv,"Global C",Global,Donkey,Donkey,R2,Related,34,30,Study,User,1,,Related,R2,2641,,,-1,-1,,,,,1
5cee69353057030001b33fc4,bsbkbtk3a3,Ex2A_Prolific,1,45,2023-12-20T21:32:16+00:00,2.304671049118,3,Stim_A.csv,G_JOL_B.csv,"Global C",Global,Girraffe,Girraffe,R2,Related,31,36,Study,User,1,,Related,R2,2147,,,-1,-1,,,,,1
5cee69353057030001b33fc4,bsbkbtk3a3,Ex2A_Prolific,1,46,2023-12-20T21:32:19+00:00,3.2549469470978,3,Stim_A.csv,G_JOL_B.csv,"Global C",Global,Wolf,Wolf,R2,Related,29,28,Study,User,1,,Related,R2,3100,,,-1,-1,,,,,1
5cee69353057030001b33fc4,bsbkbtk3a3,Ex2A_Prolific,1,47,2023-12-20T21:32:22+00:00,3.1270930767059,3,Stim_A.csv,G_JOL_B.csv,"Global C",Global,Elephant,Elephant,R2,Related,32,35,Study,User,1,,Related,R2,2957,,,-1,-1,,,,,1
5cee69353057030001b33fc4,bsbkbtk3a3,Ex2A_Prolific,1,48,2023-12-20T21:32:24+00:00,1.9941258430481,3,Stim_A.csv,G_JOL_B.csv,"Global C",Global,Tiger,Tiger,R2,Related,25,27,Study,User,1,,Related,R2,1812,,,-1,-1,,,,,1
5cee69353057030001b33fc4,bsbkbtk3a3,Ex2A_Prolific,1,49,2023-12-20T21:32:27+00:00,2.9672930240631,3,Stim_A.csv,G_JOL_B.csv,"Global C",Global,Cheetah,Cheetah,R2,Related,28,26,Study,User,1,,Related,R2,2790,,,-1,-1,,,,,1
5cee69353057030001b33fc4,bsbkbtk3a3,Ex2A_Prolific,1,50,2023-12-20T21:32:30+00:00,2.8998379707336,3,Stim_A.csv,G_JOL_B.csv,"Global C",Global,Cat,Cat,R2,Related,33,33,Study,User,1,,Related,R2,2735,,,-1,-1,,,,,1
5cee69353057030001b33fc4,bsbkbtk3a3,Ex2A_Prolific,1,51,2023-12-20T21:32:33+00:00,2.6995890140533,3,Stim_A.csv,G_JOL_B.csv,"Global C",Global,Goat,Goat,R2,Related,30,37,Study,User,1,,Related,R2,2540,,,-1,-1,,,,,1
5cee69353057030001b33fc4,bsbkbtk3a3,Ex2A_Prolific,1,52,2023-12-20T21:32:35+00:00,2.4273779392242,3,Stim_A.csv,G_JOL_B.csv,"Global C",Global,Lion,Lion,R2,Related,26,31,Study,User,1,,Related,R2,2255,,,-1,-1,,,,,1
5cee69353057030001b33fc4,bsbkbtk3a3,Ex2A_Prolific,1,53,2023-12-20T21:32:37+00:00,2.2534492015839,3,Stim_A.csv,G_JOL_B.csv,"Global C",Global,Zebra,Zebra,R2,Related,27,34,Study,User,1,,Related,R2,2081,,,-1,-1,,,,,1
5cee69353057030001b33fc4,bsbkbtk3a3,Ex2A_Prolific,1,54,2023-12-20T21:32:39+00:00,1.58744597435,3,Stim_A.csv,G_JOL_B.csv,"Global C",Global,,,,,,0,Instruct,User,-,"You have completed this section and will now be asked to judge your ability to remember the list items. You will have five seconds to type your rating. Please click next to continue.",,Next_List1,1420,,,-1,-1,,,,,1
5cee69353057030001b33fc4,bsbkbtk3a3,Ex2A_Prolific,1,55,2023-12-20T21:32:45+00:00,6.213742017746,3,Stim_A.csv,G_JOL_B.csv,"Global C",Global,,,,,,0,JOL_GLOBAL,6,6,"How likely are you to correctly recall each of the items you just studied?|Type your response on a scale from 0-100 and then press Enter (0 = WILL NOT REMEMBER; 100 = DEFINITELY WILL REMEMBER).",Related,JOL3,6001,,,1596,1816,,,,10,1
5cee69353057030001b33fc4,bsbkbtk3a3,Ex2A_Prolific,1,56,2023-12-20T21:32:46+00:00,1.2543129920959,3,Stim_A.csv,G_JOL_B.csv,"Global C",Global,,,,,,0,Instruct,User,-,"You have completed this section. Please click next.",,Instruct166,1096,,,-1,-1,,,,,1
5cee69353057030001b33fc4,bsbkbtk3a3,Ex2A_Prolific,1,57,2023-12-20T21:33:17+00:00,30.214224815369,3,Stim_A.csv,G_JOL_B.csv,"Global C",Global,,,,,,0,FreeRecall,30,30,"Please type as many words as you can that begin with the letter ""M"". The computer will automatically advance to the next screen in 30 seconds.",,FILLER,30003,"mouse moose make mile move must milk monitor mill ",0,1871,29400,0,0,,,1
5cee69353057030001b33fc4,bsbkbtk3a3,Ex2A_Prolific,1,58,2023-12-20T21:33:19+00:00,2.0976982116699,3,Stim_A.csv,G_JOL_B.csv,"Global C",Global,,,,,,0,Instruct,User,-,"You have completed this section. Please click next.",,Instruct166,1946,,,-1,-1,,,,,1
5cee69353057030001b33fc4,bsbkbtk3a3,Ex2A_Prolific,1,59,2023-12-20T21:34:24+00:00,65.290509939194,3,Stim_A.csv,G_JOL_B.csv,"Global C",Global,,,,,,0,FreeRecall,65,65,"Please type from memory the words studied in the previous list. Spelling will not count against you and you can recall the words in any order. This test is timed for ONE MINUTE, and the computer will automatically advance once time is up.",Related,RECALL_Test3,65002,"cow bear cat donkey giraffe cheetah tiger lion goat wolf ",0,1394,29840,0,0,,,1
5cee69353057030001b33fc4,bsbkbtk3a3,Ex2A_Prolific,1,60,2023-12-20T21:34:28+00:00,3.6534850597382,3,Stim_A.csv,G_JOL_B.csv,"Global C",Global,,,,,,0,Instruct,User,3,"You will now be presented with a new study list. Click next when you are ready to begin.",,NEXT_LIST,3443,,,-1,-1,,,,,1
5cee69353057030001b33fc4,bsbkbtk3a3,Ex2A_Prolific,1,61,2023-12-20T21:34:29+00:00,1.9270508289337,3,Stim_A.csv,G_JOL_B.csv,"Global C",Global,Tea,Tea,U2,Unrelated,45,47,Study,User,1,,Unrelated,U2,1771,,,-1,-1,,,,,1
5cee69353057030001b33fc4,bsbkbtk3a3,Ex2A_Prolific,1,62,2023-12-20T21:34:32+00:00,2.6855759620667,3,Stim_A.csv,G_JOL_B.csv,"Global C",Global,Viper,Viper,U2,Unrelated,44,45,Study,User,1,,Unrelated,U2,2485,,,-1,-1,,,,,1
5cee69353057030001b33fc4,bsbkbtk3a3,Ex2A_Prolific,1,63,2023-12-20T21:34:36+00:00,3.5149240493774,3,Stim_A.csv,G_JOL_B.csv,"Global C",Global,Shark,Shark,U2,Unrelated,43,42,Study,User,1,,Unrelated,U2,3341,,,-1,-1,,,,,1
5cee69353057030001b33fc4,bsbkbtk3a3,Ex2A_Prolific,1,64,2023-12-20T21:34:39+00:00,2.8517711162567,3,Stim_A.csv,G_JOL_B.csv,"Global C",Global,Blue,Blue,U2,Unrelated,41,41,Study,User,1,,Unrelated,U2,2691,,,-1,-1,,,,,1
5cee69353057030001b33fc4,bsbkbtk3a3,Ex2A_Prolific,1,65,2023-12-20T21:34:41+00:00,2.5655808448792,3,Stim_A.csv,G_JOL_B.csv,"Global C",Global,Lipstick,Lipstick,U2,Unrelated,46,38,Study,User,1,,Unrelated,U2,2407,,,-1,-1,,,,,1
5cee69353057030001b33fc4,bsbkbtk3a3,Ex2A_Prolific,1,66,2023-12-20T21:34:45+00:00,4.3385541439056,3,Stim_A.csv,G_JOL_B.csv,"Global C",Global,Tulip,Tulip,U2,Unrelated,39,48,Study,User,1,,Unrelated,U2,4154,,,-1,-1,,,,,1
5cee69353057030001b33fc4,bsbkbtk3a3,Ex2A_Prolific,1,67,2023-12-20T21:34:48+00:00,2.8323090076447,3,Stim_A.csv,G_JOL_B.csv,"Global C",Global,Computer,Computer,U2,Unrelated,47,39,Study,User,1,,Unrelated,U2,2673,,,-1,-1,,,,,1
5cee69353057030001b33fc4,bsbkbtk3a3,Ex2A_Prolific,1,68,2023-12-20T21:34:52+00:00,3.9463169574738,3,Stim_A.csv,G_JOL_B.csv,"Global C",Global,Eye,Eye,U2,Unrelated,48,46,Study,User,1,,Unrelated,U2,3792,,,-1,-1,,,,,1
5cee69353057030001b33fc4,bsbkbtk3a3,Ex2A_Prolific,1,69,2023-12-20T21:34:54+00:00,2.2143700122833,3,Stim_A.csv,G_JOL_B.csv,"Global C",Global,Fly,Fly,U2,Unrelated,38,44,Study,User,1,,Unrelated,U2,2042,,,-1,-1,,,,,1
5cee69353057030001b33fc4,bsbkbtk3a3,Ex2A_Prolific,1,70,2023-12-20T21:34:57+00:00,2.4195110797882,3,Stim_A.csv,G_JOL_B.csv,"Global C",Global,Cruise,Cruise,U2,Unrelated,42,49,Study,User,1,,Unrelated,U2,2262,,,-1,-1,,,,,1
5cee69353057030001b33fc4,bsbkbtk3a3,Ex2A_Prolific,1,71,2023-12-20T21:34:59+00:00,2.5174939632416,3,Stim_A.csv,G_JOL_B.csv,"Global C",Global,Sandal,Sandal,U2,Unrelated,37,43,Study,User,1,,Unrelated,U2,2353,,,-1,-1,,,,,1
5cee69353057030001b33fc4,bsbkbtk3a3,Ex2A_Prolific,1,72,2023-12-20T21:35:02+00:00,2.8445138931274,3,Stim_A.csv,G_JOL_B.csv,"Global C",Global,Cold,Cold,U2,Unrelated,40,40,Study,User,1,,Unrelated,U2,2666,,,-1,-1,,,,,1
5cee69353057030001b33fc4,bsbkbtk3a3,Ex2A_Prolific,1,73,2023-12-20T21:35:04+00:00,1.5931749343872,3,Stim_A.csv,G_JOL_B.csv,"Global C",Global,,,,,,0,Instruct,User,-,"You have completed this section and will now be asked to judge your ability to remember the list items. You will have five seconds to type your rating. Please click next to continue.",,Next_List1,1402,,,-1,-1,,,,,1
5cee69353057030001b33fc4,bsbkbtk3a3,Ex2A_Prolific,1,74,2023-12-20T21:35:10+00:00,6.1970810890198,3,Stim_A.csv,G_JOL_B.csv,"Global C",Global,,,,,,0,JOL_GLOBAL,6,6,"How likely are you to correctly recall each of the items you just studied?|Type your response on a scale from 0-100 and then press Enter (0 = WILL NOT REMEMBER; 100 = DEFINITELY WILL REMEMBER).",Unrelated,JOL4,6001,,,904,905,,,,0,1
5cee69353057030001b33fc4,bsbkbtk3a3,Ex2A_Prolific,1,75,2023-12-20T21:35:11+00:00,1.1877789497375,3,Stim_A.csv,G_JOL_B.csv,"Global C",Global,,,,,,0,Instruct,User,-,"You have completed this section. Please click next.",,Instruct166,1028,,,-1,-1,,,,,1
5cee69353057030001b33fc4,bsbkbtk3a3,Ex2A_Prolific,1,76,2023-12-20T21:35:41+00:00,30.202314138412,3,Stim_A.csv,G_JOL_B.csv,"Global C",Global,,,,,,0,FreeRecall,30,30,"Please type as many words as you can that begin with the letter ""L"". The computer will automatically advance to the next screen in 30 seconds.",,FILLER,30003,"love letter like lime lice live lock leek leak lump loop let ",0,1940,27313,0,0,,,1
5cee69353057030001b33fc4,bsbkbtk3a3,Ex2A_Prolific,1,77,2023-12-20T21:35:44+00:00,2.5056219100952,3,Stim_A.csv,G_JOL_B.csv,"Global C",Global,,,,,,0,Instruct,User,-,"You have completed this section. Please click next.",,Instruct166,2321,,,-1,-1,,,,,1
5cee69353057030001b33fc4,bsbkbtk3a3,Ex2A_Prolific,1,78,2023-12-20T21:36:49+00:00,65.316873073578,3,Stim_A.csv,G_JOL_B.csv,"Global C",Global,,,,,,0,FreeRecall,65,65,"Please type from memory the words studied in the previous list. Spelling will not count against you and you can recall the words in any order. This test is timed for ONE MINUTE, and the computer will automatically advance once time is up.",Unrelated,RECALL_Test4,65001,"blue viper shark cruise computer eye fly ",0,2625,25320,0,0,,,1
5cee69353057030001b33fc4,bsbkbtk3a3,Ex2A_Prolific,1,79,2023-12-20T21:36:51+00:00,2.0962319374084,3,Stim_A.csv,G_JOL_B.csv,"Global C",Global,,,,,,0,Instruct,User,-,"You have completed this section. Please click next.",,Instruct7,1921,,,-1,-1,,,,,1
5cee69353057030001b33fc4,bsbkbtk3a3,Ex2A_Prolific,1,80,2023-12-20T21:36:55+00:00,3.7914259433746,3,Stim_A.csv,G_JOL_B.csv,"Global C",Global,,,,,,0,Instruct,User,-,"The following screen will ask you a few questions abour your experience today. You must complete these questions to receive credit.",,Instruct8,3626,,,-1,-1,,,,,1
