Username,ID,ExperimentName,Session,Trial,Date,TimeDif,"Condition Number","Stimuli File","Order File","Condition Description","Condition Notes",Stimuli*Cue,Stimuli*Answer,Stimuli*Shuffle,"Stimuli*Stimuli Notes",Stimuli*Value,Procedure*Item,"Procedure*Trial Type","Procedure*Max Time","Procedure*Min Time",Procedure*Text,"Procedure*Procedure Notes",Procedure*Shuffle,Procedure*,Response*RT,Response*Response,Response*Accuracy,Response*RTfirst,Response*RTlast,Response*strictAcc,Response*lenientAcc,Response*focus,Response*JOL,Response*Focus
ChaseGay,3300r4rjui,DRM1_MSU,1,1,2023-11-11T18:32:06+00:00,7.9165608882904,6,Stim_B.csv,Item.csv,Item,B,,,,,,0,Instruct,-,5,"In this section, you will be presented with a series of words. Please study each word carefully. Your memory will be tested! Click next to continue.",Initial_Instruct,Instruct1,,6770,,,-1,-1,,,,,1
ChaseGay,3300r4rjui,DRM1_MSU,1,2,2023-11-11T18:32:14+00:00,7.2015981674194,6,Stim_B.csv,Item.csv,Item,B,,,,,,0,Instruct,-,5,"As you study, you will be asked to rate your ability to remember each word on a later test using a 0-100 scale.","JOL instruct",JOL_Instruct,,5835,,,-1,-1,,,,,1
ChaseGay,3300r4rjui,DRM1_MSU,1,3,2023-11-11T18:32:29+00:00,15.130970001221,6,Stim_B.csv,Item.csv,Item,B,,,,,,0,Instruct,-,10,"For example, if you see the word ""dog"", a rating of 0 means you would not expect to remember this word at test, while a rating of 100 means you would definitely remember it. When making these ratings, it is important that you try to be as accurate as possible. Try to use the full range of the scale -- Don't just make ratings of only 0 or 100!",,,,11413,,,-1,-1,,,,,1
ChaseGay,3300r4rjui,DRM1_MSU,1,4,2023-11-11T18:32:38+00:00,8.9177618026733,6,Stim_B.csv,Item.csv,Item,B,,,,,,0,Instruct,User,-,"You will now begin the study. Click next when you are ready to begin.",,Instruct16,,2127,,,-1,-1,,,,,1
ChaseGay,3300r4rjui,DRM1_MSU,1,5,2023-11-11T18:32:50+00:00,12.661049127579,6,Stim_B.csv,Item.csv,Item,B,aroma,,Win_1,,,2,JOL,User,-,"How likely are you to correctly recall the second item in the pair?|Type your response on a scale from 0-100 and then press Enter.",Window,Win_1,,10155,,,8037,8599,,,,20,1
ChaseGay,3300r4rjui,DRM1_MSU,1,6,2023-11-11T18:33:01+00:00,10.476454973221,6,Stim_B.csv,Item.csv,Item,B,scent,,Win_2,,,3,JOL,User,-,"How likely are you to correctly recall the second item in the pair?|Type your response on a scale from 0-100 and then press Enter.",Window,Win_2,,8950,,,7497,7586,,,,40,1
ChaseGay,3300r4rjui,DRM1_MSU,1,7,2023-11-11T18:33:10+00:00,9.6145050525665,6,Stim_B.csv,Item.csv,Item,B,whiff,,Win_3,,,4,JOL,User,-,"How likely are you to correctly recall the second item in the pair?|Type your response on a scale from 0-100 and then press Enter.",Window,Win_3,,5849,,,4516,4645,,,,50,1
ChaseGay,3300r4rjui,DRM1_MSU,1,8,2023-11-11T18:33:17+00:00,6.4946420192719,6,Stim_B.csv,Item.csv,Item,B,stench,,Win_4,,,5,JOL,User,-,"How likely are you to correctly recall the second item in the pair?|Type your response on a scale from 0-100 and then press Enter.",Window,Win_4,,4485,,,3138,3336,,,,60,1
ChaseGay,3300r4rjui,DRM1_MSU,1,9,2023-11-11T18:33:22+00:00,5.4003229141235,6,Stim_B.csv,Item.csv,Item,B,reek,,Win_5,,,6,JOL,User,-,"How likely are you to correctly recall the second item in the pair?|Type your response on a scale from 0-100 and then press Enter.",Window,Win_5,,4446,,,2807,3228,,,,60,1
ChaseGay,3300r4rjui,DRM1_MSU,1,10,2023-11-11T18:33:27+00:00,4.2460451126099,6,Stim_B.csv,Item.csv,Item,B,sniff,,Win_6,,,7,JOL,User,-,"How likely are you to correctly recall the second item in the pair?|Type your response on a scale from 0-100 and then press Enter.",Window,Win_6,,2923,,,1476,1989,,,,60,1
ChaseGay,3300r4rjui,DRM1_MSU,1,11,2023-11-11T18:33:31+00:00,4.1992189884186,6,Stim_B.csv,Item.csv,Item,B,perfume,,Win_7,,,8,JOL,User,-,"How likely are you to correctly recall the second item in the pair?|Type your response on a scale from 0-100 and then press Enter.",Window,Win_7,,3110,,,1398,1971,,,,70,1
ChaseGay,3300r4rjui,DRM1_MSU,1,12,2023-11-11T18:33:35+00:00,4.0504088401794,6,Stim_B.csv,Item.csv,Item,B,fragrance,,Win_8,,,9,JOL,User,-,"How likely are you to correctly recall the second item in the pair?|Type your response on a scale from 0-100 and then press Enter.",Window,Win_8,,3450,,,1511,2230,,,,80,1
ChaseGay,3300r4rjui,DRM1_MSU,1,13,2023-11-11T18:33:41+00:00,5.753870010376,6,Stim_B.csv,Item.csv,Item,B,nose,,Win_9,,,10,JOL,User,-,"How likely are you to correctly recall the second item in the pair?|Type your response on a scale from 0-100 and then press Enter.",Window,Win_9,,4921,,,1950,3910,,,,90,1
ChaseGay,3300r4rjui,DRM1_MSU,1,14,2023-11-11T18:33:48+00:00,6.8869760036469,6,Stim_B.csv,Item.csv,Item,B,rose,,Win_10,,,11,JOL,User,-,"How likely are you to correctly recall the second item in the pair?|Type your response on a scale from 0-100 and then press Enter.",Window,Win_10,,3274,,,1608,2085,,,,40,1
ChaseGay,3300r4rjui,DRM1_MSU,1,15,2023-11-11T18:33:52+00:00,4.4239780902863,6,Stim_B.csv,Item.csv,Item,B,salts,,Win_11,,,12,JOL,User,-,"How likely are you to correctly recall the second item in the pair?|Type your response on a scale from 0-100 and then press Enter.",Window,Win_11,,3735,,,1715,2239,,,,40,1
ChaseGay,3300r4rjui,DRM1_MSU,1,16,2023-11-11T18:34:01+00:00,8.9456489086151,6,Stim_B.csv,Item.csv,Item,B,breathe,,Win_12,,,13,JOL,User,-,"How likely are you to correctly recall the second item in the pair?|Type your response on a scale from 0-100 and then press Enter.",Window,Win_12,,5674,,,3599,4627,,,,40,1
ChaseGay,3300r4rjui,DRM1_MSU,1,17,2023-11-11T18:34:06+00:00,4.9940321445465,6,Stim_B.csv,Item.csv,Item,B,,,,,,0,Instruct,User,3,"You will now be presented with a new study list. Click next when you are ready to begin.",,NEXT_LIST,,4229,,,-1,-1,,,,,1
ChaseGay,3300r4rjui,DRM1_MSU,1,18,2023-11-11T18:34:10+00:00,3.9916698932648,6,Stim_B.csv,Item.csv,Item,B,hard,,R1,,,14,JOL,User,-,"How likely are you to correctly recall the second item in the pair?|Type your response on a scale from 0-100 and then press Enter.",Rough,R1,,3440,,,2119,2559,,,,40,1
ChaseGay,3300r4rjui,DRM1_MSU,1,19,2023-11-11T18:34:14+00:00,3.8075320720673,6,Stim_B.csv,Item.csv,Item,B,loud,,R2,,,15,JOL,User,-,"How likely are you to correctly recall the second item in the pair?|Type your response on a scale from 0-100 and then press Enter.",Rough,R2,,3286,,,1706,2217,,,,60,1
ChaseGay,3300r4rjui,DRM1_MSU,1,20,2023-11-11T18:34:17+00:00,2.8517248630524,6,Stim_B.csv,Item.csv,Item,B,tender,,R3,,,16,JOL,User,-,"How likely are you to correctly recall the second item in the pair?|Type your response on a scale from 0-100 and then press Enter.",Rough,R3,,2404,,,1151,1518,,,,60,1
ChaseGay,3300r4rjui,DRM1_MSU,1,21,2023-11-11T18:34:19+00:00,2.607794046402,6,Stim_B.csv,Item.csv,Item,B,fluffy,,R4,,,17,JOL,User,-,"How likely are you to correctly recall the second item in the pair?|Type your response on a scale from 0-100 and then press Enter.",Rough,R4,,1778,,,680,800,,,,50,1
ChaseGay,3300r4rjui,DRM1_MSU,1,22,2023-11-11T18:34:23+00:00,3.5554671287537,6,Stim_B.csv,Item.csv,Item,B,pillow,,R5,,,18,JOL,User,-,"How likely are you to correctly recall the second item in the pair?|Type your response on a scale from 0-100 and then press Enter.",Rough,R5,,2815,,,1111,1220,,,,49,1
ChaseGay,3300r4rjui,DRM1_MSU,1,23,2023-11-11T18:34:29+00:00,5.8875579833984,6,Stim_B.csv,Item.csv,Item,B,downy,,R6,,,19,JOL,User,-,"How likely are you to correctly recall the second item in the pair?|Type your response on a scale from 0-100 and then press Enter.",Rough,R6,,4917,,,2839,3794,,,,20,1
ChaseGay,3300r4rjui,DRM1_MSU,1,24,2023-11-11T18:34:33+00:00,3.9994778633118,6,Stim_B.csv,Item.csv,Item,B,plush,,R7,,,20,JOL,User,-,"How likely are you to correctly recall the second item in the pair?|Type your response on a scale from 0-100 and then press Enter.",Rough,R7,,3064,,,1312,1488,,,,10,1
ChaseGay,3300r4rjui,DRM1_MSU,1,25,2023-11-11T18:34:36+00:00,3.2710790634155,6,Stim_B.csv,Item.csv,Item,B,cotton,,R8,,,21,JOL,User,-,"How likely are you to correctly recall the second item in the pair?|Type your response on a scale from 0-100 and then press Enter.",Rough,R8,,1541,,,317,498,,,,20,1
ChaseGay,3300r4rjui,DRM1_MSU,1,26,2023-11-11T18:34:41+00:00,4.7687289714813,6,Stim_B.csv,Item.csv,Item,B,skin,,R9,,,22,JOL,User,-,"How likely are you to correctly recall the second item in the pair?|Type your response on a scale from 0-100 and then press Enter.",Rough,R9,,3688,,,2698,2902,,,,23,1
ChaseGay,3300r4rjui,DRM1_MSU,1,27,2023-11-11T18:34:44+00:00,3.6521849632263,6,Stim_B.csv,Item.csv,Item,B,fur,,R10,,,23,JOL,User,-,"How likely are you to correctly recall the second item in the pair?|Type your response on a scale from 0-100 and then press Enter.",Rough,R10,,3251,,,1194,1622,,,,30,1
ChaseGay,3300r4rjui,DRM1_MSU,1,28,2023-11-11T18:34:49+00:00,5.2095949649811,6,Stim_B.csv,Item.csv,Item,B,touch,,R11,,,24,JOL,User,-,"How likely are you to correctly recall the second item in the pair?|Type your response on a scale from 0-100 and then press Enter.",Rough,R11,,4561,,,3047,3637,,,,80,1
ChaseGay,3300r4rjui,DRM1_MSU,1,29,2023-11-11T18:34:55+00:00,5.7986080646515,6,Stim_B.csv,Item.csv,Item,B,furry,,R12,,,25,JOL,User,-,"How likely are you to correctly recall the second item in the pair?|Type your response on a scale from 0-100 and then press Enter.",Rough,R12,,5319,,,3905,4360,,,,40,1
ChaseGay,3300r4rjui,DRM1_MSU,1,30,2023-11-11T18:35:00+00:00,4.5001471042633,6,Stim_B.csv,Item.csv,Item,B,,,,,,0,Instruct,User,3,"You will now be presented with a new study list. Click next when you are ready to begin.",,NEXT_LIST,,4131,,,-1,-1,,,,,1
ChaseGay,3300r4rjui,DRM1_MSU,1,31,2023-11-11T18:35:16+00:00,16.621698856354,6,Stim_B.csv,Item.csv,Item,B,honey,,A1,,,26,JOL,User,-,"How likely are you to correctly recall the second item in the pair?|Type your response on a scale from 0-100 and then press Enter.",Anger,A1,,15982,,,13887,14375,,,,20,1
ChaseGay,3300r4rjui,DRM1_MSU,1,32,2023-11-11T18:35:21+00:00,4.3306980133057,6,Stim_B.csv,Item.csv,Item,B,bitter,,A2,,,27,JOL,User,-,"How likely are you to correctly recall the second item in the pair?|Type your response on a scale from 0-100 and then press Enter.",Anger,A2,,3739,,,1835,2581,,,,30,1
ChaseGay,3300r4rjui,DRM1_MSU,1,33,2023-11-11T18:35:27+00:00,5.9880950450897,6,Stim_B.csv,Item.csv,Item,B,sugar,,A3,,,28,JOL,User,-,"How likely are you to correctly recall the second item in the pair?|Type your response on a scale from 0-100 and then press Enter.",Anger,A3,,4478,,,1419,2250,,,,40,1
ChaseGay,3300r4rjui,DRM1_MSU,1,34,2023-11-11T18:35:35+00:00,7.9141089916229,6,Stim_B.csv,Item.csv,Item,B,sour,,A4,,,29,JOL,User,-,"How likely are you to correctly recall the second item in the pair?|Type your response on a scale from 0-100 and then press Enter.",Anger,A4,,5867,,,3806,4344,,,,40,1
ChaseGay,3300r4rjui,DRM1_MSU,1,35,2023-11-11T18:35:43+00:00,8.4518890380859,6,Stim_B.csv,Item.csv,Item,B,candy,,A5,,,30,JOL,User,-,"How likely are you to correctly recall the second item in the pair?|Type your response on a scale from 0-100 and then press Enter.",Anger,A5,,6625,,,4952,5524,,,,40,1
ChaseGay,3300r4rjui,DRM1_MSU,1,36,2023-11-11T18:35:48+00:00,4.6060888767242,6,Stim_B.csv,Item.csv,Item,B,tart,,A6,,,31,JOL,User,-,"How likely are you to correctly recall the second item in the pair?|Type your response on a scale from 0-100 and then press Enter.",Anger,A6,,4096,,,2842,3162,,,,25,1
ChaseGay,3300r4rjui,DRM1_MSU,1,37,2023-11-11T18:35:51+00:00,3.675439119339,6,Stim_B.csv,Item.csv,Item,B,chocolate,,A7,,,32,JOL,User,-,"How likely are you to correctly recall the second item in the pair?|Type your response on a scale from 0-100 and then press Enter.",Anger,A7,,2828,,,1257,1733,,,,40,1
ChaseGay,3300r4rjui,DRM1_MSU,1,38,2023-11-11T18:35:55+00:00,3.6165900230408,6,Stim_B.csv,Item.csv,Item,B,nice,,A8,,,33,JOL,User,-,"How likely are you to correctly recall the second item in the pair?|Type your response on a scale from 0-100 and then press Enter.",Anger,A8,,2366,,,944,1403,,,,50,1
ChaseGay,3300r4rjui,DRM1_MSU,1,39,2023-11-11T18:35:58+00:00,2.9398770332336,6,Stim_B.csv,Item.csv,Item,B,taste,,A9,,,34,JOL,User,-,"How likely are you to correctly recall the second item in the pair?|Type your response on a scale from 0-100 and then press Enter.",Anger,A9,,2446,,,1087,1592,,,,50,1
ChaseGay,3300r4rjui,DRM1_MSU,1,40,2023-11-11T18:36:03+00:00,4.7154309749603,6,Stim_B.csv,Item.csv,Item,B,cake,,A10,,,35,JOL,User,-,"How likely are you to correctly recall the second item in the pair?|Type your response on a scale from 0-100 and then press Enter.",Anger,A10,,2883,,,646,1189,,,,70,1
ChaseGay,3300r4rjui,DRM1_MSU,1,41,2023-11-11T18:36:06+00:00,3.5995738506317,6,Stim_B.csv,Item.csv,Item,B,good,,A11,,,36,JOL,User,-,"How likely are you to correctly recall the second item in the pair?|Type your response on a scale from 0-100 and then press Enter.",Anger,A11,,2357,,,1595,1779,,,,55,1
ChaseGay,3300r4rjui,DRM1_MSU,1,42,2023-11-11T18:36:08+00:00,2.2001700401306,6,Stim_B.csv,Item.csv,Item,B,tooth,,A12,,,37,JOL,User,-,"How likely are you to correctly recall the second item in the pair?|Type your response on a scale from 0-100 and then press Enter.",Anger,A12,,1736,,,1283,1467,,,,56,1
ChaseGay,3300r4rjui,DRM1_MSU,1,43,2023-11-11T18:36:12+00:00,3.4512541294098,6,Stim_B.csv,Item.csv,Item,B,,,,,,0,Instruct,User,3,"You will now be presented with a new study list. Click next when you are ready to begin.",,NEXT_LIST,,3203,,,-1,-1,,,,,1
ChaseGay,3300r4rjui,DRM1_MSU,1,44,2023-11-11T18:36:16+00:00,3.9012849330902,6,Stim_B.csv,Item.csv,Item,B,table,,T1,,,38,JOL,User,-,"How likely are you to correctly recall the second item in the pair?|Type your response on a scale from 0-100 and then press Enter.",Trash,T1,,3231,,,2804,3001,,,,90,1
ChaseGay,3300r4rjui,DRM1_MSU,1,45,2023-11-11T18:36:18+00:00,1.888680934906,6,Stim_B.csv,Item.csv,Item,B,swivel,,T2,,,39,JOL,User,-,"How likely are you to correctly recall the second item in the pair?|Type your response on a scale from 0-100 and then press Enter.",Trash,T2,,1198,,,990,1000,,,,78,1
ChaseGay,3300r4rjui,DRM1_MSU,1,46,2023-11-11T18:36:19+00:00,1.4552810192108,6,Stim_B.csv,Item.csv,Item,B,rocking,,T3,,,40,JOL,User,-,"How likely are you to correctly recall the second item in the pair?|Type your response on a scale from 0-100 and then press Enter.",Trash,T3,,1022,,,551,782,,,,56,1
ChaseGay,3300r4rjui,DRM1_MSU,1,47,2023-11-11T18:36:21+00:00,1.441831111908,6,Stim_B.csv,Item.csv,Item,B,recliner,,T4,,,41,JOL,User,-,"How likely are you to correctly recall the second item in the pair?|Type your response on a scale from 0-100 and then press Enter.",Trash,T4,,1077,,,603,782,,,,44,1
ChaseGay,3300r4rjui,DRM1_MSU,1,48,2023-11-11T18:36:23+00:00,2.7019908428192,6,Stim_B.csv,Item.csv,Item,B,seat,,T5,,,42,JOL,User,-,"How likely are you to correctly recall the second item in the pair?|Type your response on a scale from 0-100 and then press Enter.",Trash,T5,,1979,,,1442,1648,,,,55,1
ChaseGay,3300r4rjui,DRM1_MSU,1,49,2023-11-11T18:36:27+00:00,3.3022320270538,6,Stim_B.csv,Item.csv,Item,B,stool,,T6,,,43,JOL,User,-,"How likely are you to correctly recall the second item in the pair?|Type your response on a scale from 0-100 and then press Enter.",Trash,T6,,2105,,,1383,1700,,,,60,1
ChaseGay,3300r4rjui,DRM1_MSU,1,50,2023-11-11T18:36:30+00:00,3.2547080516815,6,Stim_B.csv,Item.csv,Item,B,desk,,T7,,,44,JOL,User,-,"How likely are you to correctly recall the second item in the pair?|Type your response on a scale from 0-100 and then press Enter.",Trash,T7,,1881,,,1281,1665,,,,80,1
ChaseGay,3300r4rjui,DRM1_MSU,1,51,2023-11-11T18:36:32+00:00,1.7527310848236,6,Stim_B.csv,Item.csv,Item,B,couch,,T8,,,45,JOL,User,-,"How likely are you to correctly recall the second item in the pair?|Type your response on a scale from 0-100 and then press Enter.",Trash,T8,,1024,,,507,751,,,,80,1
ChaseGay,3300r4rjui,DRM1_MSU,1,52,2023-11-11T18:36:33+00:00,1.8425619602203,6,Stim_B.csv,Item.csv,Item,B,sit,,T9,,,46,JOL,User,-,"How likely are you to correctly recall the second item in the pair?|Type your response on a scale from 0-100 and then press Enter.",Trash,T9,,1386,,,964,1162,,,,67,1
ChaseGay,3300r4rjui,DRM1_MSU,1,53,2023-11-11T18:36:36+00:00,2.6969969272614,6,Stim_B.csv,Item.csv,Item,B,sofa,,T10,,,47,JOL,User,-,"How likely are you to correctly recall the second item in the pair?|Type your response on a scale from 0-100 and then press Enter.",Trash,T10,,1985,,,1511,1744,,,,78,1
ChaseGay,3300r4rjui,DRM1_MSU,1,54,2023-11-11T18:36:38+00:00,2.2573211193085,6,Stim_B.csv,Item.csv,Item,B,bench,,T11,,,48,JOL,User,-,"How likely are you to correctly recall the second item in the pair?|Type your response on a scale from 0-100 and then press Enter.",Trash,T11,,1226,,,674,946,,,,99,1
ChaseGay,3300r4rjui,DRM1_MSU,1,55,2023-11-11T18:36:41+00:00,2.5069630146027,6,Stim_B.csv,Item.csv,Item,B,sitting,,T12,,,49,JOL,User,-,"How likely are you to correctly recall the second item in the pair?|Type your response on a scale from 0-100 and then press Enter.",Trash,T12,,2108,,,1342,1779,,,,100,1
ChaseGay,3300r4rjui,DRM1_MSU,1,56,2023-11-11T18:36:45+00:00,3.8993439674377,6,Stim_B.csv,Item.csv,Item,B,,,,,,0,Instruct,User,3,"You will now be presented with a new study list. Click next when you are ready to begin.",,NEXT_LIST,,3545,,,-1,-1,,,,,1
ChaseGay,3300r4rjui,DRM1_MSU,1,57,2023-11-11T18:36:47+00:00,2.501042842865,6,Stim_B.csv,Item.csv,Item,B,climber,,D1,,,50,JOL,User,-,"How likely are you to correctly recall the second item in the pair?|Type your response on a scale from 0-100 and then press Enter.",Doctor,D1,,1593,,,1042,1288,,,,34,1
ChaseGay,3300r4rjui,DRM1_MSU,1,58,2023-11-11T18:36:49+00:00,1.4904460906982,6,Stim_B.csv,Item.csv,Item,B,hill,,D2,,,51,JOL,User,-,"How likely are you to correctly recall the second item in the pair?|Type your response on a scale from 0-100 and then press Enter.",Doctor,D2,,1136,,,686,899,,,,45,1
ChaseGay,3300r4rjui,DRM1_MSU,1,59,2023-11-11T18:36:50+00:00,1.597804069519,6,Stim_B.csv,Item.csv,Item,B,climb,,D3,,,52,JOL,User,-,"How likely are you to correctly recall the second item in the pair?|Type your response on a scale from 0-100 and then press Enter.",Doctor,D3,,886,,,441,614,,,,55,1
ChaseGay,3300r4rjui,DRM1_MSU,1,60,2023-11-11T18:36:53+00:00,3.0622889995575,6,Stim_B.csv,Item.csv,Item,B,molehill,,D4,,,53,JOL,User,-,"How likely are you to correctly recall the second item in the pair?|Type your response on a scale from 0-100 and then press Enter.",Doctor,D4,,1034,,,461,503,,,,50,1
ChaseGay,3300r4rjui,DRM1_MSU,1,61,2023-11-11T18:36:58+00:00,4.0932948589325,6,Stim_B.csv,Item.csv,Item,B,peak,,D5,,,54,JOL,User,-,"How likely are you to correctly recall the second item in the pair?|Type your response on a scale from 0-100 and then press Enter.",Doctor,D5,,2642,,,2163,2436,,,,45,1
ChaseGay,3300r4rjui,DRM1_MSU,1,62,2023-11-11T18:37:02+00:00,4.0899729728699,6,Stim_B.csv,Item.csv,Item,B,valley,,D6,,,55,JOL,User,-,"How likely are you to correctly recall the second item in the pair?|Type your response on a scale from 0-100 and then press Enter.",Doctor,D6,,3049,,,1324,2618,,,,50,1
ChaseGay,3300r4rjui,DRM1_MSU,1,63,2023-11-11T18:37:04+00:00,2.2521030902863,6,Stim_B.csv,Item.csv,Item,B,summit,,D7,,,56,JOL,User,-,"How likely are you to correctly recall the second item in the pair?|Type your response on a scale from 0-100 and then press Enter.",Doctor,D7,,1973,,,1521,1521,,,,0,1
ChaseGay,3300r4rjui,DRM1_MSU,1,64,2023-11-11T18:37:08+00:00,4.258152961731,6,Stim_B.csv,Item.csv,Item,B,steep,,D8,,,57,JOL,User,-,"How likely are you to correctly recall the second item in the pair?|Type your response on a scale from 0-100 and then press Enter.",Doctor,D8,,3745,,,1763,3220,,,,70,1
ChaseGay,3300r4rjui,DRM1_MSU,1,65,2023-11-11T18:37:16+00:00,7.6628670692444,6,Stim_B.csv,Item.csv,Item,B,ski,,D9,,,58,JOL,User,-,"How likely are you to correctly recall the second item in the pair?|Type your response on a scale from 0-100 and then press Enter.",Doctor,D9,,6617,,,4880,6158,,,,70,1
ChaseGay,3300r4rjui,DRM1_MSU,1,66,2023-11-11T18:37:19+00:00,2.7181670665741,6,Stim_B.csv,Item.csv,Item,B,bike,,D10,,,59,JOL,User,-,"How likely are you to correctly recall the second item in the pair?|Type your response on a scale from 0-100 and then press Enter.",Doctor,D10,,1580,,,912,1048,,,,90,1
ChaseGay,3300r4rjui,DRM1_MSU,1,67,2023-11-11T18:37:23+00:00,4.0076608657837,6,Stim_B.csv,Item.csv,Item,B,goat,,D11,,,60,JOL,User,-,"How likely are you to correctly recall the second item in the pair?|Type your response on a scale from 0-100 and then press Enter.",Doctor,D11,,3363,,,2004,2799,,,,100,1
ChaseGay,3300r4rjui,DRM1_MSU,1,68,2023-11-11T18:37:26+00:00,3.1080751419067,6,Stim_B.csv,Item.csv,Item,B,glacier,,D12,,,61,JOL,User,-,"How likely are you to correctly recall the second item in the pair?|Type your response on a scale from 0-100 and then press Enter.",Doctor,D12,,2377,,,1483,1969,,,,50,1
ChaseGay,3300r4rjui,DRM1_MSU,1,69,2023-11-11T18:37:30+00:00,3.9021348953247,6,Stim_B.csv,Item.csv,Item,B,,,,,,0,Instruct,User,3,"You will now be presented with a new study list. Click next when you are ready to begin.",,NEXT_LIST,,3506,,,-1,-1,,,,,1
ChaseGay,3300r4rjui,DRM1_MSU,1,70,2023-11-11T18:37:55+00:00,25.615924119949,6,Stim_B.csv,Item.csv,Item,B,band,,S1,,,62,JOL,User,-,"How likely are you to correctly recall the second item in the pair?|Type your response on a scale from 0-100 and then press Enter.",Slow,S1,,24190,,,23408,23809,,,,23,1
ChaseGay,3300r4rjui,DRM1_MSU,1,71,2023-11-11T18:37:58+00:00,3.2393848896027,6,Stim_B.csv,Item.csv,Item,B,concert,,S2,,,63,JOL,User,-,"How likely are you to correctly recall the second item in the pair?|Type your response on a scale from 0-100 and then press Enter.",Slow,S2,,1010,,,699,757,,,,50,1
ChaseGay,3300r4rjui,DRM1_MSU,1,72,2023-11-11T18:38:06+00:00,7.5450670719147,6,Stim_B.csv,Item.csv,Item,B,jazz,,S3,,,64,JOL,User,-,"How likely are you to correctly recall the second item in the pair?|Type your response on a scale from 0-100 and then press Enter.",Slow,S3,,5300,,,4819,4981,,,,40,1
ChaseGay,3300r4rjui,DRM1_MSU,1,73,2023-11-11T18:38:08+00:00,2.4561448097229,6,Stim_B.csv,Item.csv,Item,B,symphony,,S4,,,65,JOL,User,-,"How likely are you to correctly recall the second item in the pair?|Type your response on a scale from 0-100 and then press Enter.",Slow,S4,,1233,,,762,957,,,,50,1
ChaseGay,3300r4rjui,DRM1_MSU,1,74,2023-11-11T18:38:11+00:00,2.3853290081024,6,Stim_B.csv,Item.csv,Item,B,orchestra,,S5,,,66,JOL,User,-,"How likely are you to correctly recall the second item in the pair?|Type your response on a scale from 0-100 and then press Enter.",Slow,S5,,1731,,,1223,1469,,,,90,1
ChaseGay,3300r4rjui,DRM1_MSU,1,75,2023-11-11T18:38:13+00:00,1.7512531280518,6,Stim_B.csv,Item.csv,Item,B,rhythm,,S6,,,67,JOL,User,-,"How likely are you to correctly recall the second item in the pair?|Type your response on a scale from 0-100 and then press Enter.",Slow,S6,,1158,,,583,860,,,,60,1
ChaseGay,3300r4rjui,DRM1_MSU,1,76,2023-11-11T18:38:16+00:00,3.8103280067444,6,Stim_B.csv,Item.csv,Item,B,radio,,S7,,,68,JOL,User,-,"How likely are you to correctly recall the second item in the pair?|Type your response on a scale from 0-100 and then press Enter.",Slow,S7,,2196,,,1703,1872,,,,70,1
ChaseGay,3300r4rjui,DRM1_MSU,1,77,2023-11-11T18:38:20+00:00,3.4937629699707,6,Stim_B.csv,Item.csv,Item,B,melody,,S8,,,69,JOL,User,-,"How likely are you to correctly recall the second item in the pair?|Type your response on a scale from 0-100 and then press Enter.",Slow,S8,,2108,,,1696,1837,,,,40,1
ChaseGay,3300r4rjui,DRM1_MSU,1,78,2023-11-11T18:38:32+00:00,12.360282897949,6,Stim_B.csv,Item.csv,Item,B,piano,,S9,,,70,JOL,User,-,"How likely are you to correctly recall the second item in the pair?|Type your response on a scale from 0-100 and then press Enter.",Slow,S9,,10411,,,9775,10017,,,,90,1
ChaseGay,3300r4rjui,DRM1_MSU,1,79,2023-11-11T18:38:36+00:00,3.6353480815887,6,Stim_B.csv,Item.csv,Item,B,sound,,S10,,,71,JOL,User,-,"How likely are you to correctly recall the second item in the pair?|Type your response on a scale from 0-100 and then press Enter.",Slow,S10,,2071,,,1652,1800,,,,45,1
ChaseGay,3300r4rjui,DRM1_MSU,1,80,2023-11-11T18:38:39+00:00,2.8004860877991,6,Stim_B.csv,Item.csv,Item,B,instrument,,S11,,,72,JOL,User,-,"How likely are you to correctly recall the second item in the pair?|Type your response on a scale from 0-100 and then press Enter.",Slow,S11,,2246,,,1751,1913,,,,60,1
ChaseGay,3300r4rjui,DRM1_MSU,1,81,2023-11-11T18:38:43+00:00,3.8990619182587,6,Stim_B.csv,Item.csv,Item,B,note,,S12,,,73,JOL,User,-,"How likely are you to correctly recall the second item in the pair?|Type your response on a scale from 0-100 and then press Enter.",Slow,S12,,2543,,,1661,1851,,,,90,1
ChaseGay,3300r4rjui,DRM1_MSU,1,82,2023-11-11T18:38:47+00:00,4.2415931224823,6,Stim_B.csv,Item.csv,Item,B,,,,,,0,Instruct,User,3,"You will now be presented with a new study list. Click next when you are ready to begin.",,NEXT_LIST,,3872,,,-1,-1,,,,,1
ChaseGay,3300r4rjui,DRM1_MSU,1,83,2023-11-11T18:38:49+00:00,2.006992816925,6,Stim_B.csv,Item.csv,Item,B,foam,,RR1,,,74,JOL,User,-,"How likely are you to correctly recall the second item in the pair?|Type your response on a scale from 0-100 and then press Enter.",River,RR1,,1658,,,1067,1271,,,,90,1
ChaseGay,3300r4rjui,DRM1_MSU,1,84,2023-11-11T18:40:01+00:00,71.862507104874,6,Stim_B.csv,Item.csv,Item,B,latex,,RR2,,,75,JOL,User,-,"How likely are you to correctly recall the second item in the pair?|Type your response on a scale from 0-100 and then press Enter.",River,RR2,,65133,,,64781,64829,,,,40,1
ChaseGay,3300r4rjui,DRM1_MSU,1,85,2023-11-11T18:40:06+00:00,5.5360970497131,6,Stim_B.csv,Item.csv,Item,B,galoshes,,RR3,,,76,JOL,User,-,"How likely are you to correctly recall the second item in the pair?|Type your response on a scale from 0-100 and then press Enter.",River,RR3,,3404,,,3000,3000,,,,0,1
ChaseGay,3300r4rjui,DRM1_MSU,1,86,2023-11-11T18:40:11+00:00,4.6030328273773,6,Stim_B.csv,Item.csv,Item,B,tire,,RR4,,,77,JOL,User,-,"How likely are you to correctly recall the second item in the pair?|Type your response on a scale from 0-100 and then press Enter.",River,RR4,,3276,,,2246,2494,,,,90,1
ChaseGay,3300r4rjui,DRM1_MSU,1,87,2023-11-11T18:40:14+00:00,3.7056012153625,6,Stim_B.csv,Item.csv,Item,B,flexible,,RR5,,,78,JOL,User,-,"How likely are you to correctly recall the second item in the pair?|Type your response on a scale from 0-100 and then press Enter.",River,RR5,,3304,,,2307,2567,,,,90,1
ChaseGay,3300r4rjui,DRM1_MSU,1,88,2023-11-11T18:40:17+00:00,2.8406178951263,6,Stim_B.csv,Item.csv,Item,B,elastic,,RR6,,,79,JOL,User,-,"How likely are you to correctly recall the second item in the pair?|Type your response on a scale from 0-100 and then press Enter.",River,RR6,,2407,,,1083,1688,,,,100,1
ChaseGay,3300r4rjui,DRM1_MSU,1,89,2023-11-11T18:40:22+00:00,4.6004319190979,6,Stim_B.csv,Item.csv,Item,B,gloves,,RR7,,,80,JOL,User,-,"How likely are you to correctly recall the second item in the pair?|Type your response on a scale from 0-100 and then press Enter.",River,RR7,,4084,,,3369,3829,,,,80,1
ChaseGay,3300r4rjui,DRM1_MSU,1,90,2023-11-11T18:40:24+00:00,1.7568910121918,6,Stim_B.csv,Item.csv,Item,B,eraser,,RR8,,,81,JOL,User,-,"How likely are you to correctly recall the second item in the pair?|Type your response on a scale from 0-100 and then press Enter.",River,RR8,,1136,,,697,881,,,,80,1
ChaseGay,3300r4rjui,DRM1_MSU,1,91,2023-11-11T18:40:25+00:00,1.6103391647339,6,Stim_B.csv,Item.csv,Item,B,bounce,,RR9,,,82,JOL,User,-,"How likely are you to correctly recall the second item in the pair?|Type your response on a scale from 0-100 and then press Enter.",River,RR9,,1112,,,465,756,,,,90,1
ChaseGay,3300r4rjui,DRM1_MSU,1,92,2023-11-11T18:40:28+00:00,2.6486778259277,6,Stim_B.csv,Item.csv,Item,B,ball,,RR10,,,83,JOL,User,-,"How likely are you to correctly recall the second item in the pair?|Type your response on a scale from 0-100 and then press Enter.",River,RR10,,1260,,,407,671,,,,55,1
ChaseGay,3300r4rjui,DRM1_MSU,1,93,2023-11-11T18:40:31+00:00,2.6075570583344,6,Stim_B.csv,Item.csv,Item,B,soles,,RR11,,,84,JOL,User,-,"How likely are you to correctly recall the second item in the pair?|Type your response on a scale from 0-100 and then press Enter.",River,RR11,,1656,,,1071,1362,,,,50,1
ChaseGay,3300r4rjui,DRM1_MSU,1,94,2023-11-11T18:40:32+00:00,1.7910039424896,6,Stim_B.csv,Item.csv,Item,B,springy,,RR12,,,85,JOL,User,-,"How likely are you to correctly recall the second item in the pair?|Type your response on a scale from 0-100 and then press Enter.",River,RR12,,1279,,,688,952,,,,60,1
ChaseGay,3300r4rjui,DRM1_MSU,1,95,2023-11-11T18:40:38+00:00,5.8523480892181,6,Stim_B.csv,Item.csv,Item,B,,,,,,0,Instruct,User,3,"You will now be presented with a new study list. Click next when you are ready to begin.",,NEXT_LIST,,3712,,,-1,-1,,,,,1
ChaseGay,3300r4rjui,DRM1_MSU,1,96,2023-11-11T18:40:41+00:00,3.1117389202118,6,Stim_B.csv,Item.csv,Item,B,toe,,B1,,,86,JOL,User,-,"How likely are you to correctly recall the second item in the pair?|Type your response on a scale from 0-100 and then press Enter.",Bread,B1,,2821,,,1453,1627,,,,50,1
ChaseGay,3300r4rjui,DRM1_MSU,1,97,2023-11-11T18:40:43+00:00,1.967677116394,6,Stim_B.csv,Item.csv,Item,B,inch,,B2,,,87,JOL,User,-,"How likely are you to correctly recall the second item in the pair?|Type your response on a scale from 0-100 and then press Enter.",Bread,B2,,738,,,335,485,,,,40,1
ChaseGay,3300r4rjui,DRM1_MSU,1,98,2023-11-11T18:40:45+00:00,1.7603950500488,6,Stim_B.csv,Item.csv,Item,B,ankle,,B3,,,88,JOL,User,-,"How likely are you to correctly recall the second item in the pair?|Type your response on a scale from 0-100 and then press Enter.",Bread,B3,,942,,,535,708,,,,90,1
ChaseGay,3300r4rjui,DRM1_MSU,1,99,2023-11-11T18:40:47+00:00,1.8499879837036,6,Stim_B.csv,Item.csv,Item,B,shoe,,B4,,,89,JOL,User,-,"How likely are you to correctly recall the second item in the pair?|Type your response on a scale from 0-100 and then press Enter.",Bread,B4,,1181,,,608,822,,,,45,1
ChaseGay,3300r4rjui,DRM1_MSU,1,100,2023-11-11T18:40:49+00:00,2.2498769760132,6,Stim_B.csv,Item.csv,Item,B,sandals,,B5,,,90,JOL,User,-,"How likely are you to correctly recall the second item in the pair?|Type your response on a scale from 0-100 and then press Enter.",Bread,B5,,1952,,,1451,1718,,,,56,1
ChaseGay,3300r4rjui,DRM1_MSU,1,101,2023-11-11T18:40:51+00:00,2.3069388866425,6,Stim_B.csv,Item.csv,Item,B,sock,,B6,,,91,JOL,User,-,"How likely are you to correctly recall the second item in the pair?|Type your response on a scale from 0-100 and then press Enter.",Bread,B6,,1666,,,1098,1328,,,,60,1
ChaseGay,3300r4rjui,DRM1_MSU,1,102,2023-11-11T18:40:53+00:00,1.9993510246277,6,Stim_B.csv,Item.csv,Item,B,hand,,B7,,,92,JOL,User,-,"How likely are you to correctly recall the second item in the pair?|Type your response on a scale from 0-100 and then press Enter.",Bread,B7,,1470,,,1069,1263,,,,90,1
ChaseGay,3300r4rjui,DRM1_MSU,1,103,2023-11-11T18:40:55+00:00,2.0427720546722,6,Stim_B.csv,Item.csv,Item,B,boot,,B8,,,93,JOL,User,-,"How likely are you to correctly recall the second item in the pair?|Type your response on a scale from 0-100 and then press Enter.",Bread,B8,,1410,,,965,1160,,,,90,1
ChaseGay,3300r4rjui,DRM1_MSU,1,104,2023-11-11T18:40:57+00:00,1.6533689498901,6,Stim_B.csv,Item.csv,Item,B,yard,,B9,,,94,JOL,User,-,"How likely are you to correctly recall the second item in the pair?|Type your response on a scale from 0-100 and then press Enter.",Bread,B9,,951,,,529,721,,,,45,1
ChaseGay,3300r4rjui,DRM1_MSU,1,105,2023-11-11T18:40:58+00:00,1.1093399524689,6,Stim_B.csv,Item.csv,Item,B,kick,,B10,,,95,JOL,User,-,"How likely are you to correctly recall the second item in the pair?|Type your response on a scale from 0-100 and then press Enter.",Bread,B10,,724,,,351,520,,,,45,1
ChaseGay,3300r4rjui,DRM1_MSU,1,106,2023-11-11T18:41:00+00:00,1.4415409564972,6,Stim_B.csv,Item.csv,Item,B,knee,,B11,,,96,JOL,User,-,"How likely are you to correctly recall the second item in the pair?|Type your response on a scale from 0-100 and then press Enter.",Bread,B11,,1014,,,564,747,,,,56,1
ChaseGay,3300r4rjui,DRM1_MSU,1,107,2023-11-11T18:41:01+00:00,1.442714214325,6,Stim_B.csv,Item.csv,Item,B,walk,,B12,,,97,JOL,User,-,"How likely are you to correctly recall the second item in the pair?|Type your response on a scale from 0-100 and then press Enter.",Bread,B12,,881,,,374,542,,,,67,1
ChaseGay,3300r4rjui,DRM1_MSU,1,108,2023-11-11T18:41:06+00:00,4.9210209846497,6,Stim_B.csv,Item.csv,Item,B,,,,,,0,Instruct,User,3,"You will now be presented with a new study list. Click next when you are ready to begin.",,NEXT_LIST,,4499,,,-1,-1,,,,,1
ChaseGay,3300r4rjui,DRM1_MSU,1,109,2023-11-11T18:41:08+00:00,2.4469699859619,6,Stim_B.csv,Item.csv,Item,B,boy,,F1,,,98,JOL,User,-,"How likely are you to correctly recall the second item in the pair?|Type your response on a scale from 0-100 and then press Enter.",Flag,F1,,1917,,,1413,1583,,,,10,1
ChaseGay,3300r4rjui,DRM1_MSU,1,110,2023-11-11T18:41:11+00:00,2.2359199523926,6,Stim_B.csv,Item.csv,Item,B,dolls,,F2,,,99,JOL,User,-,"How likely are you to correctly recall the second item in the pair?|Type your response on a scale from 0-100 and then press Enter.",Flag,F2,,1841,,,1383,1631,,,,45,1
ChaseGay,3300r4rjui,DRM1_MSU,1,111,2023-11-11T18:41:13+00:00,1.8980219364166,6,Stim_B.csv,Item.csv,Item,B,pretty,,F3,,,100,JOL,User,-,"How likely are you to correctly recall the second item in the pair?|Type your response on a scale from 0-100 and then press Enter.",Flag,F3,,1423,,,1035,1210,,,,56,1
ChaseGay,3300r4rjui,DRM1_MSU,1,112,2023-11-11T18:41:15+00:00,2.1520719528198,6,Stim_B.csv,Item.csv,Item,B,female,,F4,,,101,JOL,User,-,"How likely are you to correctly recall the second item in the pair?|Type your response on a scale from 0-100 and then press Enter.",Flag,F4,,1332,,,801,1037,,,,67,1
ChaseGay,3300r4rjui,DRM1_MSU,1,113,2023-11-11T18:41:17+00:00,1.8451480865479,6,Stim_B.csv,Item.csv,Item,B,dress,,F5,,,102,JOL,User,-,"How likely are you to correctly recall the second item in the pair?|Type your response on a scale from 0-100 and then press Enter.",Flag,F5,,1287,,,983,1188,,,,77,1
ChaseGay,3300r4rjui,DRM1_MSU,1,114,2023-11-11T18:41:21+00:00,4.1608109474182,6,Stim_B.csv,Item.csv,Item,B,date,,F6,,,103,JOL,User,-,"How likely are you to correctly recall the second item in the pair?|Type your response on a scale from 0-100 and then press Enter.",Flag,F6,,3838,,,3290,3539,,,,66,1
ChaseGay,3300r4rjui,DRM1_MSU,1,115,2023-11-11T18:41:23+00:00,2.0852439403534,6,Stim_B.csv,Item.csv,Item,B,beautiful,,F7,,,104,JOL,User,-,"How likely are you to correctly recall the second item in the pair?|Type your response on a scale from 0-100 and then press Enter.",Flag,F7,,1457,,,967,1221,,,,78,1
ChaseGay,3300r4rjui,DRM1_MSU,1,116,2023-11-11T18:41:26+00:00,3.6041791439056,6,Stim_B.csv,Item.csv,Item,B,daughter,,F8,,,105,JOL,User,-,"How likely are you to correctly recall the second item in the pair?|Type your response on a scale from 0-100 and then press Enter.",Flag,F8,,1918,,,941,1117,,,,78,1
ChaseGay,3300r4rjui,DRM1_MSU,1,117,2023-11-11T18:41:28+00:00,1.5587840080261,6,Stim_B.csv,Item.csv,Item,B,sister,,F9,,,106,JOL,User,-,"How likely are you to correctly recall the second item in the pair?|Type your response on a scale from 0-100 and then press Enter.",Flag,F9,,923,,,518,761,,,,90,1
ChaseGay,3300r4rjui,DRM1_MSU,1,118,2023-11-11T18:41:31+00:00,3.4420628547668,6,Stim_B.csv,Item.csv,Item,B,cute,,F10,,,107,JOL,User,-,"How likely are you to correctly recall the second item in the pair?|Type your response on a scale from 0-100 and then press Enter.",Flag,F10,,1714,,,1276,1420,,,,89,1
ChaseGay,3300r4rjui,DRM1_MSU,1,119,2023-11-11T18:41:33+00:00,1.8489141464233,6,Stim_B.csv,Item.csv,Item,B,niece,,F11,,,108,JOL,User,-,"How likely are you to correctly recall the second item in the pair?|Type your response on a scale from 0-100 and then press Enter.",Flag,F11,,1187,,,693,863,,,,67,1
ChaseGay,3300r4rjui,DRM1_MSU,1,120,2023-11-11T18:41:35+00:00,2.1682538986206,6,Stim_B.csv,Item.csv,Item,B,young,,F12,,,109,JOL,User,-,"How likely are you to correctly recall the second item in the pair?|Type your response on a scale from 0-100 and then press Enter.",Flag,F12,,1517,,,831,1165,,,,55,1
ChaseGay,3300r4rjui,DRM1_MSU,1,121,2023-11-11T18:41:45+00:00,9.7422230243683,6,Stim_B.csv,Item.csv,Item,B,,,,,,0,Instruct,User,3,"You will now be presented with a new study list. Click next when you are ready to begin.",,NEXT_LIST,,8865,,,-1,-1,,,,,1
ChaseGay,3300r4rjui,DRM1_MSU,1,122,2023-11-11T18:41:48+00:00,2.7428860664368,6,Stim_B.csv,Item.csv,Item,B,white,,SS1,,,110,JOL,User,-,"How likely are you to correctly recall the second item in the pair?|Type your response on a scale from 0-100 and then press Enter.",Shirt,SS1,,2173,,,1516,1706,,,,90,1
ChaseGay,3300r4rjui,DRM1_MSU,1,123,2023-11-11T18:41:49+00:00,1.4202969074249,6,Stim_B.csv,Item.csv,Item,B,gray,,SS2,,,111,JOL,User,-,"How likely are you to correctly recall the second item in the pair?|Type your response on a scale from 0-100 and then press Enter.",Shirt,SS2,,816,,,381,564,,,,88,1
ChaseGay,3300r4rjui,DRM1_MSU,1,124,2023-11-11T18:41:51+00:00,2.0983321666718,6,Stim_B.csv,Item.csv,Item,B,brown,,SS3,,,112,JOL,User,-,"How likely are you to correctly recall the second item in the pair?|Type your response on a scale from 0-100 and then press Enter.",Shirt,SS3,,1503,,,655,1154,,,,60,1
ChaseGay,3300r4rjui,DRM1_MSU,1,125,2023-11-11T18:41:53+00:00,1.9388678073883,6,Stim_B.csv,Item.csv,Item,B,coal,,SS4,,,113,JOL,User,-,"How likely are you to correctly recall the second item in the pair?|Type your response on a scale from 0-100 and then press Enter.",Shirt,SS4,,1669,,,640,1103,,,,70,1
ChaseGay,3300r4rjui,DRM1_MSU,1,126,2023-11-11T18:41:56+00:00,2.3957209587097,6,Stim_B.csv,Item.csv,Item,B,dark,,SS5,,,114,JOL,User,-,"How likely are you to correctly recall the second item in the pair?|Type your response on a scale from 0-100 and then press Enter.",Shirt,SS5,,1266,,,350,721,,,,50,1
ChaseGay,3300r4rjui,DRM1_MSU,1,127,2023-11-11T18:41:58+00:00,2.5521171092987,6,Stim_B.csv,Item.csv,Item,B,color,,SS6,,,115,JOL,User,-,"How likely are you to correctly recall the second item in the pair?|Type your response on a scale from 0-100 and then press Enter.",Shirt,SS6,,1856,,,790,1609,,,,70,1
ChaseGay,3300r4rjui,DRM1_MSU,1,128,2023-11-11T18:42:01+00:00,2.9350719451904,6,Stim_B.csv,Item.csv,Item,B,funeral,,SS7,,,116,JOL,User,-,"How likely are you to correctly recall the second item in the pair?|Type your response on a scale from 0-100 and then press Enter.",Shirt,SS7,,2611,,,1000,2025,,,,55,1
ChaseGay,3300r4rjui,DRM1_MSU,1,129,2023-11-11T18:42:04+00:00,2.4299690723419,6,Stim_B.csv,Item.csv,Item,B,blue,,SS8,,,117,JOL,User,-,"How likely are you to correctly recall the second item in the pair?|Type your response on a scale from 0-100 and then press Enter.",Shirt,SS8,,1861,,,986,1669,,,,70,1
ChaseGay,3300r4rjui,DRM1_MSU,1,130,2023-11-11T18:42:06+00:00,2.7318699359894,6,Stim_B.csv,Item.csv,Item,B,charred,,SS9,,,118,JOL,User,-,"How likely are you to correctly recall the second item in the pair?|Type your response on a scale from 0-100 and then press Enter.",Shirt,SS9,,2337,,,1462,1881,,,,70,1
ChaseGay,3300r4rjui,DRM1_MSU,1,131,2023-11-11T18:42:09+00:00,2.6935479640961,6,Stim_B.csv,Item.csv,Item,B,ink,,SS10,,,119,JOL,User,-,"How likely are you to correctly recall the second item in the pair?|Type your response on a scale from 0-100 and then press Enter.",Shirt,SS10,,2297,,,1634,2034,,,,80,1
ChaseGay,3300r4rjui,DRM1_MSU,1,132,2023-11-11T18:42:11+00:00,1.6083090305328,6,Stim_B.csv,Item.csv,Item,B,death,,SS11,,,120,JOL,User,-,"How likely are you to correctly recall the second item in the pair?|Type your response on a scale from 0-100 and then press Enter.",Shirt,SS11,,1280,,,758,982,,,,90,1
ChaseGay,3300r4rjui,DRM1_MSU,1,133,2023-11-11T18:42:13+00:00,2.1614711284637,6,Stim_B.csv,Item.csv,Item,B,cat,,SS12,,,121,JOL,User,-,"How likely are you to correctly recall the second item in the pair?|Type your response on a scale from 0-100 and then press Enter.",Shirt,SS12,,1686,,,1172,1398,,,,90,1
ChaseGay,3300r4rjui,DRM1_MSU,1,134,2023-11-11T18:42:16+00:00,3.0784568786621,6,Stim_B.csv,Item.csv,Item,B,,,,,,0,Instruct,User,-,"You have completed this section. Please click next.",,Instruct166,,2752,,,-1,-1,,,,,1
ChaseGay,3300r4rjui,DRM1_MSU,1,135,2023-11-11T18:43:22+00:00,65.535427093506,6,Stim_B.csv,Item.csv,Item,B,,,,,,0,FreeRecall,60,60,"Please type as many words as you can that begin with the letter ""C"". The computer will automatically advance to the next screen in 60 seconds.",,FILLER,,60056,"cat chase car cliff coin cement calf cool certain cook clean c",0,8768,57259,0,0,,,1
ChaseGay,3300r4rjui,DRM1_MSU,1,136,2023-11-11T18:44:15+00:00,52.94300198555,6,Stim_B.csv,Item.csv,Item,B,,,,,,0,Instruct,User,-,"You have completed this section. Please click next.",,Instruct166,,33477,,,-1,-1,,,,,0.909
ChaseGay,3300r4rjui,DRM1_MSU,1,137,2023-11-11T18:44:53+00:00,38.446186065674,6,Stim_B.csv,Item.csv,Item,B,,,,,,0,Instruct,User,10,"Your memory will now be tested. You will be presented with a series of words. If the word on the screen was previously studied, please select YES. If the word was not studied, select NO. PLEASE DO NOT SKIP ITEMS! Click next when you are ready to begin.",,Instruct_stuff,,11384,,,-1,-1,,,,,1
ChaseGay,3300r4rjui,DRM1_MSU,1,138,2023-11-11T18:45:00+00:00,7.3953218460083,6,Stim_B.csv,Item.csv,Item,B,,shirt,RECOG,"Critical Lure Control",,126,Likert,User,1,"Was this item previously studied?","List Item Standard F",Recog,1::2,6331,NO,0,-1,-1,0,0,,,1
ChaseGay,3300r4rjui,DRM1_MSU,1,139,2023-11-11T18:45:03+00:00,2.9077041149139,6,Stim_B.csv,Item.csv,Item,B,,rough,RECOG,"Critical Lure Control",,177,Likert,User,1,"Was this item previously studied?","List Item Control",Recog,1::2,2125,YES,0,-1,-1,0,0,,,1
ChaseGay,3300r4rjui,DRM1_MSU,1,140,2023-11-11T18:45:07+00:00,3.6724908351898,6,Stim_B.csv,Item.csv,Item,B,,rose,RECOG,"List Item",,132,Likert,User,1,"Was this item previously studied?","List Item Standard F",Recog,1::2,2432,YES,28.571428571429,-1,-1,0,0,,,1
ChaseGay,3300r4rjui,DRM1_MSU,1,141,2023-11-11T18:45:10+00:00,3.3123550415039,6,Stim_B.csv,Item.csv,Item,B,,barge,RECOG,"List Item Control",,180,Likert,User,1,"Was this item previously studied?","List Item Control",Recog,1::2,2557,NO,0,-1,-1,0,0,,,1
ChaseGay,3300r4rjui,DRM1_MSU,1,142,2023-11-11T18:45:15+00:00,4.4982030391693,6,Stim_B.csv,Item.csv,Item,B,,trash,RECOG,"Critical Lure Control",,155,Likert,User,1,"Was this item previously studied?","Critical Lure Standard F",Recog,1::2,2788,NO,0,-1,-1,0,0,,,1
ChaseGay,3300r4rjui,DRM1_MSU,1,143,2023-11-11T18:45:19+00:00,4.4492380619049,6,Stim_B.csv,Item.csv,Item,B,,fragrance,RECOG,"List Item",,195,Likert,User,1,"Was this item previously studied?","Critical Lure Control",Recog,1::2,2316,YES,16.666666666667,-1,-1,0,0,,,1
ChaseGay,3300r4rjui,DRM1_MSU,1,144,2023-11-11T18:45:25+00:00,6.2657608985901,6,Stim_B.csv,Item.csv,Item,B,,eraser,RECOG,"List Item",,193,Likert,User,1,"Was this item previously studied?","Critical Lure Control",Recog,1::2,2714,NO,0,-1,-1,0,0,,,1
ChaseGay,3300r4rjui,DRM1_MSU,1,145,2023-11-11T18:45:31+00:00,5.8380291461945,6,Stim_B.csv,Item.csv,Item,B,,rubber,RECOG,"Critical Lure",,199,Likert,User,1,"Was this item previously studied?","Critical Lure Control",Recog,1::2,2927,NO,0,-1,-1,0,0,,,1
ChaseGay,3300r4rjui,DRM1_MSU,1,146,2023-11-11T18:45:37+00:00,5.4505109786987,6,Stim_B.csv,Item.csv,Item,B,,sweet,RECOG,"Critical Lure",,146,Likert,User,1,"Was this item previously studied?","List Item Sans F",Recog,1::2,3366,NO,0,-1,-1,0,0,,,1
ChaseGay,3300r4rjui,DRM1_MSU,1,147,2023-11-11T18:45:40+00:00,3.659795999527,6,Stim_B.csv,Item.csv,Item,B,,melody,RECOG,"List Item",,178,Likert,User,1,"Was this item previously studied?","List Item Control",Recog,1::2,2670,NO,25,-1,-1,0,0,,,1
ChaseGay,3300r4rjui,DRM1_MSU,1,148,2023-11-11T18:45:44+00:00,3.3004479408264,6,Stim_B.csv,Item.csv,Item,B,,scent,RECOG,"List Item",,122,Likert,User,1,"Was this item previously studied?","List Item Sans F",Recog,1::2,2483,YES,25,-1,-1,0,0,,,1
ChaseGay,3300r4rjui,DRM1_MSU,1,149,2023-11-11T18:45:47+00:00,3.7310030460358,6,Stim_B.csv,Item.csv,Item,B,,daughter,RECOG,"List Item",,188,Likert,User,1,"Was this item previously studied?","List Item Control",Recog,1::2,1985,YES,18.181818181818,-1,-1,0,0,,,1
ChaseGay,3300r4rjui,DRM1_MSU,1,150,2023-11-11T18:45:51+00:00,3.3435580730438,6,Stim_B.csv,Item.csv,Item,B,,river,RECOG,"Critical Lure Control",,183,Likert,User,1,"Was this item previously studied?","List Item Control",Recog,1::2,2487,NO,0,-1,-1,0,0,,,1
ChaseGay,3300r4rjui,DRM1_MSU,1,151,2023-11-11T18:45:56+00:00,5.5063757896423,6,Stim_B.csv,Item.csv,Item,B,,riders,RECOG,"List Item Control",,123,Likert,User,1,"Was this item previously studied?","List Item Sans F",Recog,1::2,2849,NO,0,-1,-1,0,0,,,1
ChaseGay,3300r4rjui,DRM1_MSU,1,152,2023-11-11T18:46:00+00:00,3.6156949996948,6,Stim_B.csv,Item.csv,Item,B,,soft,RECOG,"Critical Lure",,152,Likert,User,1,"Was this item previously studied?","Critical Lure Sans F",Recog,1::2,2265,YES,28.571428571429,-1,-1,0,0,,,1
ChaseGay,3300r4rjui,DRM1_MSU,1,153,2023-11-11T18:46:05+00:00,4.7328310012817,6,Stim_B.csv,Item.csv,Item,B,,ball,RECOG,"List Item",,163,Likert,User,1,"Was this item previously studied?","List Item Control",Recog,1::2,3758,YES,0,-1,-1,0,0,,,1
ChaseGay,3300r4rjui,DRM1_MSU,1,154,2023-11-11T18:46:08+00:00,2.9721400737762,6,Stim_B.csv,Item.csv,Item,B,,mountain,RECOG,"Critical Lure",,143,Likert,User,1,"Was this item previously studied?","List Item Standard F",Recog,1::2,2656,NO,20,-1,-1,0,0,,,1
ChaseGay,3300r4rjui,DRM1_MSU,1,155,2023-11-11T18:46:11+00:00,3.5532879829407,6,Stim_B.csv,Item.csv,Item,B,,checkered,RECOG,"List Item Control",,133,Likert,User,1,"Was this item previously studied?","List Item Standard F",Recog,1::2,2997,NO,0,-1,-1,0,0,,,1
ChaseGay,3300r4rjui,DRM1_MSU,1,156,2023-11-11T18:46:15+00:00,3.8340311050415,6,Stim_B.csv,Item.csv,Item,B,,mean,RECOG,"List Item Control",,162,Likert,User,1,"Was this item previously studied?","List Item Control",Recog,1::2,2598,NO,33.333333333333,-1,-1,0,0,,,1
ChaseGay,3300r4rjui,DRM1_MSU,1,157,2023-11-11T18:46:18+00:00,2.6655969619751,6,Stim_B.csv,Item.csv,Item,B,,swivel,RECOG,"List Item",,127,Likert,User,1,"Was this item previously studied?","List Item Standard F",Recog,1::2,2336,NO,0,-1,-1,0,0,,,1
ChaseGay,3300r4rjui,DRM1_MSU,1,158,2023-11-11T18:46:21+00:00,2.9312250614166,6,Stim_B.csv,Item.csv,Item,B,,speed,RECOG,"List Item Control",,169,Likert,User,1,"Was this item previously studied?","List Item Control",Recog,1::2,2468,NO,0,-1,-1,0,0,,,1
ChaseGay,3300r4rjui,DRM1_MSU,1,159,2023-11-11T18:46:24+00:00,3.0691089630127,6,Stim_B.csv,Item.csv,Item,B,,jersey,RECOG,"List Item Control",,159,Likert,User,1,"Was this item previously studied?","Critical Lure Standard F",Recog,1::2,2323,NO,0,-1,-1,0,0,,,1
ChaseGay,3300r4rjui,DRM1_MSU,1,160,2023-11-11T18:46:28+00:00,4.2844779491425,6,Stim_B.csv,Item.csv,Item,B,,latex,RECOG,"List Item",,189,Likert,User,1,"Was this item previously studied?","List Item Control",Recog,1::2,3807,NO,0,-1,-1,0,0,,,1
ChaseGay,3300r4rjui,DRM1_MSU,1,161,2023-11-11T18:46:30+00:00,2.5068290233612,6,Stim_B.csv,Item.csv,Item,B,,road,RECOG,"List Item Control",,150,Likert,User,1,"Was this item previously studied?","List Item Standard F",Recog,1::2,2178,YES,0,-1,-1,0,0,,,1
ChaseGay,3300r4rjui,DRM1_MSU,1,162,2023-11-11T18:46:34+00:00,3.1468780040741,6,Stim_B.csv,Item.csv,Item,B,,view,RECOG,"List Item Control",,131,Likert,User,1,"Was this item previously studied?","List Item Standard F",Recog,1::2,2299,NO,0,-1,-1,0,0,,,1
ChaseGay,3300r4rjui,DRM1_MSU,1,163,2023-11-11T18:46:40+00:00,6.0401668548584,6,Stim_B.csv,Item.csv,Item,B,,couch,RECOG,"List Item",,134,Likert,User,1,"Was this item previously studied?","List Item Sans F",Recog,1::2,2402,YES,0,-1,-1,0,0,,,1
ChaseGay,3300r4rjui,DRM1_MSU,1,164,2023-11-11T18:46:44+00:00,4.5230162143707,6,Stim_B.csv,Item.csv,Item,B,,boat,RECOG,"List Item Control",,140,Likert,User,1,"Was this item previously studied?","List Item Sans F",Recog,1::2,3129,NO,33.333333333333,-1,-1,0,0,,,1
ChaseGay,3300r4rjui,DRM1_MSU,1,165,2023-11-11T18:46:52+00:00,7.3711588382721,6,Stim_B.csv,Item.csv,Item,B,,cuffs,RECOG,"List Item Control",,182,Likert,User,1,"Was this item previously studied?","List Item Control",Recog,1::2,3068,NO,0,-1,-1,0,0,,,1
ChaseGay,3300r4rjui,DRM1_MSU,1,166,2023-11-11T18:46:56+00:00,4.4466199874878,6,Stim_B.csv,Item.csv,Item,B,,ink,RECOG,"List Item",,171,Likert,User,1,"Was this item previously studied?","List Item Control",Recog,1::2,2268,NO,40,-1,-1,0,0,,,1
ChaseGay,3300r4rjui,DRM1_MSU,1,167,2023-11-11T18:47:04+00:00,7.6130881309509,6,Stim_B.csv,Item.csv,Item,B,,bread,RECOG,"Critical Lure Control",,149,Likert,User,1,"Was this item previously studied?","List Item Standard F",Recog,1::2,6913,NO,0,-1,-1,0,0,,,1
ChaseGay,3300r4rjui,DRM1_MSU,1,168,2023-11-11T18:47:07+00:00,3.760705947876,6,Stim_B.csv,Item.csv,Item,B,,sofa,RECOG,"List Item",,197,Likert,User,1,"Was this item previously studied?","Critical Lure Control",Recog,1::2,2735,YES,28.571428571429,-1,-1,0,0,,,1
ChaseGay,3300r4rjui,DRM1_MSU,1,169,2023-11-11T18:47:11+00:00,3.4973039627075,6,Stim_B.csv,Item.csv,Item,B,,jelly,RECOG,"List Item Control",,165,Likert,User,1,"Was this item previously studied?","List Item Control",Recog,1::2,2656,NO,0,-1,-1,0,0,,,1
ChaseGay,3300r4rjui,DRM1_MSU,1,170,2023-11-11T18:47:15+00:00,4.4372079372406,6,Stim_B.csv,Item.csv,Item,B,,loud,RECOG,"List Item",,142,Likert,User,1,"Was this item previously studied?","List Item Sans F",Recog,1::2,3567,YES,0,-1,-1,0,0,,,1
ChaseGay,3300r4rjui,DRM1_MSU,1,171,2023-11-11T18:47:18+00:00,2.764445066452,6,Stim_B.csv,Item.csv,Item,B,,anger,RECOG,"Critical Lure Control",,138,Likert,User,1,"Was this item previously studied?","List Item Standard F",Recog,1::2,2212,NO,28.571428571429,-1,-1,0,0,,,1
ChaseGay,3300r4rjui,DRM1_MSU,1,172,2023-11-11T18:47:22+00:00,3.7362730503082,6,Stim_B.csv,Item.csv,Item,B,,creek,RECOG,"List Item Control",,148,Likert,User,1,"Was this item previously studied?","List Item Sans F",Recog,1::2,2955,YES,25,-1,-1,0,0,,,1
ChaseGay,3300r4rjui,DRM1_MSU,1,173,2023-11-11T18:47:26+00:00,4.3646199703217,6,Stim_B.csv,Item.csv,Item,B,,fur,RECOG,"List Item",,167,Likert,User,1,"Was this item previously studied?","List Item Control",Recog,1::2,3680,YES,0,-1,-1,0,0,,,1
ChaseGay,3300r4rjui,DRM1_MSU,1,174,2023-11-11T18:47:30+00:00,3.4987769126892,6,Stim_B.csv,Item.csv,Item,B,,inch,RECOG,"List Item",,187,Likert,User,1,"Was this item previously studied?","List Item Control",Recog,1::2,2934,NO,33.333333333333,-1,-1,0,0,,,1
ChaseGay,3300r4rjui,DRM1_MSU,1,175,2023-11-11T18:47:32+00:00,2.0993661880493,6,Stim_B.csv,Item.csv,Item,B,,gray,RECOG,"List Item",,145,Likert,User,1,"Was this item previously studied?","List Item Standard F",Recog,1::2,1710,NO,0,-1,-1,0,0,,,1
ChaseGay,3300r4rjui,DRM1_MSU,1,176,2023-11-11T18:47:34+00:00,2.3313179016113,6,Stim_B.csv,Item.csv,Item,B,,cotton,RECOG,"List Item",,164,Likert,User,1,"Was this item previously studied?","List Item Control",Recog,1::2,1818,NO,25,-1,-1,0,0,,,1
ChaseGay,3300r4rjui,DRM1_MSU,1,177,2023-11-11T18:47:36+00:00,2.1103920936584,6,Stim_B.csv,Item.csv,Item,B,,waste,RECOG,"List Item Control",,198,Likert,User,1,"Was this item previously studied?","Critical Lure Control",Recog,1::2,1660,NO,0,-1,-1,0,0,,,1
ChaseGay,3300r4rjui,DRM1_MSU,1,178,2023-11-11T18:47:40+00:00,3.6980419158936,6,Stim_B.csv,Item.csv,Item,B,,music,RECOG,"Critical Lure",,154,Likert,User,1,"Was this item previously studied?","Critical Lure Sans F",Recog,1::2,2962,NO,0,-1,-1,0,0,,,1
ChaseGay,3300r4rjui,DRM1_MSU,1,179,2023-11-11T18:47:44+00:00,4.4652180671692,6,Stim_B.csv,Item.csv,Item,B,,sleeves,RECOG,"List Item Control",,129,Likert,User,1,"Was this item previously studied?","List Item Sans F",Recog,1::2,2968,NO,0,-1,-1,0,0,,,1
ChaseGay,3300r4rjui,DRM1_MSU,1,180,2023-11-11T18:47:48+00:00,3.9941818714142,6,Stim_B.csv,Item.csv,Item,B,,smooth,RECOG,"List Item Control",,192,Likert,User,1,"Was this item previously studied?","Critical Lure Control",Recog,1::2,2616,YES,22.222222222222,-1,-1,0,0,,,1
ChaseGay,3300r4rjui,DRM1_MSU,1,181,2023-11-11T18:47:52+00:00,3.4848971366882,6,Stim_B.csv,Item.csv,Item,B,,window,RECOG,"Critical Lure Control",,166,Likert,User,1,"Was this item previously studied?","List Item Control",Recog,1::2,2034,NO,50,-1,-1,0,0,,,1
ChaseGay,3300r4rjui,DRM1_MSU,1,182,2023-11-11T18:47:55+00:00,3.1688878536224,6,Stim_B.csv,Item.csv,Item,B,,medicine,RECOG,"List Item Control",,124,Likert,User,1,"Was this item previously studied?","List Item Sans F",Recog,1::2,2308,NO,20,-1,-1,0,0,,,1
ChaseGay,3300r4rjui,DRM1_MSU,1,183,2023-11-11T18:47:58+00:00,3.1310429573059,6,Stim_B.csv,Item.csv,Item,B,,hesitant,RECOG,"List Item Control",,196,Likert,User,1,"Was this item previously studied?","Critical Lure Control",Recog,1::2,1884,NO,20,-1,-1,0,0,,,1
ChaseGay,3300r4rjui,DRM1_MSU,1,184,2023-11-11T18:48:03+00:00,4.8526401519775,6,Stim_B.csv,Item.csv,Item,B,,nice,RECOG,"List Item",,181,Likert,User,1,"Was this item previously studied?","List Item Control",Recog,1::2,3347,YES,28.571428571429,-1,-1,0,0,,,1
ChaseGay,3300r4rjui,DRM1_MSU,1,185,2023-11-11T18:48:09+00:00,5.9593980312347,6,Stim_B.csv,Item.csv,Item,B,,pile,RECOG,"List Item Control",,200,Likert,User,1,"Was this item previously studied?","Critical Lure Control",Recog,1::2,3732,NO,0,-1,-1,0,0,,,1
ChaseGay,3300r4rjui,DRM1_MSU,1,186,2023-11-11T18:48:13+00:00,3.7934520244598,6,Stim_B.csv,Item.csv,Item,B,,kick,RECOG,"List Item",,141,Likert,User,1,"Was this item previously studied?","List Item Sans F",Recog,1::2,1845,NO,0,-1,-1,0,0,,,1
ChaseGay,3300r4rjui,DRM1_MSU,1,187,2023-11-11T18:48:18+00:00,5.1914229393005,6,Stim_B.csv,Item.csv,Item,B,,girl,RECOG,"Critical Lure",,170,Likert,User,1,"Was this item previously studied?","List Item Control",Recog,1::2,3383,YES,0,-1,-1,0,0,,,1
ChaseGay,3300r4rjui,DRM1_MSU,1,188,2023-11-11T18:48:23+00:00,4.9292778968811,6,Stim_B.csv,Item.csv,Item,B,,sill,RECOG,"List Item Control",,175,Likert,User,1,"Was this item previously studied?","List Item Control",Recog,1::2,3268,NO,0,-1,-1,0,0,,,1
ChaseGay,3300r4rjui,DRM1_MSU,1,189,2023-11-11T18:48:25+00:00,2.5780940055847,6,Stim_B.csv,Item.csv,Item,B,,fight,RECOG,"List Item Control",,161,Likert,User,1,"Was this item previously studied?","Critical Lure Standard F",Recog,1::2,2253,NO,0,-1,-1,0,0,,,1
ChaseGay,3300r4rjui,DRM1_MSU,1,190,2023-11-11T18:48:30+00:00,4.7090220451355,6,Stim_B.csv,Item.csv,Item,B,,snail,RECOG,"List Item Control",,168,Likert,User,1,"Was this item previously studied?","List Item Control",Recog,1::2,2863,YES,25,-1,-1,0,0,,,1
ChaseGay,3300r4rjui,DRM1_MSU,1,191,2023-11-11T18:48:34+00:00,3.4033811092377,6,Stim_B.csv,Item.csv,Item,B,,dolls,RECOG,"List Item",,147,Likert,User,1,"Was this item previously studied?","List Item Sans F",Recog,1::2,2742,YES,25,-1,-1,0,0,,,1
ChaseGay,3300r4rjui,DRM1_MSU,1,192,2023-11-11T18:48:37+00:00,3.2018659114838,6,Stim_B.csv,Item.csv,Item,B,,rubbish,RECOG,"List Item Control",,144,Likert,User,1,"Was this item previously studied?","List Item Standard F",Recog,1::2,2687,NO,0,-1,-1,0,0,,,1
ChaseGay,3300r4rjui,DRM1_MSU,1,193,2023-11-11T18:48:41+00:00,3.8897299766541,6,Stim_B.csv,Item.csv,Item,B,,smell,RECOG,"Critical Lure",,128,Likert,User,1,"Was this item previously studied?","List Item Sans F",Recog,1::2,3291,YES,25,-1,-1,0,0,,,1
ChaseGay,3300r4rjui,DRM1_MSU,1,194,2023-11-11T18:48:44+00:00,3.3116619586945,6,Stim_B.csv,Item.csv,Item,B,,health,RECOG,"List Item Control",,157,Likert,User,1,"Was this item previously studied?","Critical Lure Standard F",Recog,1::2,2412,NO,0,-1,-1,0,0,,,1
ChaseGay,3300r4rjui,DRM1_MSU,1,195,2023-11-11T18:48:48+00:00,3.6999220848083,6,Stim_B.csv,Item.csv,Item,B,,sound,RECOG,"List Item",,151,Likert,User,1,"Was this item previously studied?","List Item Standard F",Recog,1::2,2501,YES,25,-1,-1,0,0,,,1
ChaseGay,3300r4rjui,DRM1_MSU,1,196,2023-11-11T18:48:50+00:00,2.7889349460602,6,Stim_B.csv,Item.csv,Item,B,,nurse,RECOG,"List Item Control",,190,Likert,User,1,"Was this item previously studied?","List Item Control",Recog,1::2,2427,NO,28.571428571429,-1,-1,0,0,,,1
ChaseGay,3300r4rjui,DRM1_MSU,1,197,2023-11-11T18:48:53+00:00,2.0693650245667,6,Stim_B.csv,Item.csv,Item,B,,bike,RECOG,"List Item",,176,Likert,User,1,"Was this item previously studied?","List Item Control",Recog,1::2,1689,NO,0,-1,-1,0,0,,,1
ChaseGay,3300r4rjui,DRM1_MSU,1,198,2023-11-11T18:48:55+00:00,2.7379899024963,6,Stim_B.csv,Item.csv,Item,B,,shade,RECOG,"List Item Control",,139,Likert,User,1,"Was this item previously studied?","List Item Standard F",Recog,1::2,1945,NO,0,-1,-1,0,0,,,1
ChaseGay,3300r4rjui,DRM1_MSU,1,199,2023-11-11T18:48:58+00:00,2.7461140155792,6,Stim_B.csv,Item.csv,Item,B,,mad,RECOG,"List Item Control",,173,Likert,User,1,"Was this item previously studied?","List Item Control",Recog,1::2,2100,NO,0,-1,-1,0,0,,,1
ChaseGay,3300r4rjui,DRM1_MSU,1,200,2023-11-11T18:49:02+00:00,4.4873640537262,6,Stim_B.csv,Item.csv,Item,B,,cute,RECOG,"List Item",,191,Likert,User,1,"Was this item previously studied?","List Item Control",Recog,1::2,3863,YES,28.571428571429,-1,-1,0,0,,,1
ChaseGay,3300r4rjui,DRM1_MSU,1,201,2023-11-11T18:49:09+00:00,6.1172721385956,6,Stim_B.csv,Item.csv,Item,B,,hill,RECOG,"List Item",,130,Likert,User,1,"Was this item previously studied?","List Item Sans F",Recog,1::2,5777,NO,0,-1,-1,0,0,,,1
ChaseGay,3300r4rjui,DRM1_MSU,1,202,2023-11-11T18:49:15+00:00,6.2566518783569,6,Stim_B.csv,Item.csv,Item,B,,slow,RECOG,"Critical Lure Control",,172,Likert,User,1,"Was this item previously studied?","List Item Control",Recog,1::2,5864,NO,33.333333333333,-1,-1,0,0,,,1
ChaseGay,3300r4rjui,DRM1_MSU,1,203,2023-11-11T18:49:21+00:00,5.7472450733185,6,Stim_B.csv,Item.csv,Item,B,,national,RECOG,"List Item Control",,137,Likert,User,1,"Was this item previously studied?","List Item Standard F",Recog,1::2,4595,NO,40,-1,-1,0,0,,,1
ChaseGay,3300r4rjui,DRM1_MSU,1,204,2023-11-11T18:49:25+00:00,4.3812499046326,6,Stim_B.csv,Item.csv,Item,B,,flag,RECOG,"Critical Lure Control",,186,Likert,User,1,"Was this item previously studied?","List Item Control",Recog,1::2,3727,NO,0,-1,-1,0,0,,,1
ChaseGay,3300r4rjui,DRM1_MSU,1,205,2023-11-11T18:49:30+00:00,4.8450500965118,6,Stim_B.csv,Item.csv,Item,B,,chair,RECOG,"Critical Lure",,156,Likert,User,1,"Was this item previously studied?","Critical Lure Sans F",Recog,1::2,3916,YES,0,-1,-1,0,0,,,1
ChaseGay,3300r4rjui,DRM1_MSU,1,206,2023-11-11T18:49:34+00:00,4.1670269966125,6,Stim_B.csv,Item.csv,Item,B,,loaf,RECOG,"List Item Control",,185,Likert,User,1,"Was this item previously studied?","List Item Control",Recog,1::2,3884,NO,33.333333333333,-1,-1,0,0,,,1
ChaseGay,3300r4rjui,DRM1_MSU,1,207,2023-11-11T18:49:37+00:00,3.1112680435181,6,Stim_B.csv,Item.csv,Item,B,,steep,RECOG,"List Item",,184,Likert,User,1,"Was this item previously studied?","List Item Control",Recog,1::2,2602,YES,25,-1,-1,0,0,,,1
ChaseGay,3300r4rjui,DRM1_MSU,1,208,2023-11-11T18:49:40+00:00,2.8262588977814,6,Stim_B.csv,Item.csv,Item,B,,concert,RECOG,"List Item",,160,Likert,User,1,"Was this item previously studied?","Critical Lure Sans F",Recog,1::2,2478,NO,22.222222222222,-1,-1,0,0,,,1
ChaseGay,3300r4rjui,DRM1_MSU,1,209,2023-11-11T18:49:44+00:00,4.3262178897858,6,Stim_B.csv,Item.csv,Item,B,,bitter,RECOG,"List Item",,125,Likert,User,1,"Was this item previously studied?","List Item Standard F",Recog,1::2,3145,YES,22.222222222222,-1,-1,0,0,,,1
ChaseGay,3300r4rjui,DRM1_MSU,1,210,2023-11-11T18:49:47+00:00,2.8313400745392,6,Stim_B.csv,Item.csv,Item,B,,symbol,RECOG,"List Item Control",,136,Likert,User,1,"Was this item previously studied?","List Item Sans F",Recog,1::2,2272,NO,25,-1,-1,0,0,,,1
ChaseGay,3300r4rjui,DRM1_MSU,1,211,2023-11-11T18:49:52+00:00,5.0430910587311,6,Stim_B.csv,Item.csv,Item,B,,foot,RECOG,"Critical Lure",,153,Likert,User,1,"Was this item previously studied?","Critical Lure Standard F",Recog,1::2,4398,YES,0,-1,-1,0,0,,,1
ChaseGay,3300r4rjui,DRM1_MSU,1,212,2023-11-11T18:49:57+00:00,4.7018558979034,6,Stim_B.csv,Item.csv,Item,B,,cake,RECOG,"List Item",,201,Likert,User,1,"Was this item previously studied?","Critical Lure Control",Recog,1::2,3596,NO,0,-1,-1,0,0,,,1
ChaseGay,3300r4rjui,DRM1_MSU,1,213,2023-11-11T18:50:01+00:00,3.7477040290833,6,Stim_B.csv,Item.csv,Item,B,,boot,RECOG,"List Item",,174,Likert,User,1,"Was this item previously studied?","List Item Control",Recog,1::2,2940,NO,33.333333333333,-1,-1,0,0,,,1
ChaseGay,3300r4rjui,DRM1_MSU,1,214,2023-11-11T18:50:04+00:00,3.3059730529785,6,Stim_B.csv,Item.csv,Item,B,,sandwich,RECOG,"List Item Control",,194,Likert,User,1,"Was this item previously studied?","Critical Lure Control",Recog,1::2,2408,NO,20,-1,-1,0,0,,,1
ChaseGay,3300r4rjui,DRM1_MSU,1,215,2023-11-11T18:50:07+00:00,2.8583168983459,6,Stim_B.csv,Item.csv,Item,B,,blue,RECOG,"List Item",,179,Likert,User,1,"Was this item previously studied?","List Item Control",Recog,1::2,2306,NO,0,-1,-1,0,0,,,1
ChaseGay,3300r4rjui,DRM1_MSU,1,216,2023-11-11T18:50:10+00:00,3.4365940093994,6,Stim_B.csv,Item.csv,Item,B,,doctor,RECOG,"Critical Lure Control",,135,Likert,User,1,"Was this item previously studied?","List Item Sans F",Recog,1::2,2258,NO,25,-1,-1,0,0,,,1
ChaseGay,3300r4rjui,DRM1_MSU,1,217,2023-11-11T18:50:15+00:00,4.4192690849304,6,Stim_B.csv,Item.csv,Item,B,,black,RECOG,"Critical Lure",,158,Likert,User,1,"Was this item previously studied?","Critical Lure Sans F",Recog,1::2,3825,NO,0,-1,-1,0,0,,,1
ChaseGay,3300r4rjui,DRM1_MSU,1,218,2023-11-11T18:50:17+00:00,2.4303579330444,6,Stim_B.csv,Item.csv,Item,B,,,,,,0,Instruct,User,-,"You have completed this section. Please click next.",,Instruct7,,1905,,,-1,-1,,,,,1
ChaseGay,3300r4rjui,DRM1_MSU,1,219,2023-11-11T18:50:22+00:00,5.0725750923157,6,Stim_B.csv,Item.csv,Item,B,,,,,,0,Instruct,User,-,"The following screen will ask you a few questions abour your experience today. You must complete these questions to receive credit.",,Instruct8,,3919,,,-1,-1,,,,,1
