Username,ID,ExperimentName,Session,Trial,Date,TimeDif,"Condition Number","Stimuli File","Order File","Condition Description","Condition Notes",Stimuli*Cue,Stimuli*Answer,Stimuli*Shuffle,"Stimuli*Stimuli Notes",Stimuli*Value,Procedure*Item,"Procedure*Trial Type","Procedure*Max Time","Procedure*Min Time",Procedure*Text,"Procedure*Procedure Notes",Procedure*Shuffle,Procedure*,Response*RT,Response*Response,Response*Accuracy,Response*RTfirst,Response*RTlast,Response*strictAcc,Response*lenientAcc,Response*focus,Response*Focus
JanelyMartinez,5cnr99sxap,DRM1_MSU,1,1,2023-11-20T15:11:41+00:00,7.9730479717255,1,Stim_A.csv,Read.csv,Read,A,,,,,,0,Instruct,-,5,"In this section, you will be presented with a series of words. Please study each word carefully. Your memory will be tested! Click next when you are ready to begin.",Initial_Instruct,Instruct1,,7768,,,-1,-1,,,,1
JanelyMartinez,5cnr99sxap,DRM1_MSU,1,2,2023-11-20T15:11:43+00:00,1.6501150131226,1,Stim_A.csv,Read.csv,Read,A,,,,,,0,Instruct,User,-,"You will now begin the study. Click next when you are ready to begin.",,Instruct16,,1487,,,-1,-1,,,,1
JanelyMartinez,5cnr99sxap,DRM1_MSU,1,3,2023-11-20T15:11:48+00:00,4.7458350658417,1,Stim_A.csv,Read.csv,Read,A,pane,,Win_1,,,2,Study,User,-,,Window,Win_1,,4471,,,-1,-1,,,,1
JanelyMartinez,5cnr99sxap,DRM1_MSU,1,4,2023-11-20T15:11:49+00:00,1.6046419143677,1,Stim_A.csv,Read.csv,Read,A,sill,,Win_2,,,3,Study,User,-,,Window,Win_2,,1436,,,-1,-1,,,,1
JanelyMartinez,5cnr99sxap,DRM1_MSU,1,5,2023-11-20T15:11:51+00:00,1.7723271846771,1,Stim_A.csv,Read.csv,Read,A,shutter,,Win_3,,,4,Study,User,-,,Window,Win_3,,1605,,,-1,-1,,,,1
JanelyMartinez,5cnr99sxap,DRM1_MSU,1,6,2023-11-20T15:11:53+00:00,1.7322819232941,1,Stim_A.csv,Read.csv,Read,A,curtain,,Win_4,,,5,Study,User,-,,Window,Win_4,,1562,,,-1,-1,,,,1
JanelyMartinez,5cnr99sxap,DRM1_MSU,1,7,2023-11-20T15:11:55+00:00,1.590255022049,1,Stim_A.csv,Read.csv,Read,A,door,,Win_5,,,6,Study,User,-,,Window,Win_5,,1418,,,-1,-1,,,,1
JanelyMartinez,5cnr99sxap,DRM1_MSU,1,8,2023-11-20T15:11:56+00:00,1.5499470233917,1,Stim_A.csv,Read.csv,Read,A,ledge,,Win_6,,,7,Study,User,-,,Window,Win_6,,1374,,,-1,-1,,,,1
JanelyMartinez,5cnr99sxap,DRM1_MSU,1,9,2023-11-20T15:11:58+00:00,1.6298539638519,1,Stim_A.csv,Read.csv,Read,A,glass,,Win_7,,,8,Study,User,-,,Window,Win_7,,1462,,,-1,-1,,,,1
JanelyMartinez,5cnr99sxap,DRM1_MSU,1,10,2023-11-20T15:11:59+00:00,1.7482039928436,1,Stim_A.csv,Read.csv,Read,A,view,,Win_8,,,9,Study,User,-,,Window,Win_8,,1553,,,-1,-1,,,,1
JanelyMartinez,5cnr99sxap,DRM1_MSU,1,11,2023-11-20T15:12:01+00:00,1.8311228752136,1,Stim_A.csv,Read.csv,Read,A,screen,,Win_9,,,10,Study,User,-,,Window,Win_9,,1661,,,-1,-1,,,,1
JanelyMartinez,5cnr99sxap,DRM1_MSU,1,12,2023-11-20T15:12:03+00:00,1.7867732048035,1,Stim_A.csv,Read.csv,Read,A,shade,,Win_10,,,11,Study,User,-,,Window,Win_10,,1615,,,-1,-1,,,,1
JanelyMartinez,5cnr99sxap,DRM1_MSU,1,13,2023-11-20T15:12:05+00:00,1.7498397827148,1,Stim_A.csv,Read.csv,Read,A,open,,Win_11,,,12,Study,User,-,,Window,Win_11,,1586,,,-1,-1,,,,1
JanelyMartinez,5cnr99sxap,DRM1_MSU,1,14,2023-11-20T15:12:07+00:00,1.7543041706085,1,Stim_A.csv,Read.csv,Read,A,frame,,Win_12,,,13,Study,User,-,,Window,Win_12,,1586,,,-1,-1,,,,1
JanelyMartinez,5cnr99sxap,DRM1_MSU,1,15,2023-11-20T15:12:12+00:00,5.6007599830627,1,Stim_A.csv,Read.csv,Read,A,,,,,,0,Instruct,User,3,"You will now be presented with a new study list. Click next when you are ready to begin.",,NEXT_LIST,,5314,,,-1,-1,,,,1
JanelyMartinez,5cnr99sxap,DRM1_MSU,1,16,2023-11-20T15:12:14+00:00,2.2013359069824,1,Stim_A.csv,Read.csv,Read,A,sandpaper,,R1,,,14,Study,User,-,,Rough,R1,,2037,,,-1,-1,,,,1
JanelyMartinez,5cnr99sxap,DRM1_MSU,1,17,2023-11-20T15:12:16+00:00,1.6340610980988,1,Stim_A.csv,Read.csv,Read,A,smooth,,R2,,,15,Study,User,-,,Rough,R2,,1427,,,-1,-1,,,,1
JanelyMartinez,5cnr99sxap,DRM1_MSU,1,18,2023-11-20T15:12:17+00:00,1.490660905838,1,Stim_A.csv,Read.csv,Read,A,coarse,,R3,,,16,Study,User,-,,Rough,R3,,1262,,,-1,-1,,,,1
JanelyMartinez,5cnr99sxap,DRM1_MSU,1,19,2023-11-20T15:12:19+00:00,1.7253451347351,1,Stim_A.csv,Read.csv,Read,A,tough,,R4,,,17,Study,User,-,,Rough,R4,,1564,,,-1,-1,,,,1
JanelyMartinez,5cnr99sxap,DRM1_MSU,1,20,2023-11-20T15:12:22+00:00,3.2063589096069,1,Stim_A.csv,Read.csv,Read,A,rugged,,R5,,,18,Study,User,-,,Rough,R5,,3044,,,-1,-1,,,,1
JanelyMartinez,5cnr99sxap,DRM1_MSU,1,21,2023-11-20T15:12:27+00:00,4.907751083374,1,Stim_A.csv,Read.csv,Read,A,bumpy,,R6,,,19,Study,User,-,,Rough,R6,,4608,,,-1,-1,,,,1
JanelyMartinez,5cnr99sxap,DRM1_MSU,1,22,2023-11-20T15:12:29+00:00,1.849231004715,1,Stim_A.csv,Read.csv,Read,A,jagged,,R7,,,20,Study,User,-,,Rough,R7,,1649,,,-1,-1,,,,1
JanelyMartinez,5cnr99sxap,DRM1_MSU,1,23,2023-11-20T15:12:34+00:00,5.0451679229736,1,Stim_A.csv,Read.csv,Read,A,riders,,R8,,,21,Study,User,-,,Rough,R8,,4770,,,-1,-1,,,,1
JanelyMartinez,5cnr99sxap,DRM1_MSU,1,24,2023-11-20T15:12:36+00:00,1.7937700748444,1,Stim_A.csv,Read.csv,Read,A,uneven,,R9,,,22,Study,User,-,,Rough,R9,,1626,,,-1,-1,,,,1
JanelyMartinez,5cnr99sxap,DRM1_MSU,1,25,2023-11-20T15:12:38+00:00,1.8506247997284,1,Stim_A.csv,Read.csv,Read,A,road,,R10,,,23,Study,User,-,,Rough,R10,,1696,,,-1,-1,,,,1
JanelyMartinez,5cnr99sxap,DRM1_MSU,1,26,2023-11-20T15:12:40+00:00,1.8211641311646,1,Stim_A.csv,Read.csv,Read,A,ready,,R11,,,24,Study,User,-,,Rough,R11,,1649,,,-1,-1,,,,1
JanelyMartinez,5cnr99sxap,DRM1_MSU,1,27,2023-11-20T15:12:42+00:00,2.0538759231567,1,Stim_A.csv,Read.csv,Read,A,sand,,R12,,,25,Study,User,-,,Rough,R12,,1797,,,-1,-1,,,,1
JanelyMartinez,5cnr99sxap,DRM1_MSU,1,28,2023-11-20T15:12:49+00:00,7.6645979881287,1,Stim_A.csv,Read.csv,Read,A,,,,,,0,Instruct,User,3,"You will now be presented with a new study list. Click next when you are ready to begin.",,NEXT_LIST,,7363,,,-1,-1,,,,1
JanelyMartinez,5cnr99sxap,DRM1_MSU,1,29,2023-11-20T15:12:55+00:00,6.0665640830994,1,Stim_A.csv,Read.csv,Read,A,rage,,A1,,,26,Study,User,-,,Anger,A1,,5783,,,-1,-1,,,,1
JanelyMartinez,5cnr99sxap,DRM1_MSU,1,30,2023-11-20T15:12:57+00:00,1.9636480808258,1,Stim_A.csv,Read.csv,Read,A,mad,,A2,,,27,Study,User,-,,Anger,A2,,1797,,,-1,-1,,,,1
JanelyMartinez,5cnr99sxap,DRM1_MSU,1,31,2023-11-20T15:12:59+00:00,1.9446959495544,1,Stim_A.csv,Read.csv,Read,A,enrage,,A3,,,28,Study,User,-,,Anger,A3,,1777,,,-1,-1,,,,1
JanelyMartinez,5cnr99sxap,DRM1_MSU,1,32,2023-11-20T15:13:04+00:00,4.3059868812561,1,Stim_A.csv,Read.csv,Read,A,fury,,A4,,,29,Study,User,-,,Anger,A4,,4030,,,-1,-1,,,,1
JanelyMartinez,5cnr99sxap,DRM1_MSU,1,33,2023-11-20T15:13:07+00:00,3.1843690872192,1,Stim_A.csv,Read.csv,Read,A,temper,,A5,,,30,Study,User,-,,Anger,A5,,3014,,,-1,-1,,,,1
JanelyMartinez,5cnr99sxap,DRM1_MSU,1,34,2023-11-20T15:13:09+00:00,1.7822968959808,1,Stim_A.csv,Read.csv,Read,A,ire,,A6,,,31,Study,User,-,,Anger,A6,,1616,,,-1,-1,,,,1
JanelyMartinez,5cnr99sxap,DRM1_MSU,1,35,2023-11-20T15:13:11+00:00,1.8367600440979,1,Stim_A.csv,Read.csv,Read,A,wrath,,A7,,,32,Study,User,-,,Anger,A7,,1664,,,-1,-1,,,,1
JanelyMartinez,5cnr99sxap,DRM1_MSU,1,36,2023-11-20T15:13:12+00:00,1.7542591094971,1,Stim_A.csv,Read.csv,Read,A,mean,,A8,,,33,Study,User,-,,Anger,A8,,1590,,,-1,-1,,,,1
JanelyMartinez,5cnr99sxap,DRM1_MSU,1,37,2023-11-20T15:13:14+00:00,1.738951921463,1,Stim_A.csv,Read.csv,Read,A,hatred,,A9,,,34,Study,User,-,,Anger,A9,,1570,,,-1,-1,,,,1
JanelyMartinez,5cnr99sxap,DRM1_MSU,1,38,2023-11-20T15:13:16+00:00,2.0486650466919,1,Stim_A.csv,Read.csv,Read,A,fight,,A10,,,35,Study,User,-,,Anger,A10,,1882,,,-1,-1,,,,1
JanelyMartinez,5cnr99sxap,DRM1_MSU,1,39,2023-11-20T15:13:18+00:00,1.7209780216217,1,Stim_A.csv,Read.csv,Read,A,hate,,A11,,,36,Study,User,-,,Anger,A11,,1553,,,-1,-1,,,,1
JanelyMartinez,5cnr99sxap,DRM1_MSU,1,40,2023-11-20T15:13:19+00:00,1.3281769752502,1,Stim_A.csv,Read.csv,Read,A,fear,,A12,,,37,Study,User,-,,Anger,A12,,1164,,,-1,-1,,,,1
JanelyMartinez,5cnr99sxap,DRM1_MSU,1,41,2023-11-20T15:13:23+00:00,4.0898609161377,1,Stim_A.csv,Read.csv,Read,A,,,,,,0,Instruct,User,3,"You will now be presented with a new study list. Click next when you are ready to begin.",,NEXT_LIST,,3927,,,-1,-1,,,,1
JanelyMartinez,5cnr99sxap,DRM1_MSU,1,42,2023-11-20T15:13:28+00:00,4.8443040847778,1,Stim_A.csv,Read.csv,Read,A,garbage,,T1,,,38,Study,User,-,,Trash,T1,,4581,,,-1,-1,,,,1
JanelyMartinez,5cnr99sxap,DRM1_MSU,1,43,2023-11-20T15:13:30+00:00,1.8115930557251,1,Stim_A.csv,Read.csv,Read,A,rubbish,,T2,,,39,Study,User,-,,Trash,T2,,1646,,,-1,-1,,,,1
JanelyMartinez,5cnr99sxap,DRM1_MSU,1,44,2023-11-20T15:13:32+00:00,1.8215808868408,1,Stim_A.csv,Read.csv,Read,A,debris,,T3,,,40,Study,User,-,,Trash,T3,,1653,,,-1,-1,,,,1
JanelyMartinez,5cnr99sxap,DRM1_MSU,1,45,2023-11-20T15:13:33+00:00,1.7159271240234,1,Stim_A.csv,Read.csv,Read,A,dump,,T4,,,41,Study,User,-,,Trash,T4,,1554,,,-1,-1,,,,1
JanelyMartinez,5cnr99sxap,DRM1_MSU,1,46,2023-11-20T15:13:35+00:00,1.687490940094,1,Stim_A.csv,Read.csv,Read,A,litter,,T5,,,42,Study,User,-,,Trash,T5,,1531,,,-1,-1,,,,1
JanelyMartinez,5cnr99sxap,DRM1_MSU,1,47,2023-11-20T15:13:37+00:00,1.7065980434418,1,Stim_A.csv,Read.csv,Read,A,landfill,,T6,,,43,Study,User,-,,Trash,T6,,1541,,,-1,-1,,,,1
JanelyMartinez,5cnr99sxap,DRM1_MSU,1,48,2023-11-20T15:13:38+00:00,1.3533899784088,1,Stim_A.csv,Read.csv,Read,A,junk,,T7,,,44,Study,User,-,,Trash,T7,,1198,,,-1,-1,,,,1
JanelyMartinez,5cnr99sxap,DRM1_MSU,1,49,2023-11-20T15:13:40+00:00,2.294224023819,1,Stim_A.csv,Read.csv,Read,A,waste,,T8,,,45,Study,User,-,,Trash,T8,,2131,,,-1,-1,,,,1
JanelyMartinez,5cnr99sxap,DRM1_MSU,1,50,2023-11-20T15:13:42+00:00,1.7444219589233,1,Stim_A.csv,Read.csv,Read,A,sewage,,T9,,,46,Study,User,-,,Trash,T9,,1575,,,-1,-1,,,,1
JanelyMartinez,5cnr99sxap,DRM1_MSU,1,51,2023-11-20T15:13:44+00:00,1.6978240013123,1,Stim_A.csv,Read.csv,Read,A,pile,,T10,,,47,Study,User,-,,Trash,T10,,1531,,,-1,-1,,,,1
JanelyMartinez,5cnr99sxap,DRM1_MSU,1,52,2023-11-20T15:13:52+00:00,8.2780539989471,1,Stim_A.csv,Read.csv,Read,A,scraps,,T11,,,48,Study,User,-,,Trash,T11,,7991,,,-1,-1,,,,1
JanelyMartinez,5cnr99sxap,DRM1_MSU,1,53,2023-11-20T15:13:55+00:00,3.1160550117493,1,Stim_A.csv,Read.csv,Read,A,refuse,,T12,,,49,Study,User,-,,Trash,T12,,2951,,,-1,-1,,,,1
JanelyMartinez,5cnr99sxap,DRM1_MSU,1,54,2023-11-20T15:14:00+00:00,4.7388589382172,1,Stim_A.csv,Read.csv,Read,A,,,,,,0,Instruct,User,3,"You will now be presented with a new study list. Click next when you are ready to begin.",,NEXT_LIST,,4470,,,-1,-1,,,,1
JanelyMartinez,5cnr99sxap,DRM1_MSU,1,55,2023-11-20T15:14:09+00:00,9.2773790359497,1,Stim_A.csv,Read.csv,Read,A,physician,,D1,,,50,Study,User,-,,Doctor,D1,,8989,,,-1,-1,,,,0.977
JanelyMartinez,5cnr99sxap,DRM1_MSU,1,56,2023-11-20T15:14:11+00:00,1.8439440727234,1,Stim_A.csv,Read.csv,Read,A,nurse,,D2,,,51,Study,User,-,,Doctor,D2,,1665,,,-1,-1,,,,1
JanelyMartinez,5cnr99sxap,DRM1_MSU,1,57,2023-11-20T15:14:13+00:00,1.7836699485779,1,Stim_A.csv,Read.csv,Read,A,stethoscope,,D3,,,52,Study,User,-,,Doctor,D3,,1615,,,-1,-1,,,,1
JanelyMartinez,5cnr99sxap,DRM1_MSU,1,58,2023-11-20T15:14:15+00:00,1.7815489768982,1,Stim_A.csv,Read.csv,Read,A,surgeon,,D4,,,53,Study,User,-,,Doctor,D4,,1615,,,-1,-1,,,,1
JanelyMartinez,5cnr99sxap,DRM1_MSU,1,59,2023-11-20T15:14:16+00:00,1.3347868919373,1,Stim_A.csv,Read.csv,Read,A,patient,,D5,,,54,Study,User,-,,Doctor,D5,,1174,,,-1,-1,,,,1
JanelyMartinez,5cnr99sxap,DRM1_MSU,1,60,2023-11-20T15:14:18+00:00,1.898754119873,1,Stim_A.csv,Read.csv,Read,A,clinic,,D6,,,55,Study,User,-,,Doctor,D6,,1769,,,-1,-1,,,,1
JanelyMartinez,5cnr99sxap,DRM1_MSU,1,61,2023-11-20T15:14:20+00:00,1.9577820301056,1,Stim_A.csv,Read.csv,Read,A,dentist,,D7,,,56,Study,User,-,,Doctor,D7,,1793,,,-1,-1,,,,1
JanelyMartinez,5cnr99sxap,DRM1_MSU,1,62,2023-11-20T15:14:28+00:00,7.6416909694672,1,Stim_A.csv,Read.csv,Read,A,medicine,,D8,,,57,Study,User,-,,Doctor,D8,,7377,,,-1,-1,,,,1
JanelyMartinez,5cnr99sxap,DRM1_MSU,1,63,2023-11-20T15:14:30+00:00,2.8473429679871,1,Stim_A.csv,Read.csv,Read,A,lawyer,,D9,,,58,Study,User,-,,Doctor,D9,,2089,,,-1,-1,,,,1
JanelyMartinez,5cnr99sxap,DRM1_MSU,1,64,2023-11-20T15:14:32+00:00,1.7878088951111,1,Stim_A.csv,Read.csv,Read,A,health,,D10,,,59,Study,User,-,,Doctor,D10,,1620,,,-1,-1,,,,1
JanelyMartinez,5cnr99sxap,DRM1_MSU,1,65,2023-11-20T15:14:34+00:00,1.8142871856689,1,Stim_A.csv,Read.csv,Read,A,sick,,D11,,,60,Study,User,-,,Doctor,D11,,1647,,,-1,-1,,,,1
JanelyMartinez,5cnr99sxap,DRM1_MSU,1,66,2023-11-20T15:14:36+00:00,1.8189849853516,1,Stim_A.csv,Read.csv,Read,A,cure,,D12,,,61,Study,User,-,,Doctor,D12,,1654,,,-1,-1,,,,1
JanelyMartinez,5cnr99sxap,DRM1_MSU,1,67,2023-11-20T15:14:41+00:00,5.5785050392151,1,Stim_A.csv,Read.csv,Read,A,,,,,,0,Instruct,User,3,"You will now be presented with a new study list. Click next when you are ready to begin.",,NEXT_LIST,,5312,,,-1,-1,,,,1
JanelyMartinez,5cnr99sxap,DRM1_MSU,1,68,2023-11-20T15:14:46+00:00,4.8425748348236,1,Stim_A.csv,Read.csv,Read,A,fast,,S1,,,62,Study,User,-,,Slow,S1,,4566,,,-1,-1,,,,1
JanelyMartinez,5cnr99sxap,DRM1_MSU,1,69,2023-11-20T15:14:49+00:00,2.8405959606171,1,Stim_A.csv,Read.csv,Read,A,snail,,S2,,,63,Study,User,-,,Slow,S2,,2668,,,-1,-1,,,,1
JanelyMartinez,5cnr99sxap,DRM1_MSU,1,70,2023-11-20T15:14:55+00:00,5.720055103302,1,Stim_A.csv,Read.csv,Read,A,turtle,,S3,,,64,Study,User,-,,Slow,S3,,5128,,,-1,-1,,,,1
JanelyMartinez,5cnr99sxap,DRM1_MSU,1,71,2023-11-20T15:14:57+00:00,1.9806931018829,1,Stim_A.csv,Read.csv,Read,A,sluggish,,S4,,,65,Study,User,-,,Slow,S4,,1817,,,-1,-1,,,,1
JanelyMartinez,5cnr99sxap,DRM1_MSU,1,72,2023-11-20T15:14:59+00:00,1.8850758075714,1,Stim_A.csv,Read.csv,Read,A,quick,,S5,,,66,Study,User,-,,Slow,S5,,1713,,,-1,-1,,,,1
JanelyMartinez,5cnr99sxap,DRM1_MSU,1,73,2023-11-20T15:15:08+00:00,9.4421491622925,1,Stim_A.csv,Read.csv,Read,A,molasses,,S6,,,67,Study,User,-,,Slow,S6,,9175,,,-1,-1,,,,1
JanelyMartinez,5cnr99sxap,DRM1_MSU,1,74,2023-11-20T15:15:10+00:00,2.3042709827423,1,Stim_A.csv,Read.csv,Read,A,lethargic,,S7,,,68,Study,User,-,,Slow,S7,,2140,,,-1,-1,,,,1
JanelyMartinez,5cnr99sxap,DRM1_MSU,1,75,2023-11-20T15:15:13+00:00,2.1652309894562,1,Stim_A.csv,Read.csv,Read,A,speed,,S8,,,69,Study,User,-,,Slow,S8,,1991,,,-1,-1,,,,1
JanelyMartinez,5cnr99sxap,DRM1_MSU,1,76,2023-11-20T15:15:14+00:00,1.7348320484161,1,Stim_A.csv,Read.csv,Read,A,delay,,S9,,,70,Study,User,-,,Slow,S9,,1565,,,-1,-1,,,,1
JanelyMartinez,5cnr99sxap,DRM1_MSU,1,77,2023-11-20T15:15:16+00:00,1.8530189990997,1,Stim_A.csv,Read.csv,Read,A,hesitant,,S10,,,71,Study,User,-,,Slow,S10,,1676,,,-1,-1,,,,1
JanelyMartinez,5cnr99sxap,DRM1_MSU,1,78,2023-11-20T15:15:18+00:00,2.258829832077,1,Stim_A.csv,Read.csv,Read,A,cautious,,S11,,,72,Study,User,-,,Slow,S11,,2079,,,-1,-1,,,,1
JanelyMartinez,5cnr99sxap,DRM1_MSU,1,79,2023-11-20T15:15:20+00:00,2.0107381343842,1,Stim_A.csv,Read.csv,Read,A,traffic,,S12,,,73,Study,User,-,,Slow,S12,,1837,,,-1,-1,,,,1
JanelyMartinez,5cnr99sxap,DRM1_MSU,1,80,2023-11-20T15:15:25+00:00,4.3332879543304,1,Stim_A.csv,Read.csv,Read,A,,,,,,0,Instruct,User,3,"You will now be presented with a new study list. Click next when you are ready to begin.",,NEXT_LIST,,4057,,,-1,-1,,,,1
JanelyMartinez,5cnr99sxap,DRM1_MSU,1,81,2023-11-20T15:15:27+00:00,1.9586498737335,1,Stim_A.csv,Read.csv,Read,A,mississippi,,RR1,,,74,Study,User,-,,River,RR1,,1789,,,-1,-1,,,,1
JanelyMartinez,5cnr99sxap,DRM1_MSU,1,82,2023-11-20T15:15:28+00:00,1.6589860916138,1,Stim_A.csv,Read.csv,Read,A,creek,,RR2,,,75,Study,User,-,,River,RR2,,1489,,,-1,-1,,,,1
JanelyMartinez,5cnr99sxap,DRM1_MSU,1,83,2023-11-20T15:15:30+00:00,1.7014520168304,1,Stim_A.csv,Read.csv,Read,A,stream,,RR3,,,76,Study,User,-,,River,RR3,,1531,,,-1,-1,,,,1
JanelyMartinez,5cnr99sxap,DRM1_MSU,1,84,2023-11-20T15:15:35+00:00,4.4567070007324,1,Stim_A.csv,Read.csv,Read,A,flow,,RR4,,,77,Study,User,-,,River,RR4,,4198,,,-1,-1,,,,1
JanelyMartinez,5cnr99sxap,DRM1_MSU,1,85,2023-11-20T15:15:36+00:00,1.7435359954834,1,Stim_A.csv,Read.csv,Read,A,bridge,,RR5,,,78,Study,User,-,,River,RR5,,1576,,,-1,-1,,,,1
JanelyMartinez,5cnr99sxap,DRM1_MSU,1,86,2023-11-20T15:15:41+00:00,4.5697109699249,1,Stim_A.csv,Read.csv,Read,A,brook,,RR6,,,79,Study,User,-,,River,RR6,,4299,,,-1,-1,,,,1
JanelyMartinez,5cnr99sxap,DRM1_MSU,1,87,2023-11-20T15:15:43+00:00,1.7816860675812,1,Stim_A.csv,Read.csv,Read,A,lake,,RR7,,,80,Study,User,-,,River,RR7,,1615,,,-1,-1,,,,1
JanelyMartinez,5cnr99sxap,DRM1_MSU,1,88,2023-11-20T15:15:45+00:00,2.0381090641022,1,Stim_A.csv,Read.csv,Read,A,barge,,RR8,,,81,Study,User,-,,River,RR8,,1868,,,-1,-1,,,,1
JanelyMartinez,5cnr99sxap,DRM1_MSU,1,89,2023-11-20T15:15:47+00:00,2.1004009246826,1,Stim_A.csv,Read.csv,Read,A,water,,RR9,,,82,Study,User,-,,River,RR9,,1930,,,-1,-1,,,,1
JanelyMartinez,5cnr99sxap,DRM1_MSU,1,90,2023-11-20T15:15:49+00:00,1.9193339347839,1,Stim_A.csv,Read.csv,Read,A,boat,,RR10,,,83,Study,User,-,,River,RR10,,1694,,,-1,-1,,,,1
JanelyMartinez,5cnr99sxap,DRM1_MSU,1,91,2023-11-20T15:15:50+00:00,1.7206599712372,1,Stim_A.csv,Read.csv,Read,A,tide,,RR11,,,84,Study,User,-,,River,RR11,,1553,,,-1,-1,,,,1
JanelyMartinez,5cnr99sxap,DRM1_MSU,1,92,2023-11-20T15:15:52+00:00,2.011244058609,1,Stim_A.csv,Read.csv,Read,A,swim,,RR12,,,85,Study,User,-,,River,RR12,,1846,,,-1,-1,,,,1
JanelyMartinez,5cnr99sxap,DRM1_MSU,1,93,2023-11-20T15:15:59+00:00,6.7872269153595,1,Stim_A.csv,Read.csv,Read,A,,,,,,0,Instruct,User,3,"You will now be presented with a new study list. Click next when you are ready to begin.",,NEXT_LIST,,6371,,,-1,-1,,,,1
JanelyMartinez,5cnr99sxap,DRM1_MSU,1,94,2023-11-20T15:16:03+00:00,3.9004700183868,1,Stim_A.csv,Read.csv,Read,A,rye,,B1,,,86,Study,User,-,,Bread,B1,,3734,,,-1,-1,,,,1
JanelyMartinez,5cnr99sxap,DRM1_MSU,1,95,2023-11-20T15:16:05+00:00,1.9162001609802,1,Stim_A.csv,Read.csv,Read,A,loaf,,B2,,,87,Study,User,-,,Bread,B2,,1753,,,-1,-1,,,,1
JanelyMartinez,5cnr99sxap,DRM1_MSU,1,96,2023-11-20T15:16:07+00:00,1.8386099338531,1,Stim_A.csv,Read.csv,Read,A,butter,,B3,,,88,Study,User,-,,Bread,B3,,1644,,,-1,-1,,,,1
JanelyMartinez,5cnr99sxap,DRM1_MSU,1,97,2023-11-20T15:16:09+00:00,2.2059009075165,1,Stim_A.csv,Read.csv,Read,A,toast,,B4,,,89,Study,User,-,,Bread,B4,,2031,,,-1,-1,,,,1
JanelyMartinez,5cnr99sxap,DRM1_MSU,1,98,2023-11-20T15:16:11+00:00,1.8952081203461,1,Stim_A.csv,Read.csv,Read,A,dough,,B5,,,90,Study,User,-,,Bread,B5,,1730,,,-1,-1,,,,1
JanelyMartinez,5cnr99sxap,DRM1_MSU,1,99,2023-11-20T15:16:13+00:00,1.6726388931274,1,Stim_A.csv,Read.csv,Read,A,crust,,B6,,,91,Study,User,-,,Bread,B6,,1499,,,-1,-1,,,,1
JanelyMartinez,5cnr99sxap,DRM1_MSU,1,100,2023-11-20T15:16:14+00:00,1.7299230098724,1,Stim_A.csv,Read.csv,Read,A,flour,,B7,,,92,Study,User,-,,Bread,B7,,1560,,,-1,-1,,,,1
JanelyMartinez,5cnr99sxap,DRM1_MSU,1,101,2023-11-20T15:16:16+00:00,1.6671240329742,1,Stim_A.csv,Read.csv,Read,A,sandwich,,B8,,,93,Study,User,-,,Bread,B8,,1503,,,-1,-1,,,,1
JanelyMartinez,5cnr99sxap,DRM1_MSU,1,102,2023-11-20T15:16:18+00:00,1.8009788990021,1,Stim_A.csv,Read.csv,Read,A,jam,,B9,,,94,Study,User,-,,Bread,B9,,1634,,,-1,-1,,,,1
JanelyMartinez,5cnr99sxap,DRM1_MSU,1,103,2023-11-20T15:16:21+00:00,2.9896330833435,1,Stim_A.csv,Read.csv,Read,A,jelly,,B10,,,95,Study,User,-,,Bread,B10,,2820,,,-1,-1,,,,1
JanelyMartinez,5cnr99sxap,DRM1_MSU,1,104,2023-11-20T15:16:23+00:00,2.2831189632416,1,Stim_A.csv,Read.csv,Read,A,slice,,B11,,,96,Study,User,-,,Bread,B11,,2116,,,-1,-1,,,,1
JanelyMartinez,5cnr99sxap,DRM1_MSU,1,105,2023-11-20T15:16:25+00:00,1.9306199550629,1,Stim_A.csv,Read.csv,Read,A,milk,,B12,,,97,Study,User,-,,Bread,B12,,1761,,,-1,-1,,,,1
JanelyMartinez,5cnr99sxap,DRM1_MSU,1,106,2023-11-20T15:16:30+00:00,4.6942601203918,1,Stim_A.csv,Read.csv,Read,A,,,,,,0,Instruct,User,3,"You will now be presented with a new study list. Click next when you are ready to begin.",,NEXT_LIST,,4414,,,-1,-1,,,,1
JanelyMartinez,5cnr99sxap,DRM1_MSU,1,107,2023-11-20T15:16:38+00:00,8.5375740528107,1,Stim_A.csv,Read.csv,Read,A,banner,,F1,,,98,Study,User,-,,Flag,F1,,6507,,,-1,-1,,,,1
JanelyMartinez,5cnr99sxap,DRM1_MSU,1,108,2023-11-20T15:16:41+00:00,2.9137558937073,1,Stim_A.csv,Read.csv,Read,A,checkered,,F2,,,99,Study,User,-,,Flag,F2,,2663,,,-1,-1,,,,1
JanelyMartinez,5cnr99sxap,DRM1_MSU,1,109,2023-11-20T15:16:43+00:00,1.769366979599,1,Stim_A.csv,Read.csv,Read,A,american,,F3,,,100,Study,User,-,,Flag,F3,,1599,,,-1,-1,,,,1
JanelyMartinez,5cnr99sxap,DRM1_MSU,1,110,2023-11-20T15:16:47+00:00,4.4449670314789,1,Stim_A.csv,Read.csv,Read,A,stripes,,F4,,,101,Study,User,-,,Flag,F4,,4177,,,-1,-1,,,,1
JanelyMartinez,5cnr99sxap,DRM1_MSU,1,111,2023-11-20T15:16:49+00:00,1.9940021038055,1,Stim_A.csv,Read.csv,Read,A,pole,,F5,,,102,Study,User,-,,Flag,F5,,1764,,,-1,-1,,,,1
JanelyMartinez,5cnr99sxap,DRM1_MSU,1,112,2023-11-20T15:16:51+00:00,1.7794070243835,1,Stim_A.csv,Read.csv,Read,A,anthem,,F6,,,103,Study,User,-,,Flag,F6,,1609,,,-1,-1,,,,1
JanelyMartinez,5cnr99sxap,DRM1_MSU,1,113,2023-11-20T15:16:53+00:00,1.8826308250427,1,Stim_A.csv,Read.csv,Read,A,emblem,,F7,,,104,Study,User,-,,Flag,F7,,1711,,,-1,-1,,,,1
JanelyMartinez,5cnr99sxap,DRM1_MSU,1,114,2023-11-20T15:16:57+00:00,3.778736114502,1,Stim_A.csv,Read.csv,Read,A,national,,F8,,,105,Study,User,-,,Flag,F8,,3598,,,-1,-1,,,,1
JanelyMartinez,5cnr99sxap,DRM1_MSU,1,115,2023-11-20T15:16:58+00:00,1.6397838592529,1,Stim_A.csv,Read.csv,Read,A,freedom,,F9,,,106,Study,User,-,,Flag,F9,,1471,,,-1,-1,,,,1
JanelyMartinez,5cnr99sxap,DRM1_MSU,1,116,2023-11-20T15:17:03+00:00,4.1027932167053,1,Stim_A.csv,Read.csv,Read,A,symbol,,F10,,,107,Study,User,-,,Flag,F10,,3937,,,-1,-1,,,,1
JanelyMartinez,5cnr99sxap,DRM1_MSU,1,117,2023-11-20T15:17:09+00:00,6.2069869041443,1,Stim_A.csv,Read.csv,Read,A,wave,,F11,,,108,Study,User,-,,Flag,F11,,4773,,,-1,-1,,,,1
JanelyMartinez,5cnr99sxap,DRM1_MSU,1,118,2023-11-20T15:17:11+00:00,2.1763110160828,1,Stim_A.csv,Read.csv,Read,A,stars,,F12,,,109,Study,User,-,,Flag,F12,,2011,,,-1,-1,,,,1
JanelyMartinez,5cnr99sxap,DRM1_MSU,1,119,2023-11-20T15:17:15+00:00,4.015261888504,1,Stim_A.csv,Read.csv,Read,A,,,,,,0,Instruct,User,3,"You will now be presented with a new study list. Click next when you are ready to begin.",,NEXT_LIST,,3846,,,-1,-1,,,,1
JanelyMartinez,5cnr99sxap,DRM1_MSU,1,120,2023-11-20T15:17:21+00:00,6.5156450271606,1,Stim_A.csv,Read.csv,Read,A,blouse,,SS1,,,110,Study,User,-,,Shirt,SS1,,6242,,,-1,-1,,,,1
JanelyMartinez,5cnr99sxap,DRM1_MSU,1,121,2023-11-20T15:17:25+00:00,3.4999570846558,1,Stim_A.csv,Read.csv,Read,A,sleeves,,SS2,,,111,Study,User,-,,Shirt,SS2,,3322,,,-1,-1,,,,1
JanelyMartinez,5cnr99sxap,DRM1_MSU,1,122,2023-11-20T15:17:35+00:00,10.123045921326,1,Stim_A.csv,Read.csv,Read,A,collar,,SS3,,,112,Study,User,-,,Shirt,SS3,,9854,,,-1,-1,,,,1
JanelyMartinez,5cnr99sxap,DRM1_MSU,1,123,2023-11-20T15:17:37+00:00,1.868350982666,1,Stim_A.csv,Read.csv,Read,A,shorts,,SS4,,,113,Study,User,-,,Shirt,SS4,,1701,,,-1,-1,,,,1
JanelyMartinez,5cnr99sxap,DRM1_MSU,1,124,2023-11-20T15:17:40+00:00,3.3446071147919,1,Stim_A.csv,Read.csv,Read,A,button,,SS5,,,114,Study,User,-,,Shirt,SS5,,3179,,,-1,-1,,,,1
JanelyMartinez,5cnr99sxap,DRM1_MSU,1,125,2023-11-20T15:17:42+00:00,1.9648518562317,1,Stim_A.csv,Read.csv,Read,A,pants,,SS6,,,115,Study,User,-,,Shirt,SS6,,1795,,,-1,-1,,,,1
JanelyMartinez,5cnr99sxap,DRM1_MSU,1,126,2023-11-20T15:17:44+00:00,1.9011290073395,1,Stim_A.csv,Read.csv,Read,A,polo,,SS7,,,116,Study,User,-,,Shirt,SS7,,1734,,,-1,-1,,,,1
JanelyMartinez,5cnr99sxap,DRM1_MSU,1,127,2023-11-20T15:17:46+00:00,1.8108639717102,1,Stim_A.csv,Read.csv,Read,A,jersey,,SS8,,,117,Study,User,-,,Shirt,SS8,,1636,,,-1,-1,,,,1
JanelyMartinez,5cnr99sxap,DRM1_MSU,1,128,2023-11-20T15:17:48+00:00,1.8278670310974,1,Stim_A.csv,Read.csv,Read,A,vest,,SS9,,,118,Study,User,-,,Shirt,SS9,,1654,,,-1,-1,,,,1
JanelyMartinez,5cnr99sxap,DRM1_MSU,1,129,2023-11-20T15:17:49+00:00,1.3232409954071,1,Stim_A.csv,Read.csv,Read,A,cuffs,,SS10,,,119,Study,User,-,,Shirt,SS10,,1160,,,-1,-1,,,,1
JanelyMartinez,5cnr99sxap,DRM1_MSU,1,130,2023-11-20T15:17:51+00:00,1.5373702049255,1,Stim_A.csv,Read.csv,Read,A,tie,,SS11,,,120,Study,User,-,,Shirt,SS11,,1370,,,-1,-1,,,,1
JanelyMartinez,5cnr99sxap,DRM1_MSU,1,131,2023-11-20T15:17:52+00:00,1.8166959285736,1,Stim_A.csv,Read.csv,Read,A,pocket,,SS12,,,121,Study,User,-,,Shirt,SS12,,1655,,,-1,-1,,,,1
JanelyMartinez,5cnr99sxap,DRM1_MSU,1,132,2023-11-20T15:17:56+00:00,3.4358139038086,1,Stim_A.csv,Read.csv,Read,A,,,,,,0,Instruct,User,-,"You have completed this section. Please click next.",,Instruct166,,3259,,,-1,-1,,,,1
JanelyMartinez,5cnr99sxap,DRM1_MSU,1,133,2023-11-20T15:18:56+00:00,60.315425157547,1,Stim_A.csv,Read.csv,Read,A,,,,,,0,FreeRecall,60,60,"Please type as many words as you can that begin with the letter ""C"". The computer will automatically advance to the next screen in 60 seconds.",,FILLER,,60003,"Computer country county caprison car cat class cow couch cool clear ",0,5716,56541,0,0,,1
JanelyMartinez,5cnr99sxap,DRM1_MSU,1,134,2023-11-20T15:19:01+00:00,5.1938259601593,1,Stim_A.csv,Read.csv,Read,A,,,,,,0,Instruct,User,-,"You have completed this section. Please click next.",,Instruct166,,4928,,,-1,-1,,,,1
JanelyMartinez,5cnr99sxap,DRM1_MSU,1,135,2023-11-20T15:19:25+00:00,23.95617389679,1,Stim_A.csv,Read.csv,Read,A,,,,,,0,Instruct,User,10,"Your memory will now be tested. You will be presented with a series of words. If the word on the screen was previously studied, please select YES. If the word was not studied, select NO. PLEASE DO NOT SKIP ITEMS! Click next when you are ready to begin.",,Instruct_stuff,,23678,,,-1,-1,,,,1
JanelyMartinez,5cnr99sxap,DRM1_MSU,1,136,2023-11-20T15:19:29+00:00,3.3352999687195,1,Stim_A.csv,Read.csv,Read,A,,steep,RECOG,"List Item Control",,133,Likert,User,1,"Was this item previously studied?","List Item Standard F",Recog,1::2,3150,NO,0,-1,-1,0,0,,1
JanelyMartinez,5cnr99sxap,DRM1_MSU,1,137,2023-11-20T15:19:31+00:00,1.8881759643555,1,Stim_A.csv,Read.csv,Read,A,,jersey,RECOG,"List Item",,170,Likert,User,1,"Was this item previously studied?","List Item Control",Recog,1::2,1717,YES,22.222222222222,-1,-1,0,0,,1
JanelyMartinez,5cnr99sxap,DRM1_MSU,1,138,2023-11-20T15:20:43+00:00,72.27449798584,1,Stim_A.csv,Read.csv,Read,A,,soft,RECOG,"Critical Lure Control",,196,Likert,User,1,"Was this item previously studied?","Critical Lure Control",Recog,1::2,71992,NO,33.333333333333,-1,-1,0,0,,0.943
JanelyMartinez,5cnr99sxap,DRM1_MSU,1,139,2023-11-20T15:20:45+00:00,2.1425120830536,1,Stim_A.csv,Read.csv,Read,A,,river,RECOG,"Critical Lure",,136,Likert,User,1,"Was this item previously studied?","List Item Sans F",Recog,1::2,1964,YES,25,-1,-1,0,0,,1
JanelyMartinez,5cnr99sxap,DRM1_MSU,1,140,2023-11-20T15:21:38+00:00,52.483865976334,1,Stim_A.csv,Read.csv,Read,A,,boot,RECOG,"List Item Control",,129,Likert,User,1,"Was this item previously studied?","List Item Sans F",Recog,1::2,52207,NO,33.333333333333,-1,-1,0,0,,0.963
JanelyMartinez,5cnr99sxap,DRM1_MSU,1,141,2023-11-20T15:21:41+00:00,3.5352840423584,1,Stim_A.csv,Read.csv,Read,A,,ink,RECOG,"List Item Control",,147,Likert,User,1,"Was this item previously studied?","List Item Sans F",Recog,1::2,3327,NO,40,-1,-1,0,0,,1
JanelyMartinez,5cnr99sxap,DRM1_MSU,1,142,2023-11-20T15:21:43+00:00,1.7332561016083,1,Stim_A.csv,Read.csv,Read,A,,view,RECOG,"List Item",,135,Likert,User,1,"Was this item previously studied?","List Item Sans F",Recog,1::2,1484,YES,28.571428571429,-1,-1,0,0,,1
JanelyMartinez,5cnr99sxap,DRM1_MSU,1,143,2023-11-20T15:21:44+00:00,1.6467800140381,1,Stim_A.csv,Read.csv,Read,A,,boat,RECOG,"List Item",,182,Likert,User,1,"Was this item previously studied?","List Item Control",Recog,1::2,1475,YES,0,-1,-1,0,0,,1
JanelyMartinez,5cnr99sxap,DRM1_MSU,1,144,2023-11-20T15:22:40+00:00,55.49100279808,1,Stim_A.csv,Read.csv,Read,A,,hesitant,RECOG,"List Item",,164,Likert,User,1,"Was this item previously studied?","List Item Control",Recog,1::2,55210,NO,20,-1,-1,0,0,,0.96
JanelyMartinez,5cnr99sxap,DRM1_MSU,1,145,2023-11-20T15:23:04+00:00,23.78479719162,1,Stim_A.csv,Read.csv,Read,A,,sweet,RECOG,"Critical Lure Control",,154,Likert,User,1,"Was this item previously studied?","Critical Lure Sans F",Recog,1::2,23494,NO,0,-1,-1,0,0,,1
JanelyMartinez,5cnr99sxap,DRM1_MSU,1,146,2023-11-20T15:23:07+00:00,2.8262059688568,1,Stim_A.csv,Read.csv,Read,A,,concert,RECOG,"List Item Control",,140,Likert,User,1,"Was this item previously studied?","List Item Sans F",Recog,1::2,2636,NO,22.222222222222,-1,-1,0,0,,1
JanelyMartinez,5cnr99sxap,DRM1_MSU,1,147,2023-11-20T15:23:09+00:00,2.6262500286102,1,Stim_A.csv,Read.csv,Read,A,,foot,RECOG,"Critical Lure Control",,157,Likert,User,1,"Was this item previously studied?","Critical Lure Standard F",Recog,1::2,2454,YES,0,-1,-1,0,0,,1
JanelyMartinez,5cnr99sxap,DRM1_MSU,1,148,2023-11-20T15:23:11+00:00,2.1693139076233,1,Stim_A.csv,Read.csv,Read,A,,rose,RECOG,"List Item Control",,149,Likert,User,1,"Was this item previously studied?","List Item Standard F",Recog,1::2,1992,NO,33.333333333333,-1,-1,0,0,,1
JanelyMartinez,5cnr99sxap,DRM1_MSU,1,149,2023-11-20T15:23:14+00:00,2.7829909324646,1,Stim_A.csv,Read.csv,Read,A,,bread,RECOG,"Critical Lure",,174,Likert,User,1,"Was this item previously studied?","List Item Control",Recog,1::2,2614,YES,25,-1,-1,0,0,,1
JanelyMartinez,5cnr99sxap,DRM1_MSU,1,150,2023-11-20T15:23:16+00:00,1.9231321811676,1,Stim_A.csv,Read.csv,Read,A,,bitter,RECOG,"List Item Control",,179,Likert,User,1,"Was this item previously studied?","List Item Control",Recog,1::2,1746,YES,22.222222222222,-1,-1,0,0,,1
JanelyMartinez,5cnr99sxap,DRM1_MSU,1,151,2023-11-20T15:23:19+00:00,2.5085468292236,1,Stim_A.csv,Read.csv,Read,A,,couch,RECOG,"List Item Control",,188,Likert,User,1,"Was this item previously studied?","List Item Control",Recog,1::2,2327,YES,0,-1,-1,0,0,,1
JanelyMartinez,5cnr99sxap,DRM1_MSU,1,152,2023-11-20T15:24:29+00:00,70.277956962585,1,Stim_A.csv,Read.csv,Read,A,,jelly,RECOG,"List Item",,155,Likert,User,1,"Was this item previously studied?","Critical Lure Standard F",Recog,1::2,70004,YES,25,-1,-1,0,0,,0.955
JanelyMartinez,5cnr99sxap,DRM1_MSU,1,153,2023-11-20T15:24:31+00:00,2.033949136734,1,Stim_A.csv,Read.csv,Read,A,,nurse,RECOG,"List Item",,148,Likert,User,1,"Was this item previously studied?","List Item Sans F",Recog,1::2,1861,YES,25,-1,-1,0,0,,1
JanelyMartinez,5cnr99sxap,DRM1_MSU,1,154,2023-11-20T15:24:34+00:00,3.5194680690765,1,Stim_A.csv,Read.csv,Read,A,,eraser,RECOG,"List Item Control",,192,Likert,User,1,"Was this item previously studied?","Critical Lure Control",Recog,1::2,3333,NO,0,-1,-1,0,0,,1
JanelyMartinez,5cnr99sxap,DRM1_MSU,1,155,2023-11-20T15:24:37+00:00,2.2020218372345,1,Stim_A.csv,Read.csv,Read,A,,cute,RECOG,"List Item Control",,171,Likert,User,1,"Was this item previously studied?","List Item Control",Recog,1::2,2026,NO,0,-1,-1,0,0,,1
JanelyMartinez,5cnr99sxap,DRM1_MSU,1,156,2023-11-20T15:26:10+00:00,93.104557037354,1,Stim_A.csv,Read.csv,Read,A,,loud,RECOG,"List Item Control",,159,Likert,User,1,"Was this item previously studied?","Critical Lure Standard F",Recog,1::2,92825,NO,33.333333333333,-1,-1,0,0,,0.984
JanelyMartinez,5cnr99sxap,DRM1_MSU,1,157,2023-11-20T15:27:10+00:00,60.791966915131,1,Stim_A.csv,Read.csv,Read,A,,smell,RECOG,"Critical Lure Control",,156,Likert,User,1,"Was this item previously studied?","Critical Lure Sans F",Recog,1::2,60485,NO,0,-1,-1,0,0,,0.969
JanelyMartinez,5cnr99sxap,DRM1_MSU,1,158,2023-11-20T15:27:13+00:00,2.833160161972,1,Stim_A.csv,Read.csv,Read,A,,sound,RECOG,"List Item Control",,176,Likert,User,1,"Was this item previously studied?","List Item Control",Recog,1::2,2664,YES,25,-1,-1,0,0,,1
JanelyMartinez,5cnr99sxap,DRM1_MSU,1,159,2023-11-20T15:27:15+00:00,2.0016050338745,1,Stim_A.csv,Read.csv,Read,A,,medicine,RECOG,"List Item",,189,Likert,User,1,"Was this item previously studied?","List Item Control",Recog,1::2,1824,YES,18.181818181818,-1,-1,0,0,,1
JanelyMartinez,5cnr99sxap,DRM1_MSU,1,160,2023-11-20T15:27:18+00:00,2.7765719890594,1,Stim_A.csv,Read.csv,Read,A,,pile,RECOG,"List Item",,142,Likert,User,1,"Was this item previously studied?","List Item Sans F",Recog,1::2,2580,NO,0,-1,-1,0,0,,1
JanelyMartinez,5cnr99sxap,DRM1_MSU,1,161,2023-11-20T15:27:20+00:00,1.8763689994812,1,Stim_A.csv,Read.csv,Read,A,,sofa,RECOG,"List Item Control",,139,Likert,User,1,"Was this item previously studied?","List Item Standard F",Recog,1::2,1711,NO,33.333333333333,-1,-1,0,0,,1
JanelyMartinez,5cnr99sxap,DRM1_MSU,1,162,2023-11-20T15:27:22+00:00,1.8544960021973,1,Stim_A.csv,Read.csv,Read,A,,waste,RECOG,"List Item",,181,Likert,User,1,"Was this item previously studied?","List Item Control",Recog,1::2,1689,YES,25,-1,-1,0,0,,1
JanelyMartinez,5cnr99sxap,DRM1_MSU,1,163,2023-11-20T15:27:23+00:00,1.6115729808807,1,Stim_A.csv,Read.csv,Read,A,,blue,RECOG,"List Item Control",,183,Likert,User,1,"Was this item previously studied?","List Item Control",Recog,1::2,1450,NO,0,-1,-1,0,0,,1
JanelyMartinez,5cnr99sxap,DRM1_MSU,1,164,2023-11-20T15:27:26+00:00,2.0885968208313,1,Stim_A.csv,Read.csv,Read,A,,daughter,RECOG,"List Item Control",,169,Likert,User,1,"Was this item previously studied?","List Item Control",Recog,1::2,1917,NO,0,-1,-1,0,0,,1
JanelyMartinez,5cnr99sxap,DRM1_MSU,1,165,2023-11-20T15:27:28+00:00,2.476841211319,1,Stim_A.csv,Read.csv,Read,A,,road,RECOG,"List Item",,150,Likert,User,1,"Was this item previously studied?","List Item Standard F",Recog,1::2,2310,YES,0,-1,-1,0,0,,1
JanelyMartinez,5cnr99sxap,DRM1_MSU,1,166,2023-11-20T15:27:30+00:00,1.8966298103333,1,Stim_A.csv,Read.csv,Read,A,,symbol,RECOG,"List Item",,138,Likert,User,1,"Was this item previously studied?","List Item Standard F",Recog,1::2,1738,YES,22.222222222222,-1,-1,0,0,,1
JanelyMartinez,5cnr99sxap,DRM1_MSU,1,167,2023-11-20T15:27:33+00:00,2.7811090946198,1,Stim_A.csv,Read.csv,Read,A,,speed,RECOG,"List Item",,141,Likert,User,1,"Was this item previously studied?","List Item Sans F",Recog,1::2,2618,YES,25,-1,-1,0,0,,1
JanelyMartinez,5cnr99sxap,DRM1_MSU,1,168,2023-11-20T15:28:06+00:00,33.329267024994,1,Stim_A.csv,Read.csv,Read,A,,national,RECOG,"List Item",,162,Likert,User,1,"Was this item previously studied?","List Item Control",Recog,1::2,33041,NO,40,-1,-1,0,0,,0.985
JanelyMartinez,5cnr99sxap,DRM1_MSU,1,169,2023-11-20T15:29:07+00:00,60.836771965027,1,Stim_A.csv,Read.csv,Read,A,,rubber,RECOG,"Critical Lure Control",,153,Likert,User,1,"Was this item previously studied?","Critical Lure Standard F",Recog,1::2,60119,NO,0,-1,-1,0,0,,0.97
JanelyMartinez,5cnr99sxap,DRM1_MSU,1,170,2023-11-20T15:29:09+00:00,2.0293478965759,1,Stim_A.csv,Read.csv,Read,A,,melody,RECOG,"List Item Control",,158,Likert,User,1,"Was this item previously studied?","Critical Lure Sans F",Recog,1::2,1808,NO,25,-1,-1,0,0,,1
JanelyMartinez,5cnr99sxap,DRM1_MSU,1,171,2023-11-20T15:29:11+00:00,1.9557862281799,1,Stim_A.csv,Read.csv,Read,A,,swivel,RECOG,"List Item Control",,168,Likert,User,1,"Was this item previously studied?","List Item Control",Recog,1::2,1787,NO,0,-1,-1,0,0,,1
JanelyMartinez,5cnr99sxap,DRM1_MSU,1,172,2023-11-20T15:29:25+00:00,13.912705898285,1,Stim_A.csv,Read.csv,Read,A,,hill,RECOG,"List Item Control",,173,Likert,User,1,"Was this item previously studied?","List Item Control",Recog,1::2,13633,NO,0,-1,-1,0,0,,0.963
JanelyMartinez,5cnr99sxap,DRM1_MSU,1,173,2023-11-20T15:30:23+00:00,58.286995887756,1,Stim_A.csv,Read.csv,Read,A,,scent,RECOG,"List Item Control",,132,Likert,User,1,"Was this item previously studied?","List Item Standard F",Recog,1::2,57983,NO,28.571428571429,-1,-1,0,0,,0.957
JanelyMartinez,5cnr99sxap,DRM1_MSU,1,174,2023-11-20T15:30:51+00:00,28.483443021774,1,Stim_A.csv,Read.csv,Read,A,,cake,RECOG,"List Item Control",,134,Likert,User,1,"Was this item previously studied?","List Item Sans F",Recog,1::2,28203,NO,0,-1,-1,0,0,,0.96
JanelyMartinez,5cnr99sxap,DRM1_MSU,1,175,2023-11-20T15:31:20+00:00,28.707637071609,1,Stim_A.csv,Read.csv,Read,A,,fur,RECOG,"List Item Control",,200,Likert,User,1,"Was this item previously studied?","Critical Lure Control",Recog,1::2,28429,NO,0,-1,-1,0,0,,0.978
JanelyMartinez,5cnr99sxap,DRM1_MSU,1,176,2023-11-20T15:31:22+00:00,2.0520091056824,1,Stim_A.csv,Read.csv,Read,A,,ball,RECOG,"List Item Control",,144,Likert,User,1,"Was this item previously studied?","List Item Standard F",Recog,1::2,1872,NO,0,-1,-1,0,0,,1
JanelyMartinez,5cnr99sxap,DRM1_MSU,1,177,2023-11-20T15:31:25+00:00,2.3186118602753,1,Stim_A.csv,Read.csv,Read,A,,gray,RECOG,"List Item Control",,172,Likert,User,1,"Was this item previously studied?","List Item Control",Recog,1::2,2148,NO,0,-1,-1,0,0,,1
JanelyMartinez,5cnr99sxap,DRM1_MSU,1,178,2023-11-20T15:31:27+00:00,2.3025441169739,1,Stim_A.csv,Read.csv,Read,A,,anger,RECOG,"Critical Lure",,177,Likert,User,1,"Was this item previously studied?","List Item Control",Recog,1::2,2130,NO,28.571428571429,-1,-1,0,0,,1
JanelyMartinez,5cnr99sxap,DRM1_MSU,1,179,2023-11-20T15:31:30+00:00,2.6685588359833,1,Stim_A.csv,Read.csv,Read,A,,mad,RECOG,"List Item",,122,Likert,User,1,"Was this item previously studied?","List Item Sans F",Recog,1::2,2504,YES,0,-1,-1,0,0,,1
JanelyMartinez,5cnr99sxap,DRM1_MSU,1,180,2023-11-20T15:31:32+00:00,2.1765441894531,1,Stim_A.csv,Read.csv,Read,A,,rough,RECOG,"Critical Lure",,187,Likert,User,1,"Was this item previously studied?","List Item Control",Recog,1::2,1905,YES,0,-1,-1,0,0,,1
JanelyMartinez,5cnr99sxap,DRM1_MSU,1,181,2023-11-20T15:31:34+00:00,2.2345378398895,1,Stim_A.csv,Read.csv,Read,A,,riders,RECOG,"List Item",,175,Likert,User,1,"Was this item previously studied?","List Item Control",Recog,1::2,2061,YES,44.444444444444,-1,-1,0,0,,1
JanelyMartinez,5cnr99sxap,DRM1_MSU,1,182,2023-11-20T15:31:37+00:00,2.6782350540161,1,Stim_A.csv,Read.csv,Read,A,,loaf,RECOG,"List Item",,124,Likert,User,1,"Was this item previously studied?","List Item Sans F",Recog,1::2,2512,YES,0,-1,-1,0,0,,1
JanelyMartinez,5cnr99sxap,DRM1_MSU,1,183,2023-11-20T15:32:49+00:00,72.354440927505,1,Stim_A.csv,Read.csv,Read,A,,trash,RECOG,"Critical Lure",,145,Likert,User,1,"Was this item previously studied?","List Item Standard F",Recog,1::2,72069,NO,0,-1,-1,0,0,,0.976
JanelyMartinez,5cnr99sxap,DRM1_MSU,1,184,2023-11-20T15:32:53+00:00,3.8227469921112,1,Stim_A.csv,Read.csv,Read,A,,sill,RECOG,"List Item",,131,Likert,User,1,"Was this item previously studied?","List Item Standard F",Recog,1::2,3653,YES,28.571428571429,-1,-1,0,0,,1
JanelyMartinez,5cnr99sxap,DRM1_MSU,1,185,2023-11-20T15:33:18+00:00,24.997599124908,1,Stim_A.csv,Read.csv,Read,A,,barge,RECOG,"List Item",,201,Likert,User,1,"Was this item previously studied?","Critical Lure Control",Recog,1::2,24721,NO,0,-1,-1,0,0,,0.964
JanelyMartinez,5cnr99sxap,DRM1_MSU,1,186,2023-11-20T15:33:38+00:00,20.250071048737,1,Stim_A.csv,Read.csv,Read,A,,shade,RECOG,"List Item",,165,Likert,User,1,"Was this item previously studied?","List Item Control",Recog,1::2,18091,NO,0,-1,-1,0,0,,0.913
JanelyMartinez,5cnr99sxap,DRM1_MSU,1,187,2023-11-20T15:33:56+00:00,18.031085968018,1,Stim_A.csv,Read.csv,Read,A,,music,RECOG,"Critical Lure Control",,178,Likert,User,1,"Was this item previously studied?","List Item Control",Recog,1::2,17563,NO,0,-1,-1,0,0,,0.964
JanelyMartinez,5cnr99sxap,DRM1_MSU,1,188,2023-11-20T15:34:06+00:00,9.8606688976288,1,Stim_A.csv,Read.csv,Read,A,,shirt,RECOG,"Critical Lure",,199,Likert,User,1,"Was this item previously studied?","Critical Lure Control",Recog,1::2,9584,NO,0,-1,-1,0,0,,0.957
JanelyMartinez,5cnr99sxap,DRM1_MSU,1,189,2023-11-20T15:34:33+00:00,26.791408061981,1,Stim_A.csv,Read.csv,Read,A,,fragrance,RECOG,"List Item Control",,185,Likert,User,1,"Was this item previously studied?","List Item Control",Recog,1::2,26489,NO,18.181818181818,-1,-1,0,0,,0.973
JanelyMartinez,5cnr99sxap,DRM1_MSU,1,190,2023-11-20T15:34:59+00:00,26.040675878525,1,Stim_A.csv,Read.csv,Read,A,,inch,RECOG,"List Item Control",,186,Likert,User,1,"Was this item previously studied?","List Item Control",Recog,1::2,25738,NO,33.333333333333,-1,-1,0,0,,0.986
JanelyMartinez,5cnr99sxap,DRM1_MSU,1,191,2023-11-20T15:35:36+00:00,37.288595199585,1,Stim_A.csv,Read.csv,Read,A,,nice,RECOG,"List Item Control",,152,Likert,User,1,"Was this item previously studied?","Critical Lure Sans F",Recog,1::2,37007,,,-1,-1,,,,0.99
JanelyMartinez,5cnr99sxap,DRM1_MSU,1,192,2023-11-20T15:35:39+00:00,2.6148629188538,1,Stim_A.csv,Read.csv,Read,A,,girl,RECOG,"Critical Lure Control",,194,Likert,User,1,"Was this item previously studied?","Critical Lure Control",Recog,1::2,2446,NO,0,-1,-1,0,0,,1
JanelyMartinez,5cnr99sxap,DRM1_MSU,1,193,2023-11-20T15:35:40+00:00,1.7790548801422,1,Stim_A.csv,Read.csv,Read,A,,health,RECOG,"List Item",,197,Likert,User,1,"Was this item previously studied?","Critical Lure Control",Recog,1::2,1593,YES,22.222222222222,-1,-1,0,0,,1
JanelyMartinez,5cnr99sxap,DRM1_MSU,1,194,2023-11-20T15:36:22+00:00,41.984804153442,1,Stim_A.csv,Read.csv,Read,A,,mountain,RECOG,"Critical Lure Control",,161,Likert,User,1,"Was this item previously studied?","Critical Lure Standard F",Recog,1::2,41692,NO,20,-1,-1,0,0,,0.917
JanelyMartinez,5cnr99sxap,DRM1_MSU,1,195,2023-11-20T15:36:33+00:00,10.878161907196,1,Stim_A.csv,Read.csv,Read,A,,doctor,RECOG,"Critical Lure",,195,Likert,User,1,"Was this item previously studied?","Critical Lure Control",Recog,1::2,10594,YES,0,-1,-1,0,0,,1
JanelyMartinez,5cnr99sxap,DRM1_MSU,1,196,2023-11-20T15:36:53+00:00,19.338299036026,1,Stim_A.csv,Read.csv,Read,A,,smooth,RECOG,"List Item",,146,Likert,User,1,"Was this item previously studied?","List Item Sans F",Recog,1::2,19047,NO,25,-1,-1,0,0,,0.964
JanelyMartinez,5cnr99sxap,DRM1_MSU,1,197,2023-11-20T15:37:17+00:00,24.710294961929,1,Stim_A.csv,Read.csv,Read,A,,mean,RECOG,"List Item",,151,Likert,User,1,"Was this item previously studied?","List Item Standard F",Recog,1::2,24412,NO,33.333333333333,-1,-1,0,0,,0.988
JanelyMartinez,5cnr99sxap,DRM1_MSU,1,198,2023-11-20T15:37:23+00:00,5.4331080913544,1,Stim_A.csv,Read.csv,Read,A,,checkered,RECOG,"List Item",,137,Likert,User,1,"Was this item previously studied?","List Item Standard F",Recog,1::2,5147,NO,0,-1,-1,0,0,,1
JanelyMartinez,5cnr99sxap,DRM1_MSU,1,199,2023-11-20T15:37:25+00:00,2.4108059406281,1,Stim_A.csv,Read.csv,Read,A,,rubbish,RECOG,"List Item",,125,Likert,User,1,"Was this item previously studied?","List Item Standard F",Recog,1::2,2219,YES,20,-1,-1,0,0,,1
JanelyMartinez,5cnr99sxap,DRM1_MSU,1,200,2023-11-20T15:38:03+00:00,37.810925006866,1,Stim_A.csv,Read.csv,Read,A,,bike,RECOG,"List Item Control",,191,Likert,User,1,"Was this item previously studied?","List Item Control",Recog,1::2,37522,NO,0,-1,-1,0,0,,0.987
JanelyMartinez,5cnr99sxap,DRM1_MSU,1,201,2023-11-20T15:38:06+00:00,2.7779541015625,1,Stim_A.csv,Read.csv,Read,A,,snail,RECOG,"List Item",,198,Likert,User,1,"Was this item previously studied?","Critical Lure Control",Recog,1::2,2590,YES,25,-1,-1,0,0,,1
JanelyMartinez,5cnr99sxap,DRM1_MSU,1,202,2023-11-20T15:38:23+00:00,17.214384794235,1,Stim_A.csv,Read.csv,Read,A,,kick,RECOG,"List Item Control",,128,Likert,User,1,"Was this item previously studied?","List Item Sans F",Recog,1::2,16911,NO,0,-1,-1,0,0,,1
JanelyMartinez,5cnr99sxap,DRM1_MSU,1,203,2023-11-20T15:38:25+00:00,1.893345117569,1,Stim_A.csv,Read.csv,Read,A,,creek,RECOG,"List Item",,123,Likert,User,1,"Was this item previously studied?","List Item Sans F",Recog,1::2,1721,YES,25,-1,-1,0,0,,1
JanelyMartinez,5cnr99sxap,DRM1_MSU,1,204,2023-11-20T15:38:27+00:00,2.1499609947205,1,Stim_A.csv,Read.csv,Read,A,,cotton,RECOG,"List Item Control",,163,Likert,User,1,"Was this item previously studied?","List Item Control",Recog,1::2,1981,NO,25,-1,-1,0,0,,1
JanelyMartinez,5cnr99sxap,DRM1_MSU,1,205,2023-11-20T15:38:29+00:00,1.8828780651093,1,Stim_A.csv,Read.csv,Read,A,,latex,RECOG,"List Item Control",,127,Likert,User,1,"Was this item previously studied?","List Item Standard F",Recog,1::2,1716,NO,0,-1,-1,0,0,,1
JanelyMartinez,5cnr99sxap,DRM1_MSU,1,206,2023-11-20T15:38:32+00:00,3.2868449687958,1,Stim_A.csv,Read.csv,Read,A,,dolls,RECOG,"List Item Control",,184,Likert,User,1,"Was this item previously studied?","List Item Control",Recog,1::2,3121,NO,28.571428571429,-1,-1,0,0,,1
JanelyMartinez,5cnr99sxap,DRM1_MSU,1,207,2023-11-20T15:39:01+00:00,28.334562063217,1,Stim_A.csv,Read.csv,Read,A,,cuffs,RECOG,"List Item",,167,Likert,User,1,"Was this item previously studied?","List Item Control",Recog,1::2,28060,NO,0,-1,-1,0,0,,0.978
JanelyMartinez,5cnr99sxap,DRM1_MSU,1,208,2023-11-20T15:39:14+00:00,13.436604976654,1,Stim_A.csv,Read.csv,Read,A,,chair,RECOG,"Critical Lure Control",,190,Likert,User,1,"Was this item previously studied?","List Item Control",Recog,1::2,13139,NO,0,-1,-1,0,0,,0.913
JanelyMartinez,5cnr99sxap,DRM1_MSU,1,209,2023-11-20T15:39:17+00:00,2.8380160331726,1,Stim_A.csv,Read.csv,Read,A,,black,RECOG,"Critical Lure Control",,126,Likert,User,1,"Was this item previously studied?","List Item Standard F",Recog,1::2,2655,NO,0,-1,-1,0,0,,1
JanelyMartinez,5cnr99sxap,DRM1_MSU,1,210,2023-11-20T15:39:39+00:00,22.281955003738,1,Stim_A.csv,Read.csv,Read,A,,fight,RECOG,"List Item",,143,Likert,User,1,"Was this item previously studied?","List Item Standard F",Recog,1::2,21980,NO,0,-1,-1,0,0,,0.947
JanelyMartinez,5cnr99sxap,DRM1_MSU,1,211,2023-11-20T15:40:03+00:00,24.010062932968,1,Stim_A.csv,Read.csv,Read,A,,flag,RECOG,"Critical Lure",,166,Likert,User,1,"Was this item previously studied?","List Item Control",Recog,1::2,23681,NO,0,-1,-1,0,0,,0.958
JanelyMartinez,5cnr99sxap,DRM1_MSU,1,212,2023-11-20T15:40:21+00:00,17.564604997635,1,Stim_A.csv,Read.csv,Read,A,,slow,RECOG,"Critical Lure",,160,Likert,User,1,"Was this item previously studied?","Critical Lure Sans F",Recog,1::2,17226,NO,33.333333333333,-1,-1,0,0,,0.897
JanelyMartinez,5cnr99sxap,DRM1_MSU,1,213,2023-11-20T15:40:46+00:00,25.257245063782,1,Stim_A.csv,Read.csv,Read,A,,window,RECOG,"Critical Lure",,130,Likert,User,1,"Was this item previously studied?","List Item Sans F",Recog,1::2,24962,NO,50,-1,-1,0,0,,0.927
JanelyMartinez,5cnr99sxap,DRM1_MSU,1,214,2023-11-20T15:41:02+00:00,16.448539972305,1,Stim_A.csv,Read.csv,Read,A,,sleeves,RECOG,"List Item",,193,Likert,User,1,"Was this item previously studied?","Critical Lure Control",Recog,1::2,16128,YES,40,-1,-1,0,0,,0.909
JanelyMartinez,5cnr99sxap,DRM1_MSU,1,215,2023-11-20T15:41:12+00:00,9.7053439617157,1,Stim_A.csv,Read.csv,Read,A,,sandwich,RECOG,"List Item",,180,Likert,User,1,"Was this item previously studied?","List Item Control",Recog,1::2,9406,YES,18.181818181818,-1,-1,0,0,,0.931
JanelyMartinez,5cnr99sxap,DRM1_MSU,1,216,2023-11-20T15:41:15+00:00,2.9267690181732,1,Stim_A.csv,Read.csv,Read,A,,,,,,0,Instruct,User,-,"You have completed this section. Please click next.",,Instruct7,,2739,,,-1,-1,,,,1
JanelyMartinez,5cnr99sxap,DRM1_MSU,1,217,2023-11-20T15:41:21+00:00,5.4758310317993,1,Stim_A.csv,Read.csv,Read,A,,,,,,0,Instruct,User,-,"The following screen will ask you a few questions abour your experience today. You must complete these questions to receive credit.",,Instruct8,,5203,,,-1,-1,,,,1
