Username,ID,ExperimentName,Session,Trial,Date,TimeDif,"Condition Number","Stimuli File","Order File","Condition Description","Condition Notes",Stimuli*Cue,Stimuli*Answer,Stimuli*Shuffle,"Stimuli*Stimuli Notes",Stimuli*Value,Procedure*Item,"Procedure*Trial Type","Procedure*Max Time","Procedure*Min Time",Procedure*Text,"Procedure*Procedure Notes",Procedure*Shuffle,Procedure*,Response*RT,Response*Response,Response*Accuracy,Response*RTfirst,Response*RTlast,Response*strictAcc,Response*lenientAcc,Response*focus,Response*Focus
CalixtaNunez,8m62dxil4v,DRM1_MSU,1,1,2023-11-10T00:15:48+00:00,6.2400181293488,2,Stim_B.csv,Read.csv,Read,B,,,,,,0,Instruct,-,5,"In this section, you will be presented with a series of words. Please study each word carefully. Your memory will be tested! Click next when you are ready to begin.",Initial_Instruct,Instruct1,,6134,,,-1,-1,,,,1
CalixtaNunez,8m62dxil4v,DRM1_MSU,1,2,2023-11-10T00:15:51+00:00,2.1748080253601,2,Stim_B.csv,Read.csv,Read,B,,,,,,0,Instruct,User,-,"You will now begin the study. Click next when you are ready to begin.",,Instruct16,,2016,,,-1,-1,,,,1
CalixtaNunez,8m62dxil4v,DRM1_MSU,1,3,2023-11-10T00:15:54+00:00,3.4474520683289,2,Stim_B.csv,Read.csv,Read,B,aroma,,Win_1,,,2,Study,User,-,,Window,Win_1,,3293,,,-1,-1,,,,1
CalixtaNunez,8m62dxil4v,DRM1_MSU,1,4,2023-11-10T00:15:56+00:00,1.4716799259186,2,Stim_B.csv,Read.csv,Read,B,scent,,Win_2,,,3,Study,User,-,,Window,Win_2,,1328,,,-1,-1,,,,1
CalixtaNunez,8m62dxil4v,DRM1_MSU,1,5,2023-11-10T00:15:59+00:00,3.3390998840332,2,Stim_B.csv,Read.csv,Read,B,whiff,,Win_3,,,4,Study,User,-,,Window,Win_3,,3182,,,-1,-1,,,,1
CalixtaNunez,8m62dxil4v,DRM1_MSU,1,6,2023-11-10T00:16:07+00:00,8.1175999641418,2,Stim_B.csv,Read.csv,Read,B,stench,,Win_4,,,5,Study,User,-,,Window,Win_4,,7966,,,-1,-1,,,,1
CalixtaNunez,8m62dxil4v,DRM1_MSU,1,7,2023-11-10T00:16:12+00:00,5.4546570777893,2,Stim_B.csv,Read.csv,Read,B,reek,,Win_5,,,6,Study,User,-,,Window,Win_5,,5303,,,-1,-1,,,,1
CalixtaNunez,8m62dxil4v,DRM1_MSU,1,8,2023-11-10T00:16:13+00:00,0.66832900047302,2,Stim_B.csv,Read.csv,Read,B,sniff,,Win_6,,,7,Study,User,-,,Window,Win_6,,523,,,-1,-1,,,,1
CalixtaNunez,8m62dxil4v,DRM1_MSU,1,9,2023-11-10T00:16:15+00:00,2.3341250419617,2,Stim_B.csv,Read.csv,Read,B,perfume,,Win_7,,,8,Study,User,-,,Window,Win_7,,2196,,,-1,-1,,,,1
CalixtaNunez,8m62dxil4v,DRM1_MSU,1,10,2023-11-10T00:16:17+00:00,1.319473028183,2,Stim_B.csv,Read.csv,Read,B,fragrance,,Win_8,,,9,Study,User,-,,Window,Win_8,,1171,,,-1,-1,,,,1
CalixtaNunez,8m62dxil4v,DRM1_MSU,1,11,2023-11-10T00:16:19+00:00,2.7338418960571,2,Stim_B.csv,Read.csv,Read,B,nose,,Win_9,,,10,Study,User,-,,Window,Win_9,,2590,,,-1,-1,,,,1
CalixtaNunez,8m62dxil4v,DRM1_MSU,1,12,2023-11-10T00:16:21+00:00,1.6208930015564,2,Stim_B.csv,Read.csv,Read,B,rose,,Win_10,,,11,Study,User,-,,Window,Win_10,,1395,,,-1,-1,,,,1
CalixtaNunez,8m62dxil4v,DRM1_MSU,1,13,2023-11-10T00:16:22+00:00,1.1126520633698,2,Stim_B.csv,Read.csv,Read,B,salts,,Win_11,,,12,Study,User,-,,Window,Win_11,,971,,,-1,-1,,,,1
CalixtaNunez,8m62dxil4v,DRM1_MSU,1,14,2023-11-10T00:16:25+00:00,2.4807629585266,2,Stim_B.csv,Read.csv,Read,B,breathe,,Win_12,,,13,Study,User,-,,Window,Win_12,,2342,,,-1,-1,,,,1
CalixtaNunez,8m62dxil4v,DRM1_MSU,1,15,2023-11-10T00:17:09+00:00,43.817718029022,2,Stim_B.csv,Read.csv,Read,B,,,,,,0,Instruct,User,3,"You will now be presented with a new study list. Click next when you are ready to begin.",,NEXT_LIST,,43339,,,-1,-1,,,,1
CalixtaNunez,8m62dxil4v,DRM1_MSU,1,16,2023-11-10T00:17:10+00:00,1.4576730728149,2,Stim_B.csv,Read.csv,Read,B,hard,,R1,,,14,Study,User,-,,Rough,R1,,1311,,,-1,-1,,,,1
CalixtaNunez,8m62dxil4v,DRM1_MSU,1,17,2023-11-10T00:17:11+00:00,1.481761932373,2,Stim_B.csv,Read.csv,Read,B,loud,,R2,,,15,Study,User,-,,Rough,R2,,1342,,,-1,-1,,,,1
CalixtaNunez,8m62dxil4v,DRM1_MSU,1,18,2023-11-10T00:17:14+00:00,2.7112410068512,2,Stim_B.csv,Read.csv,Read,B,tender,,R3,,,16,Study,User,-,,Rough,R3,,2346,,,-1,-1,,,,1
CalixtaNunez,8m62dxil4v,DRM1_MSU,1,19,2023-11-10T00:17:16+00:00,2.0968070030212,2,Stim_B.csv,Read.csv,Read,B,fluffy,,R4,,,17,Study,User,-,,Rough,R4,,1942,,,-1,-1,,,,1
CalixtaNunez,8m62dxil4v,DRM1_MSU,1,20,2023-11-10T00:17:19+00:00,2.7634160518646,2,Stim_B.csv,Read.csv,Read,B,pillow,,R5,,,18,Study,User,-,,Rough,R5,,2610,,,-1,-1,,,,1
CalixtaNunez,8m62dxil4v,DRM1_MSU,1,21,2023-11-10T00:17:21+00:00,1.5373198986053,2,Stim_B.csv,Read.csv,Read,B,downy,,R6,,,19,Study,User,-,,Rough,R6,,1366,,,-1,-1,,,,1
CalixtaNunez,8m62dxil4v,DRM1_MSU,1,22,2023-11-10T00:17:22+00:00,1.2713229656219,2,Stim_B.csv,Read.csv,Read,B,plush,,R7,,,20,Study,User,-,,Rough,R7,,1106,,,-1,-1,,,,1
CalixtaNunez,8m62dxil4v,DRM1_MSU,1,23,2023-11-10T00:17:23+00:00,1.2299311161041,2,Stim_B.csv,Read.csv,Read,B,cotton,,R8,,,21,Study,User,-,,Rough,R8,,1057,,,-1,-1,,,,1
CalixtaNunez,8m62dxil4v,DRM1_MSU,1,24,2023-11-10T00:17:25+00:00,1.5437650680542,2,Stim_B.csv,Read.csv,Read,B,skin,,R9,,,22,Study,User,-,,Rough,R9,,1401,,,-1,-1,,,,1
CalixtaNunez,8m62dxil4v,DRM1_MSU,1,25,2023-11-10T00:17:26+00:00,1.4115378856659,2,Stim_B.csv,Read.csv,Read,B,fur,,R10,,,23,Study,User,-,,Rough,R10,,1258,,,-1,-1,,,,1
CalixtaNunez,8m62dxil4v,DRM1_MSU,1,26,2023-11-10T00:17:28+00:00,1.4902610778809,2,Stim_B.csv,Read.csv,Read,B,touch,,R11,,,24,Study,User,-,,Rough,R11,,1350,,,-1,-1,,,,1
CalixtaNunez,8m62dxil4v,DRM1_MSU,1,27,2023-11-10T00:17:30+00:00,2.616791009903,2,Stim_B.csv,Read.csv,Read,B,furry,,R12,,,25,Study,User,-,,Rough,R12,,2467,,,-1,-1,,,,1
CalixtaNunez,8m62dxil4v,DRM1_MSU,1,28,2023-11-10T00:17:35+00:00,4.6954729557037,2,Stim_B.csv,Read.csv,Read,B,,,,,,0,Instruct,User,3,"You will now be presented with a new study list. Click next when you are ready to begin.",,NEXT_LIST,,4216,,,-1,-1,,,,1
CalixtaNunez,8m62dxil4v,DRM1_MSU,1,29,2023-11-10T00:17:36+00:00,1.3724939823151,2,Stim_B.csv,Read.csv,Read,B,honey,,A1,,,26,Study,User,-,,Anger,A1,,1133,,,-1,-1,,,,1
CalixtaNunez,8m62dxil4v,DRM1_MSU,1,30,2023-11-10T00:17:40+00:00,3.5937790870667,2,Stim_B.csv,Read.csv,Read,B,bitter,,A2,,,27,Study,User,-,,Anger,A2,,3442,,,-1,-1,,,,1
CalixtaNunez,8m62dxil4v,DRM1_MSU,1,31,2023-11-10T00:17:42+00:00,1.9760828018188,2,Stim_B.csv,Read.csv,Read,B,sugar,,A3,,,28,Study,User,-,,Anger,A3,,1822,,,-1,-1,,,,1
CalixtaNunez,8m62dxil4v,DRM1_MSU,1,32,2023-11-10T00:17:43+00:00,1.1975359916687,2,Stim_B.csv,Read.csv,Read,B,sour,,A4,,,29,Study,User,-,,Anger,A4,,1051,,,-1,-1,,,,1
CalixtaNunez,8m62dxil4v,DRM1_MSU,1,33,2023-11-10T00:17:46+00:00,2.6440091133118,2,Stim_B.csv,Read.csv,Read,B,candy,,A5,,,30,Study,User,-,,Anger,A5,,2494,,,-1,-1,,,,1
CalixtaNunez,8m62dxil4v,DRM1_MSU,1,34,2023-11-10T00:17:47+00:00,1.547178030014,2,Stim_B.csv,Read.csv,Read,B,tart,,A6,,,31,Study,User,-,,Anger,A6,,1402,,,-1,-1,,,,1
CalixtaNunez,8m62dxil4v,DRM1_MSU,1,35,2023-11-10T00:17:49+00:00,1.80677485466,2,Stim_B.csv,Read.csv,Read,B,chocolate,,A7,,,32,Study,User,-,,Anger,A7,,1651,,,-1,-1,,,,1
CalixtaNunez,8m62dxil4v,DRM1_MSU,1,36,2023-11-10T00:17:51+00:00,1.9728062152863,2,Stim_B.csv,Read.csv,Read,B,nice,,A8,,,33,Study,User,-,,Anger,A8,,1826,,,-1,-1,,,,1
CalixtaNunez,8m62dxil4v,DRM1_MSU,1,37,2023-11-10T00:17:52+00:00,1.1557319164276,2,Stim_B.csv,Read.csv,Read,B,taste,,A9,,,34,Study,User,-,,Anger,A9,,1008,,,-1,-1,,,,1
CalixtaNunez,8m62dxil4v,DRM1_MSU,1,38,2023-11-10T00:17:54+00:00,1.4161128997803,2,Stim_B.csv,Read.csv,Read,B,cake,,A10,,,35,Study,User,-,,Anger,A10,,890,,,-1,-1,,,,1
CalixtaNunez,8m62dxil4v,DRM1_MSU,1,39,2023-11-10T00:17:55+00:00,1.0525381565094,2,Stim_B.csv,Read.csv,Read,B,good,,A11,,,36,Study,User,-,,Anger,A11,,780,,,-1,-1,,,,1
CalixtaNunez,8m62dxil4v,DRM1_MSU,1,40,2023-11-10T00:17:56+00:00,1.3558259010315,2,Stim_B.csv,Read.csv,Read,B,tooth,,A12,,,37,Study,User,-,,Anger,A12,,1211,,,-1,-1,,,,1
CalixtaNunez,8m62dxil4v,DRM1_MSU,1,41,2023-11-10T00:18:00+00:00,3.6906070709229,2,Stim_B.csv,Read.csv,Read,B,,,,,,0,Instruct,User,3,"You will now be presented with a new study list. Click next when you are ready to begin.",,NEXT_LIST,,3402,,,-1,-1,,,,1
CalixtaNunez,8m62dxil4v,DRM1_MSU,1,42,2023-11-10T00:18:03+00:00,2.9780569076538,2,Stim_B.csv,Read.csv,Read,B,table,,T1,,,38,Study,User,-,,Trash,T1,,2825,,,-1,-1,,,,1
CalixtaNunez,8m62dxil4v,DRM1_MSU,1,43,2023-11-10T00:18:05+00:00,2.2765510082245,2,Stim_B.csv,Read.csv,Read,B,swivel,,T2,,,39,Study,User,-,,Trash,T2,,2125,,,-1,-1,,,,1
CalixtaNunez,8m62dxil4v,DRM1_MSU,1,44,2023-11-10T00:18:07+00:00,2.0946109294891,2,Stim_B.csv,Read.csv,Read,B,rocking,,T3,,,40,Study,User,-,,Trash,T3,,1945,,,-1,-1,,,,1
CalixtaNunez,8m62dxil4v,DRM1_MSU,1,45,2023-11-10T00:18:09+00:00,1.5880661010742,2,Stim_B.csv,Read.csv,Read,B,recliner,,T4,,,41,Study,User,-,,Trash,T4,,1437,,,-1,-1,,,,1
CalixtaNunez,8m62dxil4v,DRM1_MSU,1,46,2023-11-10T00:18:11+00:00,2.2364599704742,2,Stim_B.csv,Read.csv,Read,B,seat,,T5,,,42,Study,User,-,,Trash,T5,,2090,,,-1,-1,,,,1
CalixtaNunez,8m62dxil4v,DRM1_MSU,1,47,2023-11-10T00:18:13+00:00,2.1289391517639,2,Stim_B.csv,Read.csv,Read,B,stool,,T6,,,43,Study,User,-,,Trash,T6,,1980,,,-1,-1,,,,1
CalixtaNunez,8m62dxil4v,DRM1_MSU,1,48,2023-11-10T00:18:32+00:00,19.101277828217,2,Stim_B.csv,Read.csv,Read,B,desk,,T7,,,44,Study,User,-,,Trash,T7,,18939,,,-1,-1,,,,1
CalixtaNunez,8m62dxil4v,DRM1_MSU,1,49,2023-11-10T00:18:33+00:00,0.99256014823914,2,Stim_B.csv,Read.csv,Read,B,couch,,T8,,,45,Study,User,-,,Trash,T8,,835,,,-1,-1,,,,1
CalixtaNunez,8m62dxil4v,DRM1_MSU,1,50,2023-11-10T00:18:34+00:00,1.2001938819885,2,Stim_B.csv,Read.csv,Read,B,sit,,T9,,,46,Study,User,-,,Trash,T9,,1046,,,-1,-1,,,,1
CalixtaNunez,8m62dxil4v,DRM1_MSU,1,51,2023-11-10T00:18:35+00:00,0.98104190826416,2,Stim_B.csv,Read.csv,Read,B,sofa,,T10,,,47,Study,User,-,,Trash,T10,,836,,,-1,-1,,,,1
CalixtaNunez,8m62dxil4v,DRM1_MSU,1,52,2023-11-10T00:18:37+00:00,2.217383146286,2,Stim_B.csv,Read.csv,Read,B,bench,,T11,,,48,Study,User,-,,Trash,T11,,2072,,,-1,-1,,,,1
CalixtaNunez,8m62dxil4v,DRM1_MSU,1,53,2023-11-10T00:18:39+00:00,1.5359370708466,2,Stim_B.csv,Read.csv,Read,B,sitting,,T12,,,49,Study,User,-,,Trash,T12,,1387,,,-1,-1,,,,1
CalixtaNunez,8m62dxil4v,DRM1_MSU,1,54,2023-11-10T00:19:03+00:00,24.191140890121,2,Stim_B.csv,Read.csv,Read,B,,,,,,0,Instruct,User,3,"You will now be presented with a new study list. Click next when you are ready to begin.",,NEXT_LIST,,24026,,,-1,-1,,,,1
CalixtaNunez,8m62dxil4v,DRM1_MSU,1,55,2023-11-10T00:19:53+00:00,50.008240938187,2,Stim_B.csv,Read.csv,Read,B,climber,,D1,,,50,Study,User,-,,Doctor,D1,,49678,,,-1,-1,,,,1
CalixtaNunez,8m62dxil4v,DRM1_MSU,1,56,2023-11-10T00:19:54+00:00,1.2997159957886,2,Stim_B.csv,Read.csv,Read,B,hill,,D2,,,51,Study,User,-,,Doctor,D2,,955,,,-1,-1,,,,1
CalixtaNunez,8m62dxil4v,DRM1_MSU,1,57,2023-11-10T00:20:10+00:00,15.76118516922,2,Stim_B.csv,Read.csv,Read,B,climb,,D3,,,52,Study,User,-,,Doctor,D3,,15601,,,-1,-1,,,,1
CalixtaNunez,8m62dxil4v,DRM1_MSU,1,58,2023-11-10T00:20:15+00:00,5.1212148666382,2,Stim_B.csv,Read.csv,Read,B,molehill,,D4,,,53,Study,User,-,,Doctor,D4,,4949,,,-1,-1,,,,1
CalixtaNunez,8m62dxil4v,DRM1_MSU,1,59,2023-11-10T00:20:20+00:00,4.1952469348907,2,Stim_B.csv,Read.csv,Read,B,peak,,D5,,,54,Study,User,-,,Doctor,D5,,4043,,,-1,-1,,,,1
CalixtaNunez,8m62dxil4v,DRM1_MSU,1,60,2023-11-10T00:20:42+00:00,22.18604016304,2,Stim_B.csv,Read.csv,Read,B,valley,,D6,,,55,Study,User,-,,Doctor,D6,,22027,,,-1,-1,,,,1
CalixtaNunez,8m62dxil4v,DRM1_MSU,1,61,2023-11-10T00:20:44+00:00,1.82932305336,2,Stim_B.csv,Read.csv,Read,B,summit,,D7,,,56,Study,User,-,,Doctor,D7,,1224,,,-1,-1,,,,1
CalixtaNunez,8m62dxil4v,DRM1_MSU,1,62,2023-11-10T00:20:46+00:00,2.4730968475342,2,Stim_B.csv,Read.csv,Read,B,steep,,D8,,,57,Study,User,-,,Doctor,D8,,2322,,,-1,-1,,,,1
CalixtaNunez,8m62dxil4v,DRM1_MSU,1,63,2023-11-10T00:20:54+00:00,8.1972920894623,2,Stim_B.csv,Read.csv,Read,B,ski,,D9,,,58,Study,User,-,,Doctor,D9,,7990,,,-1,-1,,,,1
CalixtaNunez,8m62dxil4v,DRM1_MSU,1,64,2023-11-10T00:20:58+00:00,3.7867958545685,2,Stim_B.csv,Read.csv,Read,B,bike,,D10,,,59,Study,User,-,,Doctor,D10,,3623,,,-1,-1,,,,1
CalixtaNunez,8m62dxil4v,DRM1_MSU,1,65,2023-11-10T00:21:04+00:00,5.939150094986,2,Stim_B.csv,Read.csv,Read,B,goat,,D11,,,60,Study,User,-,,Doctor,D11,,5779,,,-1,-1,,,,1
CalixtaNunez,8m62dxil4v,DRM1_MSU,1,66,2023-11-10T00:21:16+00:00,12.377803087234,2,Stim_B.csv,Read.csv,Read,B,glacier,,D12,,,61,Study,User,-,,Doctor,D12,,12217,,,-1,-1,,,,1
CalixtaNunez,8m62dxil4v,DRM1_MSU,1,67,2023-11-10T00:21:20+00:00,3.4969890117645,2,Stim_B.csv,Read.csv,Read,B,,,,,,0,Instruct,User,3,"You will now be presented with a new study list. Click next when you are ready to begin.",,NEXT_LIST,,3342,,,-1,-1,,,,1
CalixtaNunez,8m62dxil4v,DRM1_MSU,1,68,2023-11-10T00:21:21+00:00,0.95435190200806,2,Stim_B.csv,Read.csv,Read,B,band,,S1,,,62,Study,User,-,,Slow,S1,,811,,,-1,-1,,,,1
CalixtaNunez,8m62dxil4v,DRM1_MSU,1,69,2023-11-10T00:21:21+00:00,0.71170401573181,2,Stim_B.csv,Read.csv,Read,B,concert,,S2,,,63,Study,User,-,,Slow,S2,,562,,,-1,-1,,,,1
CalixtaNunez,8m62dxil4v,DRM1_MSU,1,70,2023-11-10T00:21:22+00:00,0.92630004882812,2,Stim_B.csv,Read.csv,Read,B,jazz,,S3,,,64,Study,User,-,,Slow,S3,,768,,,-1,-1,,,,1
CalixtaNunez,8m62dxil4v,DRM1_MSU,1,71,2023-11-10T00:21:23+00:00,0.86221885681152,2,Stim_B.csv,Read.csv,Read,B,symphony,,S4,,,65,Study,User,-,,Slow,S4,,716,,,-1,-1,,,,1
CalixtaNunez,8m62dxil4v,DRM1_MSU,1,72,2023-11-10T00:21:24+00:00,0.80265617370605,2,Stim_B.csv,Read.csv,Read,B,orchestra,,S5,,,66,Study,User,-,,Slow,S5,,653,,,-1,-1,,,,1
CalixtaNunez,8m62dxil4v,DRM1_MSU,1,73,2023-11-10T00:21:25+00:00,0.7067289352417,2,Stim_B.csv,Read.csv,Read,B,rhythm,,S6,,,67,Study,User,-,,Slow,S6,,550,,,-1,-1,,,,1
CalixtaNunez,8m62dxil4v,DRM1_MSU,1,74,2023-11-10T00:21:26+00:00,1.4043169021606,2,Stim_B.csv,Read.csv,Read,B,radio,,S7,,,68,Study,User,-,,Slow,S7,,1202,,,-1,-1,,,,1
CalixtaNunez,8m62dxil4v,DRM1_MSU,1,75,2023-11-10T00:21:27+00:00,0.88123297691345,2,Stim_B.csv,Read.csv,Read,B,melody,,S8,,,69,Study,User,-,,Slow,S8,,686,,,-1,-1,,,,1
CalixtaNunez,8m62dxil4v,DRM1_MSU,1,76,2023-11-10T00:21:28+00:00,1.049063205719,2,Stim_B.csv,Read.csv,Read,B,piano,,S9,,,70,Study,User,-,,Slow,S9,,750,,,-1,-1,,,,1
CalixtaNunez,8m62dxil4v,DRM1_MSU,1,77,2023-11-10T00:21:29+00:00,0.92482089996338,2,Stim_B.csv,Read.csv,Read,B,sound,,S10,,,71,Study,User,-,,Slow,S10,,753,,,-1,-1,,,,1
CalixtaNunez,8m62dxil4v,DRM1_MSU,1,78,2023-11-10T00:21:30+00:00,1.1757838726044,2,Stim_B.csv,Read.csv,Read,B,instrument,,S11,,,72,Study,User,-,,Slow,S11,,685,,,-1,-1,,,,1
CalixtaNunez,8m62dxil4v,DRM1_MSU,1,79,2023-11-10T00:21:31+00:00,1.046266078949,2,Stim_B.csv,Read.csv,Read,B,note,,S12,,,73,Study,User,-,,Slow,S12,,591,,,-1,-1,,,,1
CalixtaNunez,8m62dxil4v,DRM1_MSU,1,80,2023-11-10T00:21:35+00:00,3.6754720211029,2,Stim_B.csv,Read.csv,Read,B,,,,,,0,Instruct,User,3,"You will now be presented with a new study list. Click next when you are ready to begin.",,NEXT_LIST,,3502,,,-1,-1,,,,1
CalixtaNunez,8m62dxil4v,DRM1_MSU,1,81,2023-11-10T00:21:37+00:00,1.7712860107422,2,Stim_B.csv,Read.csv,Read,B,foam,,RR1,,,74,Study,User,-,,River,RR1,,1207,,,-1,-1,,,,1
CalixtaNunez,8m62dxil4v,DRM1_MSU,1,82,2023-11-10T00:21:38+00:00,1.0372610092163,2,Stim_B.csv,Read.csv,Read,B,latex,,RR2,,,75,Study,User,-,,River,RR2,,886,,,-1,-1,,,,1
CalixtaNunez,8m62dxil4v,DRM1_MSU,1,83,2023-11-10T00:21:39+00:00,1.0522520542145,2,Stim_B.csv,Read.csv,Read,B,galoshes,,RR3,,,76,Study,User,-,,River,RR3,,914,,,-1,-1,,,,1
CalixtaNunez,8m62dxil4v,DRM1_MSU,1,84,2023-11-10T00:21:40+00:00,1.0313069820404,2,Stim_B.csv,Read.csv,Read,B,tire,,RR4,,,77,Study,User,-,,River,RR4,,880,,,-1,-1,,,,1
CalixtaNunez,8m62dxil4v,DRM1_MSU,1,85,2023-11-10T00:21:41+00:00,1.1187109947205,2,Stim_B.csv,Read.csv,Read,B,flexible,,RR5,,,78,Study,User,-,,River,RR5,,848,,,-1,-1,,,,1
CalixtaNunez,8m62dxil4v,DRM1_MSU,1,86,2023-11-10T00:21:42+00:00,1.2505469322205,2,Stim_B.csv,Read.csv,Read,B,elastic,,RR6,,,79,Study,User,-,,River,RR6,,971,,,-1,-1,,,,1
CalixtaNunez,8m62dxil4v,DRM1_MSU,1,87,2023-11-10T00:21:43+00:00,0.84795904159546,2,Stim_B.csv,Read.csv,Read,B,gloves,,RR7,,,80,Study,User,-,,River,RR7,,693,,,-1,-1,,,,1
CalixtaNunez,8m62dxil4v,DRM1_MSU,1,88,2023-11-10T00:21:44+00:00,1.0372929573059,2,Stim_B.csv,Read.csv,Read,B,eraser,,RR8,,,81,Study,User,-,,River,RR8,,888,,,-1,-1,,,,1
CalixtaNunez,8m62dxil4v,DRM1_MSU,1,89,2023-11-10T00:21:45+00:00,0.90014600753784,2,Stim_B.csv,Read.csv,Read,B,bounce,,RR9,,,82,Study,User,-,,River,RR9,,753,,,-1,-1,,,,1
CalixtaNunez,8m62dxil4v,DRM1_MSU,1,90,2023-11-10T00:21:46+00:00,1.0373520851135,2,Stim_B.csv,Read.csv,Read,B,ball,,RR10,,,83,Study,User,-,,River,RR10,,891,,,-1,-1,,,,1
CalixtaNunez,8m62dxil4v,DRM1_MSU,1,91,2023-11-10T00:21:47+00:00,0.88706994056702,2,Stim_B.csv,Read.csv,Read,B,soles,,RR11,,,84,Study,User,-,,River,RR11,,740,,,-1,-1,,,,1
CalixtaNunez,8m62dxil4v,DRM1_MSU,1,92,2023-11-10T00:21:48+00:00,1.00044298172,2,Stim_B.csv,Read.csv,Read,B,springy,,RR12,,,85,Study,User,-,,River,RR12,,857,,,-1,-1,,,,1
CalixtaNunez,8m62dxil4v,DRM1_MSU,1,93,2023-11-10T00:21:53+00:00,5.5574450492859,2,Stim_B.csv,Read.csv,Read,B,,,,,,0,Instruct,User,3,"You will now be presented with a new study list. Click next when you are ready to begin.",,NEXT_LIST,,5132,,,-1,-1,,,,1
CalixtaNunez,8m62dxil4v,DRM1_MSU,1,94,2023-11-10T00:22:06+00:00,12.774880886078,2,Stim_B.csv,Read.csv,Read,B,toe,,B1,,,86,Study,User,-,,Bread,B1,,12336,,,-1,-1,,,,1
CalixtaNunez,8m62dxil4v,DRM1_MSU,1,95,2023-11-10T00:22:07+00:00,0.61114096641541,2,Stim_B.csv,Read.csv,Read,B,inch,,B2,,,87,Study,User,-,,Bread,B2,,466,,,-1,-1,,,,1
CalixtaNunez,8m62dxil4v,DRM1_MSU,1,96,2023-11-10T00:22:08+00:00,0.88459205627441,2,Stim_B.csv,Read.csv,Read,B,ankle,,B3,,,88,Study,User,-,,Bread,B3,,734,,,-1,-1,,,,1
CalixtaNunez,8m62dxil4v,DRM1_MSU,1,97,2023-11-10T00:22:09+00:00,0.88706207275391,2,Stim_B.csv,Read.csv,Read,B,shoe,,B4,,,89,Study,User,-,,Bread,B4,,733,,,-1,-1,,,,1
CalixtaNunez,8m62dxil4v,DRM1_MSU,1,98,2023-11-10T00:22:10+00:00,1.0885269641876,2,Stim_B.csv,Read.csv,Read,B,sandals,,B5,,,90,Study,User,-,,Bread,B5,,949,,,-1,-1,,,,1
CalixtaNunez,8m62dxil4v,DRM1_MSU,1,99,2023-11-10T00:22:12+00:00,1.9553899765015,2,Stim_B.csv,Read.csv,Read,B,sock,,B6,,,91,Study,User,-,,Bread,B6,,1718,,,-1,-1,,,,1
CalixtaNunez,8m62dxil4v,DRM1_MSU,1,100,2023-11-10T00:22:13+00:00,1.111200094223,2,Stim_B.csv,Read.csv,Read,B,hand,,B7,,,92,Study,User,-,,Bread,B7,,972,,,-1,-1,,,,1
CalixtaNunez,8m62dxil4v,DRM1_MSU,1,101,2023-11-10T00:22:14+00:00,1.5973348617554,2,Stim_B.csv,Read.csv,Read,B,boot,,B8,,,93,Study,User,-,,Bread,B8,,1097,,,-1,-1,,,,1
CalixtaNunez,8m62dxil4v,DRM1_MSU,1,102,2023-11-10T00:22:16+00:00,1.2796051502228,2,Stim_B.csv,Read.csv,Read,B,yard,,B9,,,94,Study,User,-,,Bread,B9,,1136,,,-1,-1,,,,1
CalixtaNunez,8m62dxil4v,DRM1_MSU,1,103,2023-11-10T00:22:17+00:00,1.1686639785767,2,Stim_B.csv,Read.csv,Read,B,kick,,B10,,,95,Study,User,-,,Bread,B10,,1017,,,-1,-1,,,,1
CalixtaNunez,8m62dxil4v,DRM1_MSU,1,104,2023-11-10T00:22:18+00:00,1.247624874115,2,Stim_B.csv,Read.csv,Read,B,knee,,B11,,,96,Study,User,-,,Bread,B11,,1095,,,-1,-1,,,,1
CalixtaNunez,8m62dxil4v,DRM1_MSU,1,105,2023-11-10T00:22:19+00:00,1.2010440826416,2,Stim_B.csv,Read.csv,Read,B,walk,,B12,,,97,Study,User,-,,Bread,B12,,1048,,,-1,-1,,,,1
CalixtaNunez,8m62dxil4v,DRM1_MSU,1,106,2023-11-10T00:22:23+00:00,4.082906961441,2,Stim_B.csv,Read.csv,Read,B,,,,,,0,Instruct,User,3,"You will now be presented with a new study list. Click next when you are ready to begin.",,NEXT_LIST,,3910,,,-1,-1,,,,1
CalixtaNunez,8m62dxil4v,DRM1_MSU,1,107,2023-11-10T00:22:25+00:00,1.1877911090851,2,Stim_B.csv,Read.csv,Read,B,boy,,F1,,,98,Study,User,-,,Flag,F1,,1044,,,-1,-1,,,,1
CalixtaNunez,8m62dxil4v,DRM1_MSU,1,108,2023-11-10T00:22:26+00:00,1.0467610359192,2,Stim_B.csv,Read.csv,Read,B,dolls,,F2,,,99,Study,User,-,,Flag,F2,,899,,,-1,-1,,,,1
CalixtaNunez,8m62dxil4v,DRM1_MSU,1,109,2023-11-10T00:22:26+00:00,0.67682790756226,2,Stim_B.csv,Read.csv,Read,B,pretty,,F3,,,100,Study,User,-,,Flag,F3,,499,,,-1,-1,,,,1
CalixtaNunez,8m62dxil4v,DRM1_MSU,1,110,2023-11-10T00:22:27+00:00,0.85071897506714,2,Stim_B.csv,Read.csv,Read,B,female,,F4,,,101,Study,User,-,,Flag,F4,,698,,,-1,-1,,,,1
CalixtaNunez,8m62dxil4v,DRM1_MSU,1,111,2023-11-10T00:22:28+00:00,0.69377708435059,2,Stim_B.csv,Read.csv,Read,B,dress,,F5,,,102,Study,User,-,,Flag,F5,,547,,,-1,-1,,,,1
CalixtaNunez,8m62dxil4v,DRM1_MSU,1,112,2023-11-10T00:22:28+00:00,0.6163170337677,2,Stim_B.csv,Read.csv,Read,B,date,,F6,,,103,Study,User,-,,Flag,F6,,470,,,-1,-1,,,,1
CalixtaNunez,8m62dxil4v,DRM1_MSU,1,113,2023-11-10T00:22:29+00:00,0.92460179328918,2,Stim_B.csv,Read.csv,Read,B,beautiful,,F7,,,104,Study,User,-,,Flag,F7,,765,,,-1,-1,,,,1
CalixtaNunez,8m62dxil4v,DRM1_MSU,1,114,2023-11-10T00:22:30+00:00,0.69282221794128,2,Stim_B.csv,Read.csv,Read,B,daughter,,F8,,,105,Study,User,-,,Flag,F8,,535,,,-1,-1,,,,1
CalixtaNunez,8m62dxil4v,DRM1_MSU,1,115,2023-11-10T00:22:31+00:00,0.68883585929871,2,Stim_B.csv,Read.csv,Read,B,sister,,F9,,,106,Study,User,-,,Flag,F9,,536,,,-1,-1,,,,1
CalixtaNunez,8m62dxil4v,DRM1_MSU,1,116,2023-11-10T00:22:31+00:00,0.71665596961975,2,Stim_B.csv,Read.csv,Read,B,cute,,F10,,,107,Study,User,-,,Flag,F10,,528,,,-1,-1,,,,1
CalixtaNunez,8m62dxil4v,DRM1_MSU,1,117,2023-11-10T00:22:32+00:00,0.77494716644287,2,Stim_B.csv,Read.csv,Read,B,niece,,F11,,,108,Study,User,-,,Flag,F11,,519,,,-1,-1,,,,1
CalixtaNunez,8m62dxil4v,DRM1_MSU,1,118,2023-11-10T00:22:34+00:00,1.6276710033417,2,Stim_B.csv,Read.csv,Read,B,young,,F12,,,109,Study,User,-,,Flag,F12,,639,,,-1,-1,,,,1
CalixtaNunez,8m62dxil4v,DRM1_MSU,1,119,2023-11-10T00:22:38+00:00,4.1045019626617,2,Stim_B.csv,Read.csv,Read,B,,,,,,0,Instruct,User,3,"You will now be presented with a new study list. Click next when you are ready to begin.",,NEXT_LIST,,3744,,,-1,-1,,,,1
CalixtaNunez,8m62dxil4v,DRM1_MSU,1,120,2023-11-10T00:22:40+00:00,1.6107859611511,2,Stim_B.csv,Read.csv,Read,B,white,,SS1,,,110,Study,User,-,,Shirt,SS1,,1412,,,-1,-1,,,,1
CalixtaNunez,8m62dxil4v,DRM1_MSU,1,121,2023-11-10T00:22:41+00:00,1.5676689147949,2,Stim_B.csv,Read.csv,Read,B,gray,,SS2,,,111,Study,User,-,,Shirt,SS2,,706,,,-1,-1,,,,1
CalixtaNunez,8m62dxil4v,DRM1_MSU,1,122,2023-11-10T00:22:42+00:00,0.8528311252594,2,Stim_B.csv,Read.csv,Read,B,brown,,SS3,,,112,Study,User,-,,Shirt,SS3,,539,,,-1,-1,,,,1
CalixtaNunez,8m62dxil4v,DRM1_MSU,1,123,2023-11-10T00:22:43+00:00,0.68633985519409,2,Stim_B.csv,Read.csv,Read,B,coal,,SS4,,,113,Study,User,-,,Shirt,SS4,,546,,,-1,-1,,,,1
CalixtaNunez,8m62dxil4v,DRM1_MSU,1,124,2023-11-10T00:22:43+00:00,0.79202604293823,2,Stim_B.csv,Read.csv,Read,B,dark,,SS5,,,114,Study,User,-,,Shirt,SS5,,628,,,-1,-1,,,,1
CalixtaNunez,8m62dxil4v,DRM1_MSU,1,125,2023-11-10T00:22:44+00:00,0.71955800056458,2,Stim_B.csv,Read.csv,Read,B,color,,SS6,,,115,Study,User,-,,Shirt,SS6,,569,,,-1,-1,,,,1
CalixtaNunez,8m62dxil4v,DRM1_MSU,1,126,2023-11-10T00:22:45+00:00,0.83643007278442,2,Stim_B.csv,Read.csv,Read,B,funeral,,SS7,,,116,Study,User,-,,Shirt,SS7,,687,,,-1,-1,,,,1
CalixtaNunez,8m62dxil4v,DRM1_MSU,1,127,2023-11-10T00:22:46+00:00,0.66943192481995,2,Stim_B.csv,Read.csv,Read,B,blue,,SS8,,,117,Study,User,-,,Shirt,SS8,,514,,,-1,-1,,,,1
CalixtaNunez,8m62dxil4v,DRM1_MSU,1,128,2023-11-10T00:22:46+00:00,0.70874810218811,2,Stim_B.csv,Read.csv,Read,B,charred,,SS9,,,118,Study,User,-,,Shirt,SS9,,561,,,-1,-1,,,,1
CalixtaNunez,8m62dxil4v,DRM1_MSU,1,129,2023-11-10T00:22:47+00:00,0.793212890625,2,Stim_B.csv,Read.csv,Read,B,ink,,SS10,,,119,Study,User,-,,Shirt,SS10,,639,,,-1,-1,,,,1
CalixtaNunez,8m62dxil4v,DRM1_MSU,1,130,2023-11-10T00:22:48+00:00,0.88249492645264,2,Stim_B.csv,Read.csv,Read,B,death,,SS11,,,120,Study,User,-,,Shirt,SS11,,727,,,-1,-1,,,,1
CalixtaNunez,8m62dxil4v,DRM1_MSU,1,131,2023-11-10T00:22:49+00:00,0.83255505561829,2,Stim_B.csv,Read.csv,Read,B,cat,,SS12,,,121,Study,User,-,,Shirt,SS12,,683,,,-1,-1,,,,1
CalixtaNunez,8m62dxil4v,DRM1_MSU,1,132,2023-11-10T00:22:51+00:00,1.830286026001,2,Stim_B.csv,Read.csv,Read,B,,,,,,0,Instruct,User,-,"You have completed this section. Please click next.",,Instruct166,,1688,,,-1,-1,,,,1
CalixtaNunez,8m62dxil4v,DRM1_MSU,1,133,2023-11-10T00:23:51+00:00,60.535673141479,2,Stim_B.csv,Read.csv,Read,B,,,,,,0,FreeRecall,60,60,"Please type as many words as you can that begin with the letter ""C"". The computer will automatically advance to the next screen in 60 seconds.",,FILLER,,60000,"cold cat chair color ",0,5274,35334,0,0,,1
CalixtaNunez,8m62dxil4v,DRM1_MSU,1,134,2023-11-10T00:23:54+00:00,2.7390918731689,2,Stim_B.csv,Read.csv,Read,B,,,,,,0,Instruct,User,-,"You have completed this section. Please click next.",,Instruct166,,2562,,,-1,-1,,,,1
CalixtaNunez,8m62dxil4v,DRM1_MSU,1,135,2023-11-10T00:24:05+00:00,11.146003961563,2,Stim_B.csv,Read.csv,Read,B,,,,,,0,Instruct,User,10,"Your memory will now be tested. You will be presented with a series of words. If the word on the screen was previously studied, please select YES. If the word was not studied, select NO. PLEASE DO NOT SKIP ITEMS! Click next when you are ready to begin.",,Instruct_stuff,,10570,,,-1,-1,,,,1
CalixtaNunez,8m62dxil4v,DRM1_MSU,1,136,2023-11-10T00:24:08+00:00,3.3301770687103,2,Stim_B.csv,Read.csv,Read,B,,steep,RECOG,"List Item",,174,Likert,User,1,"Was this item previously studied?","List Item Control",Recog,1::2,3008,NO,0,-1,-1,0,0,,1
CalixtaNunez,8m62dxil4v,DRM1_MSU,1,137,2023-11-10T00:24:11+00:00,2.1593680381775,2,Stim_B.csv,Read.csv,Read,B,,sound,RECOG,"List Item",,129,Likert,User,1,"Was this item previously studied?","List Item Sans F",Recog,1::2,2007,YES,25,-1,-1,0,0,,1
CalixtaNunez,8m62dxil4v,DRM1_MSU,1,138,2023-11-10T00:24:13+00:00,2.1843218803406,2,Stim_B.csv,Read.csv,Read,B,,rose,RECOG,"List Item",,157,Likert,User,1,"Was this item previously studied?","Critical Lure Standard F",Recog,1::2,2027,YES,28.571428571429,-1,-1,0,0,,1
CalixtaNunez,8m62dxil4v,DRM1_MSU,1,139,2023-11-10T00:24:15+00:00,2.5550179481506,2,Stim_B.csv,Read.csv,Read,B,,dolls,RECOG,"List Item",,127,Likert,User,1,"Was this item previously studied?","List Item Standard F",Recog,1::2,2405,YES,25,-1,-1,0,0,,1
CalixtaNunez,8m62dxil4v,DRM1_MSU,1,140,2023-11-10T00:24:18+00:00,2.6714861392975,2,Stim_B.csv,Read.csv,Read,B,,nice,RECOG,"List Item",,194,Likert,User,1,"Was this item previously studied?","Critical Lure Control",Recog,1::2,2130,YES,28.571428571429,-1,-1,0,0,,1
CalixtaNunez,8m62dxil4v,DRM1_MSU,1,141,2023-11-10T00:24:21+00:00,2.5831029415131,2,Stim_B.csv,Read.csv,Read,B,,shirt,RECOG,"Critical Lure Control",,125,Likert,User,1,"Was this item previously studied?","List Item Standard F",Recog,1::2,2409,NO,0,-1,-1,0,0,,1
CalixtaNunez,8m62dxil4v,DRM1_MSU,1,142,2023-11-10T00:24:24+00:00,3.3281631469727,2,Stim_B.csv,Read.csv,Read,B,,slow,RECOG,"Critical Lure Control",,179,Likert,User,1,"Was this item previously studied?","List Item Control",Recog,1::2,2802,NO,33.333333333333,-1,-1,0,0,,1
CalixtaNunez,8m62dxil4v,DRM1_MSU,1,143,2023-11-10T00:24:26+00:00,2.4500269889832,2,Stim_B.csv,Read.csv,Read,B,,girl,RECOG,"Critical Lure",,184,Likert,User,1,"Was this item previously studied?","List Item Control",Recog,1::2,2290,YES,0,-1,-1,0,0,,1
CalixtaNunez,8m62dxil4v,DRM1_MSU,1,144,2023-11-10T00:24:29+00:00,2.2261807918549,2,Stim_B.csv,Read.csv,Read,B,,fight,RECOG,"List Item Control",,122,Likert,User,1,"Was this item previously studied?","List Item Sans F",Recog,1::2,2081,NO,0,-1,-1,0,0,,1
CalixtaNunez,8m62dxil4v,DRM1_MSU,1,145,2023-11-10T00:24:31+00:00,2.3735821247101,2,Stim_B.csv,Read.csv,Read,B,,window,RECOG,"Critical Lure Control",,199,Likert,User,1,"Was this item previously studied?","Critical Lure Control",Recog,1::2,2223,NO,50,-1,-1,0,0,,1
CalixtaNunez,8m62dxil4v,DRM1_MSU,1,146,2023-11-10T00:24:33+00:00,2.1818358898163,2,Stim_B.csv,Read.csv,Read,B,,health,RECOG,"List Item Control",,156,Likert,User,1,"Was this item previously studied?","Critical Lure Sans F",Recog,1::2,2031,NO,0,-1,-1,0,0,,1
CalixtaNunez,8m62dxil4v,DRM1_MSU,1,147,2023-11-10T00:24:36+00:00,2.6619501113892,2,Stim_B.csv,Read.csv,Read,B,,cake,RECOG,"List Item",,158,Likert,User,1,"Was this item previously studied?","Critical Lure Sans F",Recog,1::2,2517,NO,0,-1,-1,0,0,,1
CalixtaNunez,8m62dxil4v,DRM1_MSU,1,148,2023-11-10T00:24:38+00:00,1.8634328842163,2,Stim_B.csv,Read.csv,Read,B,,kick,RECOG,"List Item",,142,Likert,User,1,"Was this item previously studied?","List Item Sans F",Recog,1::2,1712,YES,0,-1,-1,0,0,,1
CalixtaNunez,8m62dxil4v,DRM1_MSU,1,149,2023-11-10T00:24:40+00:00,1.8844411373138,2,Stim_B.csv,Read.csv,Read,B,,mountain,RECOG,"Critical Lure",,192,Likert,User,1,"Was this item previously studied?","Critical Lure Control",Recog,1::2,1736,YES,0,-1,-1,0,0,,1
CalixtaNunez,8m62dxil4v,DRM1_MSU,1,150,2023-11-10T00:24:42+00:00,2.1651618480682,2,Stim_B.csv,Read.csv,Read,B,,cuffs,RECOG,"List Item Control",,185,Likert,User,1,"Was this item previously studied?","List Item Control",Recog,1::2,2018,YES,25,-1,-1,0,0,,1
CalixtaNunez,8m62dxil4v,DRM1_MSU,1,151,2023-11-10T00:24:44+00:00,1.9864671230316,2,Stim_B.csv,Read.csv,Read,B,,fragrance,RECOG,"List Item",,143,Likert,User,1,"Was this item previously studied?","List Item Standard F",Recog,1::2,1835,YES,16.666666666667,-1,-1,0,0,,1
CalixtaNunez,8m62dxil4v,DRM1_MSU,1,152,2023-11-10T00:24:46+00:00,2.2116758823395,2,Stim_B.csv,Read.csv,Read,B,,boat,RECOG,"List Item Control",,181,Likert,User,1,"Was this item previously studied?","List Item Control",Recog,1::2,2063,NO,33.333333333333,-1,-1,0,0,,1
CalixtaNunez,8m62dxil4v,DRM1_MSU,1,153,2023-11-10T00:24:48+00:00,1.8713350296021,2,Stim_B.csv,Read.csv,Read,B,,ink,RECOG,"List Item",,139,Likert,User,1,"Was this item previously studied?","List Item Standard F",Recog,1::2,1713,YES,0,-1,-1,0,0,,1
CalixtaNunez,8m62dxil4v,DRM1_MSU,1,154,2023-11-10T00:24:50+00:00,2.3083741664886,2,Stim_B.csv,Read.csv,Read,B,,waste,RECOG,"List Item Control",,137,Likert,User,1,"Was this item previously studied?","List Item Standard F",Recog,1::2,2154,NO,0,-1,-1,0,0,,1
CalixtaNunez,8m62dxil4v,DRM1_MSU,1,155,2023-11-10T00:24:52+00:00,2.0875058174133,2,Stim_B.csv,Read.csv,Read,B,,latex,RECOG,"List Item",,165,Likert,User,1,"Was this item previously studied?","List Item Control",Recog,1::2,1920,YES,25,-1,-1,0,0,,1
CalixtaNunez,8m62dxil4v,DRM1_MSU,1,156,2023-11-10T00:24:54+00:00,1.9599161148071,2,Stim_B.csv,Read.csv,Read,B,,nurse,RECOG,"List Item Control",,159,Likert,User,1,"Was this item previously studied?","Critical Lure Standard F",Recog,1::2,1808,NO,28.571428571429,-1,-1,0,0,,1
CalixtaNunez,8m62dxil4v,DRM1_MSU,1,157,2023-11-10T00:24:58+00:00,3.6077580451965,2,Stim_B.csv,Read.csv,Read,B,,boot,RECOG,"List Item",,195,Likert,User,1,"Was this item previously studied?","Critical Lure Control",Recog,1::2,3460,YES,0,-1,-1,0,0,,1
CalixtaNunez,8m62dxil4v,DRM1_MSU,1,158,2023-11-10T00:25:00+00:00,1.7472820281982,2,Stim_B.csv,Read.csv,Read,B,,anger,RECOG,"Critical Lure Control",,177,Likert,User,1,"Was this item previously studied?","List Item Control",Recog,1::2,1593,NO,28.571428571429,-1,-1,0,0,,1
CalixtaNunez,8m62dxil4v,DRM1_MSU,1,159,2023-11-10T00:25:02+00:00,2.5989649295807,2,Stim_B.csv,Read.csv,Read,B,,chair,RECOG,"Critical Lure",,175,Likert,User,1,"Was this item previously studied?","List Item Control",Recog,1::2,2452,YES,0,-1,-1,0,0,,1
CalixtaNunez,8m62dxil4v,DRM1_MSU,1,160,2023-11-10T00:25:04+00:00,2.0326759815216,2,Stim_B.csv,Read.csv,Read,B,,loud,RECOG,"List Item",,138,Likert,User,1,"Was this item previously studied?","List Item Standard F",Recog,1::2,1887,YES,0,-1,-1,0,0,,1
CalixtaNunez,8m62dxil4v,DRM1_MSU,1,161,2023-11-10T00:25:06+00:00,1.903037071228,2,Stim_B.csv,Read.csv,Read,B,,hill,RECOG,"List Item",,152,Likert,User,1,"Was this item previously studied?","Critical Lure Sans F",Recog,1::2,1759,YES,0,-1,-1,0,0,,1
CalixtaNunez,8m62dxil4v,DRM1_MSU,1,162,2023-11-10T00:25:08+00:00,2.2332119941711,2,Stim_B.csv,Read.csv,Read,B,,mad,RECOG,"List Item Control",,188,Likert,User,1,"Was this item previously studied?","List Item Control",Recog,1::2,2074,NO,0,-1,-1,0,0,,1
CalixtaNunez,8m62dxil4v,DRM1_MSU,1,163,2023-11-10T00:25:10+00:00,1.9028859138489,2,Stim_B.csv,Read.csv,Read,B,,doctor,RECOG,"Critical Lure Control",,186,Likert,User,1,"Was this item previously studied?","List Item Control",Recog,1::2,1762,NO,25,-1,-1,0,0,,1
CalixtaNunez,8m62dxil4v,DRM1_MSU,1,164,2023-11-10T00:25:14+00:00,3.805743932724,2,Stim_B.csv,Read.csv,Read,B,,trash,RECOG,"Critical Lure Control",,134,Likert,User,1,"Was this item previously studied?","List Item Sans F",Recog,1::2,3657,NO,0,-1,-1,0,0,,1
CalixtaNunez,8m62dxil4v,DRM1_MSU,1,165,2023-11-10T00:25:16+00:00,1.9122090339661,2,Stim_B.csv,Read.csv,Read,B,,riders,RECOG,"List Item Control",,146,Likert,User,1,"Was this item previously studied?","List Item Sans F",Recog,1::2,1763,YES,44.444444444444,-1,-1,0,0,,1
CalixtaNunez,8m62dxil4v,DRM1_MSU,1,166,2023-11-10T00:25:18+00:00,2.0091919898987,2,Stim_B.csv,Read.csv,Read,B,,smell,RECOG,"Critical Lure",,173,Likert,User,1,"Was this item previously studied?","List Item Control",Recog,1::2,1857,YES,25,-1,-1,0,0,,1
CalixtaNunez,8m62dxil4v,DRM1_MSU,1,167,2023-11-10T00:25:20+00:00,2.1908280849457,2,Stim_B.csv,Read.csv,Read,B,,jersey,RECOG,"List Item Control",,133,Likert,User,1,"Was this item previously studied?","List Item Standard F",Recog,1::2,2032,NO,0,-1,-1,0,0,,1
CalixtaNunez,8m62dxil4v,DRM1_MSU,1,168,2023-11-10T00:25:22+00:00,1.895308971405,2,Stim_B.csv,Read.csv,Read,B,,snail,RECOG,"List Item Control",,166,Likert,User,1,"Was this item previously studied?","List Item Control",Recog,1::2,1746,YES,25,-1,-1,0,0,,1
CalixtaNunez,8m62dxil4v,DRM1_MSU,1,169,2023-11-10T00:25:24+00:00,1.8804800510406,2,Stim_B.csv,Read.csv,Read,B,,rubbish,RECOG,"List Item Control",,170,Likert,User,1,"Was this item previously studied?","List Item Control",Recog,1::2,1730,YES,20,-1,-1,0,0,,1
CalixtaNunez,8m62dxil4v,DRM1_MSU,1,170,2023-11-10T00:25:27+00:00,2.7591140270233,2,Stim_B.csv,Read.csv,Read,B,,concert,RECOG,"List Item",,201,Likert,User,1,"Was this item previously studied?","Critical Lure Control",Recog,1::2,2609,NO,22.222222222222,-1,-1,0,0,,1
CalixtaNunez,8m62dxil4v,DRM1_MSU,1,171,2023-11-10T00:25:28+00:00,1.7908840179443,2,Stim_B.csv,Read.csv,Read,B,,road,RECOG,"List Item Control",,169,Likert,User,1,"Was this item previously studied?","List Item Control",Recog,1::2,1636,YES,0,-1,-1,0,0,,1
CalixtaNunez,8m62dxil4v,DRM1_MSU,1,172,2023-11-10T00:25:31+00:00,2.1401479244232,2,Stim_B.csv,Read.csv,Read,B,,hesitant,RECOG,"List Item Control",,167,Likert,User,1,"Was this item previously studied?","List Item Control",Recog,1::2,1979,NO,20,-1,-1,0,0,,1
CalixtaNunez,8m62dxil4v,DRM1_MSU,1,173,2023-11-10T00:25:32+00:00,1.8463189601898,2,Stim_B.csv,Read.csv,Read,B,,national,RECOG,"List Item Control",,161,Likert,User,1,"Was this item previously studied?","Critical Lure Standard F",Recog,1::2,1698,NO,40,-1,-1,0,0,,1
CalixtaNunez,8m62dxil4v,DRM1_MSU,1,174,2023-11-10T00:25:34+00:00,1.7632570266724,2,Stim_B.csv,Read.csv,Read,B,,melody,RECOG,"List Item",,123,Likert,User,1,"Was this item previously studied?","List Item Sans F",Recog,1::2,1611,YES,22.222222222222,-1,-1,0,0,,1
CalixtaNunez,8m62dxil4v,DRM1_MSU,1,175,2023-11-10T00:25:36+00:00,1.8503570556641,2,Stim_B.csv,Read.csv,Read,B,,pile,RECOG,"List Item Control",,132,Likert,User,1,"Was this item previously studied?","List Item Standard F",Recog,1::2,1695,NO,0,-1,-1,0,0,,1
CalixtaNunez,8m62dxil4v,DRM1_MSU,1,176,2023-11-10T00:25:38+00:00,1.7404758930206,2,Stim_B.csv,Read.csv,Read,B,,eraser,RECOG,"List Item",,193,Likert,User,1,"Was this item previously studied?","Critical Lure Control",Recog,1::2,1586,YES,44.444444444444,-1,-1,0,0,,1
CalixtaNunez,8m62dxil4v,DRM1_MSU,1,177,2023-11-10T00:25:40+00:00,1.8863990306854,2,Stim_B.csv,Read.csv,Read,B,,checkered,RECOG,"List Item Control",,178,Likert,User,1,"Was this item previously studied?","List Item Control",Recog,1::2,1728,NO,0,-1,-1,0,0,,1
CalixtaNunez,8m62dxil4v,DRM1_MSU,1,178,2023-11-10T00:25:42+00:00,2.0150980949402,2,Stim_B.csv,Read.csv,Read,B,,fur,RECOG,"List Item",,145,Likert,User,1,"Was this item previously studied?","List Item Standard F",Recog,1::2,1862,YES,0,-1,-1,0,0,,1
CalixtaNunez,8m62dxil4v,DRM1_MSU,1,179,2023-11-10T00:25:44+00:00,1.8058838844299,2,Stim_B.csv,Read.csv,Read,B,,ball,RECOG,"List Item",,171,Likert,User,1,"Was this item previously studied?","List Item Control",Recog,1::2,1643,YES,0,-1,-1,0,0,,1
CalixtaNunez,8m62dxil4v,DRM1_MSU,1,180,2023-11-10T00:25:46+00:00,2.4346771240234,2,Stim_B.csv,Read.csv,Read,B,,shade,RECOG,"List Item Control",,147,Likert,User,1,"Was this item previously studied?","List Item Sans F",Recog,1::2,2281,YES,25,-1,-1,0,0,,1
CalixtaNunez,8m62dxil4v,DRM1_MSU,1,181,2023-11-10T00:25:49+00:00,2.7091948986053,2,Stim_B.csv,Read.csv,Read,B,,sleeves,RECOG,"List Item Control",,198,Likert,User,1,"Was this item previously studied?","Critical Lure Control",Recog,1::2,2556,NO,0,-1,-1,0,0,,1
CalixtaNunez,8m62dxil4v,DRM1_MSU,1,182,2023-11-10T00:25:51+00:00,1.9110441207886,2,Stim_B.csv,Read.csv,Read,B,,swivel,RECOG,"List Item",,180,Likert,User,1,"Was this item previously studied?","List Item Control",Recog,1::2,1760,YES,22.222222222222,-1,-1,0,0,,1
CalixtaNunez,8m62dxil4v,DRM1_MSU,1,183,2023-11-10T00:25:52+00:00,1.8387539386749,2,Stim_B.csv,Read.csv,Read,B,,music,RECOG,"Critical Lure",,176,Likert,User,1,"Was this item previously studied?","List Item Control",Recog,1::2,1684,YES,25,-1,-1,0,0,,1
CalixtaNunez,8m62dxil4v,DRM1_MSU,1,184,2023-11-10T00:25:54+00:00,1.7443220615387,2,Stim_B.csv,Read.csv,Read,B,,sweet,RECOG,"Critical Lure",,172,Likert,User,1,"Was this item previously studied?","List Item Control",Recog,1::2,1577,YES,25,-1,-1,0,0,,1
CalixtaNunez,8m62dxil4v,DRM1_MSU,1,185,2023-11-10T00:25:56+00:00,1.7855718135834,2,Stim_B.csv,Read.csv,Read,B,,speed,RECOG,"List Item Control",,200,Likert,User,1,"Was this item previously studied?","Critical Lure Control",Recog,1::2,1634,YES,25,-1,-1,0,0,,1
CalixtaNunez,8m62dxil4v,DRM1_MSU,1,186,2023-11-10T00:25:59+00:00,2.8004150390625,2,Stim_B.csv,Read.csv,Read,B,,loaf,RECOG,"List Item Control",,126,Likert,User,1,"Was this item previously studied?","List Item Standard F",Recog,1::2,1856,YES,0,-1,-1,0,0,,1
CalixtaNunez,8m62dxil4v,DRM1_MSU,1,187,2023-11-10T00:26:01+00:00,1.9884920120239,2,Stim_B.csv,Read.csv,Read,B,,mean,RECOG,"List Item Control",,168,Likert,User,1,"Was this item previously studied?","List Item Control",Recog,1::2,1843,NO,33.333333333333,-1,-1,0,0,,1
CalixtaNunez,8m62dxil4v,DRM1_MSU,1,188,2023-11-10T00:26:03+00:00,2.3707361221313,2,Stim_B.csv,Read.csv,Read,B,,bike,RECOG,"List Item",,189,Likert,User,1,"Was this item previously studied?","List Item Control",Recog,1::2,2217,NO,0,-1,-1,0,0,,1
CalixtaNunez,8m62dxil4v,DRM1_MSU,1,189,2023-11-10T00:26:05+00:00,1.7271039485931,2,Stim_B.csv,Read.csv,Read,B,,rubber,RECOG,"Critical Lure",,163,Likert,User,1,"Was this item previously studied?","List Item Control",Recog,1::2,1570,YES,22.222222222222,-1,-1,0,0,,1
CalixtaNunez,8m62dxil4v,DRM1_MSU,1,190,2023-11-10T00:26:07+00:00,1.9303939342499,2,Stim_B.csv,Read.csv,Read,B,,sofa,RECOG,"List Item",,141,Likert,User,1,"Was this item previously studied?","List Item Sans F",Recog,1::2,1783,YES,28.571428571429,-1,-1,0,0,,1
CalixtaNunez,8m62dxil4v,DRM1_MSU,1,191,2023-11-10T00:26:09+00:00,1.9058570861816,2,Stim_B.csv,Read.csv,Read,B,,smooth,RECOG,"List Item Control",,187,Likert,User,1,"Was this item previously studied?","List Item Control",Recog,1::2,1753,YES,22.222222222222,-1,-1,0,0,,1
CalixtaNunez,8m62dxil4v,DRM1_MSU,1,192,2023-11-10T00:26:11+00:00,2.0327658653259,2,Stim_B.csv,Read.csv,Read,B,,creek,RECOG,"List Item Control",,196,Likert,User,1,"Was this item previously studied?","Critical Lure Control",Recog,1::2,1885,NO,0,-1,-1,0,0,,1
CalixtaNunez,8m62dxil4v,DRM1_MSU,1,193,2023-11-10T00:26:13+00:00,2.3331711292267,2,Stim_B.csv,Read.csv,Read,B,,cute,RECOG,"List Item",,150,Likert,User,1,"Was this item previously studied?","List Item Standard F",Recog,1::2,2175,YES,28.571428571429,-1,-1,0,0,,1
CalixtaNunez,8m62dxil4v,DRM1_MSU,1,194,2023-11-10T00:26:15+00:00,2.2398979663849,2,Stim_B.csv,Read.csv,Read,B,,sandwich,RECOG,"List Item Control",,151,Likert,User,1,"Was this item previously studied?","List Item Standard F",Recog,1::2,2092,NO,20,-1,-1,0,0,,1
CalixtaNunez,8m62dxil4v,DRM1_MSU,1,195,2023-11-10T00:26:19+00:00,3.3703210353851,2,Stim_B.csv,Read.csv,Read,B,,black,RECOG,"Critical Lure",,164,Likert,User,1,"Was this item previously studied?","List Item Control",Recog,1::2,3211,YES,0,-1,-1,0,0,,1
CalixtaNunez,8m62dxil4v,DRM1_MSU,1,196,2023-11-10T00:26:21+00:00,1.9771549701691,2,Stim_B.csv,Read.csv,Read,B,,blue,RECOG,"List Item",,149,Likert,User,1,"Was this item previously studied?","List Item Standard F",Recog,1::2,1820,YES,28.571428571429,-1,-1,0,0,,1
CalixtaNunez,8m62dxil4v,DRM1_MSU,1,197,2023-11-10T00:26:22+00:00,1.8145899772644,2,Stim_B.csv,Read.csv,Read,B,,soft,RECOG,"Critical Lure",,162,Likert,User,1,"Was this item previously studied?","List Item Control",Recog,1::2,1662,YES,28.571428571429,-1,-1,0,0,,1
CalixtaNunez,8m62dxil4v,DRM1_MSU,1,198,2023-11-10T00:26:24+00:00,1.7408719062805,2,Stim_B.csv,Read.csv,Read,B,,bitter,RECOG,"List Item",,155,Likert,User,1,"Was this item previously studied?","Critical Lure Standard F",Recog,1::2,1590,YES,22.222222222222,-1,-1,0,0,,1
CalixtaNunez,8m62dxil4v,DRM1_MSU,1,199,2023-11-10T00:26:27+00:00,2.8149390220642,2,Stim_B.csv,Read.csv,Read,B,,jelly,RECOG,"List Item Control",,136,Likert,User,1,"Was this item previously studied?","List Item Sans F",Recog,1::2,2667,NO,0,-1,-1,0,0,,1
CalixtaNunez,8m62dxil4v,DRM1_MSU,1,200,2023-11-10T00:26:29+00:00,2.0017521381378,2,Stim_B.csv,Read.csv,Read,B,,scent,RECOG,"List Item",,190,Likert,User,1,"Was this item previously studied?","List Item Control",Recog,1::2,1852,YES,25,-1,-1,0,0,,1
CalixtaNunez,8m62dxil4v,DRM1_MSU,1,201,2023-11-10T00:26:31+00:00,2.4419298171997,2,Stim_B.csv,Read.csv,Read,B,,river,RECOG,"Critical Lure Control",,140,Likert,User,1,"Was this item previously studied?","List Item Sans F",Recog,1::2,2293,YES,25,-1,-1,0,0,,1
CalixtaNunez,8m62dxil4v,DRM1_MSU,1,202,2023-11-10T00:26:33+00:00,1.9636571407318,2,Stim_B.csv,Read.csv,Read,B,,view,RECOG,"List Item Control",,130,Likert,User,1,"Was this item previously studied?","List Item Sans F",Recog,1::2,1813,NO,0,-1,-1,0,0,,1
CalixtaNunez,8m62dxil4v,DRM1_MSU,1,203,2023-11-10T00:26:36+00:00,2.1580109596252,2,Stim_B.csv,Read.csv,Read,B,,bread,RECOG,"Critical Lure Control",,135,Likert,User,1,"Was this item previously studied?","List Item Sans F",Recog,1::2,2011,YES,25,-1,-1,0,0,,1
CalixtaNunez,8m62dxil4v,DRM1_MSU,1,204,2023-11-10T00:26:38+00:00,2.080372095108,2,Stim_B.csv,Read.csv,Read,B,,sill,RECOG,"List Item Control",,128,Likert,User,1,"Was this item previously studied?","List Item Sans F",Recog,1::2,1923,NO,0,-1,-1,0,0,,1
CalixtaNunez,8m62dxil4v,DRM1_MSU,1,205,2023-11-10T00:26:40+00:00,1.8817639350891,2,Stim_B.csv,Read.csv,Read,B,,symbol,RECOG,"List Item Control",,160,Likert,User,1,"Was this item previously studied?","Critical Lure Sans F",Recog,1::2,1677,YES,22.222222222222,-1,-1,0,0,,1
CalixtaNunez,8m62dxil4v,DRM1_MSU,1,206,2023-11-10T00:26:42+00:00,2.2837960720062,2,Stim_B.csv,Read.csv,Read,B,,flag,RECOG,"Critical Lure Control",,131,Likert,User,1,"Was this item previously studied?","List Item Standard F",Recog,1::2,2133,YES,0,-1,-1,0,0,,1
CalixtaNunez,8m62dxil4v,DRM1_MSU,1,207,2023-11-10T00:26:44+00:00,1.8373990058899,2,Stim_B.csv,Read.csv,Read,B,,couch,RECOG,"List Item",,154,Likert,User,1,"Was this item previously studied?","Critical Lure Sans F",Recog,1::2,1691,YES,0,-1,-1,0,0,,1
CalixtaNunez,8m62dxil4v,DRM1_MSU,1,208,2023-11-10T00:26:45+00:00,1.8062839508057,2,Stim_B.csv,Read.csv,Read,B,,foot,RECOG,"Critical Lure",,144,Likert,User,1,"Was this item previously studied?","List Item Standard F",Recog,1::2,1649,NO,33.333333333333,-1,-1,0,0,,1
CalixtaNunez,8m62dxil4v,DRM1_MSU,1,209,2023-11-10T00:26:48+00:00,2.2333149909973,2,Stim_B.csv,Read.csv,Read,B,,barge,RECOG,"List Item Control",,153,Likert,User,1,"Was this item previously studied?","Critical Lure Standard F",Recog,1::2,2070,NO,0,-1,-1,0,0,,1
CalixtaNunez,8m62dxil4v,DRM1_MSU,1,210,2023-11-10T00:26:49+00:00,1.733057975769,2,Stim_B.csv,Read.csv,Read,B,,gray,RECOG,"List Item",,182,Likert,User,1,"Was this item previously studied?","List Item Control",Recog,1::2,1577,YES,28.571428571429,-1,-1,0,0,,1
CalixtaNunez,8m62dxil4v,DRM1_MSU,1,211,2023-11-10T00:26:51+00:00,1.665314912796,2,Stim_B.csv,Read.csv,Read,B,,cotton,RECOG,"List Item",,183,Likert,User,1,"Was this item previously studied?","List Item Control",Recog,1::2,1523,YES,0,-1,-1,0,0,,1
CalixtaNunez,8m62dxil4v,DRM1_MSU,1,212,2023-11-10T00:26:53+00:00,1.7563691139221,2,Stim_B.csv,Read.csv,Read,B,,daughter,RECOG,"List Item",,191,Likert,User,1,"Was this item previously studied?","List Item Control",Recog,1::2,1608,YES,18.181818181818,-1,-1,0,0,,1
CalixtaNunez,8m62dxil4v,DRM1_MSU,1,213,2023-11-10T00:26:56+00:00,2.9839019775391,2,Stim_B.csv,Read.csv,Read,B,,rough,RECOG,"Critical Lure Control",,148,Likert,User,1,"Was this item previously studied?","List Item Sans F",Recog,1::2,2828,NO,28.571428571429,-1,-1,0,0,,1
CalixtaNunez,8m62dxil4v,DRM1_MSU,1,214,2023-11-10T00:26:58+00:00,2.2631130218506,2,Stim_B.csv,Read.csv,Read,B,,medicine,RECOG,"List Item Control",,124,Likert,User,1,"Was this item previously studied?","List Item Sans F",Recog,1::2,2112,YES,18.181818181818,-1,-1,0,0,,1
CalixtaNunez,8m62dxil4v,DRM1_MSU,1,215,2023-11-10T00:27:00+00:00,2.0607659816742,2,Stim_B.csv,Read.csv,Read,B,,inch,RECOG,"List Item",,197,Likert,User,1,"Was this item previously studied?","Critical Lure Control",Recog,1::2,1906,NO,33.333333333333,-1,-1,0,0,,1
CalixtaNunez,8m62dxil4v,DRM1_MSU,1,216,2023-11-10T00:27:08+00:00,8.0302588939667,2,Stim_B.csv,Read.csv,Read,B,,,,,,0,Instruct,User,-,"You have completed this section. Please click next.",,Instruct7,,7869,,,-1,-1,,,,1
CalixtaNunez,8m62dxil4v,DRM1_MSU,1,217,2023-11-10T00:27:11+00:00,2.4798681735992,2,Stim_B.csv,Read.csv,Read,B,,,,,,0,Instruct,User,-,"The following screen will ask you a few questions abour your experience today. You must complete these questions to receive credit.",,Instruct8,,2285,,,-1,-1,,,,1
